subject PestNr Step_Size_OnTrial Pest_Faster Pest_Interval Condition block trial velH velH_Pest Reaction_Time velH_Subject Start_Above Response_MotionEstimation RightOrLeft
lala 1 1.2 1 first 17 1 1 6 7.98 0.01999831199646 0 1 1 1
lala 1 1.2 0 second 0 1 2 4 2.64 0.01999831199646 -1 0 -1 0
lala 1 1.2 1 second 3 1 3 5 6.65 0.01999831199646 -1 1 1 1
lala 1 1.2 0 second 8 1 4 5 3.3 0.01999831199646 1 0 -1 1
lala 1 1.2 1 first 9 1 5 5 6.65 0.01999831199646 1 1 1 1
lala 1 1.2 1 second 11 1 6 6 7.98 0.01999831199646 1 1 1 0
lala 2 1.2 0 first 0 1 7 4 3.84 0.01999831199646 -1 0 -1 0
lala 1 1.2 0 first 6 1 8 4 2.64 0.01999831199646 1 0 -1 1
lala 1 1.2 0 second 4 1 9 6 3.96 0.01999831199646 -1 0 -1 1
lala 1 1.2 0 first 2 1 10 5 3.3 0.01999831199646 -1 0 -1 1
lala 1 1.2 0 first 12 1 11 4 2.64 0.01999831199646 0 0 -1 0
lala 1 1.2 0 second 16 1 12 6 3.96 0.01999831199646 0 0 -1 1
lala 1 1.2 1 first 15 1 13 5 6.65 0.01999831199646 0 1 1 0
lala 1 1.2 1 second 13 1 14 4 5.32 0.01999831199646 0 1 1 1
lala 1 1.2 0 first 14 1 15 5 3.3 0.01999831199646 0 0 -1 1
lala 2 1.2 1 first 15 1 16 5 5.45 0.01999831199646 0 1 1 1
lala 2 1.2 1 first 11 1 17 6 6.780001 0.01999831199646 1 1 1 0
lala 2 1.2 1 second 3 1 18 5 5.45 0.01999831199646 -1 1 1 1
lala 2 1.2 0 first 14 1 19 5 4.5 0.01999831199646 0 0 -1 1
lala 2 1.2 0 second 8 1 20 5 4.5 0.01999831199646 1 0 -1 0
lala 1 1.2 0 first 10 1 21 6 3.96 0.01999831199646 1 0 -1 1
lala 1 1.2 1 first 7 1 22 4 5.32 0.01999831199646 1 1 1 0
lala 2 1.2 0 second 12 1 23 4 3.84 0.01999831199646 0 0 -1 1
lala 2 1.2 0 second 10 1 24 6 5.16 0.01999831199646 1 0 -1 0
lala 2 1.2 1 first 7 1 25 4 4.12 0.01999831199646 1 1 1 0
lala 1 1.2 1 second 5 1 26 6 7.98 0.01999831199646 -1 1 1 1
lala 2 1.2 0 second 6 1 27 4 3.84 0.01999831199646 1 0 -1 0
lala 3 1.2 0 first 15 1 28 5 4.25 0.01999831199646 0 1 -1 1
lala 2 1.2 0 first 2 1 29 5 4.5 0.01999831199646 -1 0 -1 0
lala 3 1.2 1 first 10 1 30 6 6.36 0.01999831199646 1 0 1 1
lala 4 1.2 1 second 15 1 31 5 5.45 0.01999831199646 0 1 1 0
lala 3 1.2 1 first 6 1 32 4 5.04 0.01999831199646 1 0 1 0
lala 4 1.2 0 second 6 1 33 4 3.84 0.01999831199646 1 0 -1 1
lala 2 1.2 1 first 13 1 34 4 4.12 0.01999831199646 0 1 1 0
lala 2 1.2 0 first 16 1 35 6 5.16 0.01999831199646 0 0 -1 0
lala 3 1.2 0 first 13 1 36 4 2.92 0.01999831199646 0 1 -1 0
lala 3 1.2 1 second 8 1 37 5 5.7 0.01999831199646 1 0 1 1
lala 2 1.2 1 second 9 1 38 5 5.45 0.01999831199646 1 1 1 1
lala 4 1.2 0 second 8 1 39 5 4.5 0.01999831199646 1 0 -1 1
lala 2 1.2 0 second 4 1 40 6 5.16 0.01999831199646 -1 0 -1 1
lala 3 1.2 1 first 14 1 41 5 5.7 0.01999831199646 0 0 1 0
lala 5 0.6 0 first 15 1 42 5 4.85 0.01999831199646 0 1 -1 0
lala 5 0.6 1 second 6 1 43 4 4.44 0.01999831199646 1 0 1 1
lala 2 1.2 1 first 17 1 44 6 6.780001 0.01999831199646 0 1 1 0
lala 3 1.2 1 second 2 1 45 5 5.7 0.01999831199646 -1 0 1 0
lala 6 0.3 1 second 15 1 46 5 5.15 0.01999831199646 0 1 1 1
lala 3 1.2 1 first 4 1 47 6 6.36 0.01999831199646 -1 0 1 0
lala 4 1.2 0 second 14 1 48 5 4.5 0.01999831199646 0 0 -1 1
lala 4 1.2 0 second 4 1 49 6 5.16 0.01999831199646 -1 0 -1 1
lala 5 0.6 0 first 4 1 50 6 5.76 0.01999831199646 -1 0 -1 1
lala 5 0.6 1 second 14 1 51 5 5.1 0.01999831199646 0 0 1 1
lala 7 0.15 1 first 15 1 52 5 5 0.01999831199646 0 1 1 1
lala 1 1.2 1 first 1 1 53 4 5.32 0.01999831199646 -1 1 1 1
lala 8 0.15 0 first 15 1 54 5 4.85 0.01999831199646 0 1 -1 0
lala 4 1.2 1 first 13 1 55 4 4.12 0.01999831199646 0 1 1 0
lala 4 1.2 0 second 10 1 56 6 5.16 0.01999831199646 1 0 -1 0
lala 3 1.2 0 first 11 1 57 6 5.580001 0.01999831199646 1 1 -1 0
lala 3 1.2 1 first 12 1 58 4 5.04 0.01999831199646 0 0 1 0
lala 3 1.2 0 second 7 1 59 4 2.92 0.01999831199646 1 1 -1 0
lala 3 1.2 1 second 16 1 60 6 6.36 0.01999831199646 0 0 1 1
lala 3 1.2 1 second 0 1 61 4 5.04 0.01999831199646 -1 0 1 1
lala 9 0.075 0 second 15 1 62 5 4.925 0.01999831199646 0 1 -1 1
lala 6 0.3 0 second 14 1 63 5 4.8 0.01999831199646 0 0 -1 1
lala 5 0.6 1 second 8 1 64 5 5.1 0.01999831199646 1 0 1 1
lala 4 1.2 0 second 12 1 65 4 3.84 0.01999831199646 0 0 -1 0
lala 6 0.6 1 first 4 1 66 6 6.36 0.01999831199646 -1 0 1 1
lala 4 1.2 0 first 2 1 67 5 4.5 0.01999831199646 -1 0 -1 0
lala 2 1.2 1 first 5 1 68 6 6.780001 0.01999831199646 -1 1 1 1
lala 3 1.2 0 first 5 1 69 6 5.580001 0.01999831199646 -1 1 -1 0
lala 6 0.3 1 second 6 1 70 4 4.14 0.01999831199646 1 0 1 0
lala 7 0.15 0 first 14 1 71 5 4.95 0.01999831199646 0 0 -1 1
lala 4 1.2 1 second 7 1 72 4 4.12 0.01999831199646 1 1 1 0
lala 8 0.15 1 second 14 1 73 5 5.1 0.01999831199646 0 0 1 1
lala 9 0.075 1 first 14 1 74 5 5.025 0.01999831199646 0 0 1 0
lala 4 1.2 1 first 11 1 75 6 6.780001 0.01999831199646 1 1 1 1
lala 4 1.2 0 second 0 1 76 4 3.84 0.01999831199646 -1 0 -1 0
lala 3 1.2 0 first 17 1 77 6 5.580001 0.01999831199646 0 1 -1 1
lala 10 0.075 0 second 14 1 78 5 4.95 0.01999831199646 0 0 -1 1
lala 7 0.3 0 first 6 1 79 4 3.84 0.01999831199646 1 0 -1 0
lala 4 1.2 1 first 17 1 80 6 6.780001 0.01999831199646 0 1 1 1
lala 8 0.15 0 second 6 1 81 4 3.99 0.01999831199646 1 0 -1 0
lala 4 1.2 1 first 5 1 82 6 6.780001 0.01999831199646 -1 1 1 0
lala 5 0.6 0 first 13 1 83 4 3.52 0.01999831199646 0 1 -1 0
lala 5 0.6 1 second 11 1 84 6 6.180001 0.01999831199646 1 1 1 0
lala 6 0.3 0 second 8 1 85 5 4.8 0.01999831199646 1 0 -1 0
lala 6 0.3 0 first 13 1 86 4 3.82 0.01999831199646 0 1 -1 1
lala 3 1.2 0 first 9 1 87 5 4.25 0.01999831199646 1 1 -1 1
lala 7 0.3 1 first 13 1 88 4 4.12 0.01999831199646 0 1 1 1
lala 9 0.15 1 second 6 1 89 4 4.14 0.01999831199646 1 0 1 1
lala 10 0.075 0 second 15 1 90 5 5 0.01999831199646 0 1 -1 1
lala 5 0.6 1 second 0 1 91 4 4.44 0.01999831199646 -1 0 1 0
lala 5 0.6 1 second 17 1 92 6 6.180001 0.01999831199646 0 1 1 0
lala 11 0.0375 0 second 14 1 93 5 4.9875 0.01999831199646 0 0 -1 0
lala 4 1.2 1 first 9 1 94 5 5.45 0.01999831199646 1 1 1 1
lala 7 0.15 0 first 8 1 95 5 4.95 0.01999831199646 1 0 -1 0
lala 12 0.0375 1 first 14 1 96 5 5.025 0.01999831199646 0 0 1 1
lala 11 0.075 1 first 15 1 97 5 5.074999 0.01999831199646 0 1 1 0
lala 7 0.3 1 second 4 1 98 6 6.059999 0.01999831199646 -1 0 1 1
lala 6 0.3 1 second 0 1 99 4 4.14 0.01999831199646 -1 0 1 0
lala 5 0.6 1 first 2 1 100 5 5.1 0.01999831199646 -1 0 1 1
lala 5 0.6 1 first 12 1 101 4 4.44 0.01999831199646 0 0 1 0
lala 8 0.15 1 second 8 1 102 5 5.1 0.01999831199646 1 0 1 0
lala 5 0.6 0 second 9 1 103 5 4.85 0.01999831199646 1 1 -1 0
lala 7 0.3 0 second 0 1 104 4 3.84 0.01999831199646 -1 0 -1 0
lala 10 0.075 1 second 6 1 105 4 4.065 0.01999831199646 1 0 1 1
lala 5 0.6 0 first 10 1 106 6 5.76 0.01999831199646 1 0 -1 1
lala 5 0.6 0 second 7 1 107 4 3.52 0.01999831199646 1 1 -1 0
lala 6 0.6 0 second 11 1 108 6 5.580001 0.01999831199646 1 1 -1 0
lala 6 0.3 0 first 2 1 109 5 4.8 0.01999831199646 -1 0 -1 1
lala 8 0.3 0 first 4 1 110 6 5.759999 0.01999831199646 -1 0 -1 0
lala 13 0.01875 1 first 14 1 111 5 5.00625 0.01999831199646 0 0 1 0
lala 5 0.6 1 second 5 1 112 6 6.180001 0.01999831199646 -1 1 1 0
lala 6 0.3 1 first 9 1 113 5 5.15 0.01999831199646 1 1 1 1
lala 6 0.3 1 first 12 1 114 4 4.14 0.01999831199646 0 0 1 1
lala 7 0.15 1 first 9 1 115 5 5 0.01999831199646 1 1 1 1
lala 6 0.6 0 first 17 1 116 6 5.580001 0.01999831199646 0 1 -1 0
lala 8 0.15 0 second 0 1 117 4 3.99 0.01999831199646 -1 0 -1 0
lala 6 0.6 0 second 5 1 118 6 5.580001 0.01999831199646 -1 1 -1 1
lala 6 0.3 0 second 7 1 119 4 3.82 0.01999831199646 1 1 -1 1
lala 2 1.2 1 first 1 1 120 4 4.12 0.01999831199646 -1 1 1 1
lala 9 0.15 1 second 0 1 121 4 4.14 0.01999831199646 -1 0 1 0
lala 7 0.15 0 second 2 1 122 5 4.95 0.01999831199646 -1 0 -1 0
lala 11 0.075 0 second 6 1 123 4 3.99 0.01999831199646 1 0 -1 1
lala 14 0.01875 0 first 14 1 124 5 4.9875 0.01999831199646 0 0 -1 1
lala 15 0.009375 0 first 14 1 125 5 4.996875 0.01999831199646 0 0 -1 0
lala 9 0.15 0 first 4 1 126 6 5.909999 0.01999831199646 -1 0 -1 1
lala 16 0.009375 1 first 14 1 127 5 5.00625 0.01999831199646 0 0 1 1
lala 7 0.3 0 first 12 1 128 4 3.84 0.01999831199646 0 0 -1 0
lala 10 0.075 1 first 0 1 129 4 4.065 0.01999831199646 -1 0 1 0
lala 6 0.6 1 first 10 1 130 6 6.36 0.01999831199646 1 0 1 1
lala 4 1.2 0 second 16 1 131 6 5.16 0.01999831199646 0 0 -1 0
lala 7 0.3 0 second 17 1 132 6 5.880001 0.01999831199646 0 1 -1 1
lala 3 1.2 0 second 3 1 133 5 4.25 0.01999831199646 -1 1 -1 1
lala 8 0.15 0 second 12 1 134 4 3.99 0.01999831199646 0 0 -1 1
lala 9 0.075 1 second 8 1 135 5 5.025 0.01999831199646 1 0 1 0
lala 5 0.6 0 second 16 1 136 6 5.76 0.01999831199646 0 0 -1 1
lala 4 1.2 1 second 3 1 137 5 5.45 0.01999831199646 -1 1 1 0
lala 12 0.0375 1 second 6 1 138 4 4.0275 0.01999831199646 1 0 1 1
lala 7 0.3 1 second 10 1 139 6 6.059999 0.01999831199646 1 0 1 1
lala 12 0.0375 1 first 15 1 140 5 5.037499 0.01999831199646 0 1 1 0
lala 8 0.3 1 first 17 1 141 6 6.180001 0.01999831199646 0 1 1 1
lala 7 0.3 0 second 11 1 142 6 5.880001 0.01999831199646 1 1 -1 1
lala 7 0.3 0 second 5 1 143 6 5.880001 0.01999831199646 -1 1 -1 1
lala 7 0.3 1 second 7 1 144 4 4.12 0.01999831199646 1 1 1 1
lala 13 0.01875 1 first 6 1 145 4 4.00875 0.01999831199646 1 0 1 1
lala 8 0.15 1 second 2 1 146 5 5.1 0.01999831199646 -1 0 1 0
lala 14 0.01875 0 first 6 1 147 4 3.99 0.01999831199646 1 0 -1 1
lala 5 0.6 0 first 3 1 148 5 4.85 0.01999831199646 -1 1 -1 1
lala 10 0.075 0 second 8 1 149 5 4.95 0.01999831199646 1 0 -1 0
lala 13 0.0375 0 second 15 1 150 5 5 0.01999831199646 0 1 -1 0
lala 15 0.009375 0 first 6 1 151 4 3.999375 0.01999831199646 1 0 -1 1
lala 10 0.15 1 second 4 1 152 6 6.059999 0.01999831199646 -1 0 1 0
lala 8 0.3 1 second 11 1 153 6 6.180001 0.01999831199646 1 1 1 0
lala 8 0.15 0 second 9 1 154 5 4.85 0.01999831199646 1 1 -1 1
lala 9 0.075 1 first 2 1 155 5 5.025 0.01999831199646 -1 0 1 0
lala 9 0.15 1 first 12 1 156 4 4.14 0.01999831199646 0 0 1 1
lala 6 0.3 1 first 3 1 157 5 5.15 0.01999831199646 -1 1 1 0
lala 16 0.009375 1 second 6 1 158 4 4.00875 0.01999831199646 1 0 1 0
lala 10 0.075 1 first 12 1 159 4 4.065 0.01999831199646 0 0 1 0
lala 11 0.075 0 second 4 1 160 6 5.985 0.01999831199646 -1 0 -1 1
lala 17 0.0046875 1 first 6 1 161 4 4.004063 0.01999831199646 1 0 1 0
lala 10 0.075 0 second 2 1 162 5 4.95 0.01999831199646 -1 0 -1 1
lala 9 0.15 1 second 11 1 163 6 6.030001 0.01999831199646 1 1 1 1
lala 6 0.6 1 second 16 1 164 6 6.36 0.01999831199646 0 0 1 0
lala 11 0.0375 0 second 2 1 165 5 4.9875 0.01999831199646 -1 0 -1 1
lala 11 0.075 0 first 12 1 166 4 3.99 0.01999831199646 0 0 -1 1
lala 7 0.3 1 second 16 1 167 6 6.059999 0.01999831199646 0 0 1 0
lala 8 0.3 0 second 10 1 168 6 5.759999 0.01999831199646 1 0 -1 0
lala 12 0.0375 1 first 4 1 169 6 6.0225 0.01999831199646 -1 0 1 1
lala 8 0.15 0 first 13 1 170 4 3.97 0.01999831199646 0 1 -1 1
lala 12 0.0375 1 second 2 1 171 5 5.025 0.01999831199646 -1 0 1 1
lala 8 0.15 0 first 7 1 172 4 3.97 0.01999831199646 1 1 -1 1
lala 3 1.2 0 first 1 1 173 4 2.92 0.01999831199646 -1 1 -1 1
lala 11 0.075 0 first 0 1 174 4 3.99 0.01999831199646 -1 0 -1 0
lala 9 0.15 0 second 10 1 175 6 5.909999 0.01999831199646 1 0 -1 1
lala 9 0.15 1 second 17 1 176 6 6.030001 0.01999831199646 0 1 1 0
lala 7 0.15 1 first 3 1 177 5 5 0.01999831199646 -1 1 1 1
lala 10 0.15 1 second 10 1 178 6 6.059999 0.01999831199646 1 0 1 1
lala 10 0.15 0 first 17 1 179 6 5.880001 0.01999831199646 0 1 -1 1
lala 8 0.3 1 first 5 1 180 6 6.180001 0.01999831199646 -1 1 1 0
lala 14 0.01875 1 second 15 1 181 5 5.01875 0.01999831199646 0 1 1 1
lala 11 0.0375 0 second 8 1 182 5 4.9875 0.01999831199646 1 0 -1 0
lala 8 0.3 0 second 16 1 183 6 5.759999 0.01999831199646 0 0 -1 1
lala 9 0.15 1 second 5 1 184 6 6.030001 0.01999831199646 -1 1 1 0
lala 18 0.0046875 0 first 6 1 185 4 3.999375 0.01999831199646 1 0 -1 0
lala 13 0.01875 1 first 2 1 186 5 5.00625 0.01999831199646 -1 0 1 1
lala 12 0.0375 1 first 12 1 187 4 4.0275 0.01999831199646 0 0 1 0
lala 10 0.15 0 first 5 1 188 6 5.880001 0.01999831199646 -1 1 -1 0
lala 10 0.15 0 first 11 1 189 6 5.880001 0.01999831199646 1 1 -1 1
lala 9 0.075 1 first 13 1 190 4 4.045 0.01999831199646 0 1 1 0
lala 19 0.00234375 1 first 6 1 191 4 4.001719 0.01999831199646 1 0 1 0
lala 8 0.15 0 first 3 1 192 5 4.85 0.01999831199646 -1 1 -1 0
lala 11 0.075 0 first 10 1 193 6 5.985 0.01999831199646 1 0 -1 1
lala 9 0.075 0 second 3 1 194 5 4.925 0.01999831199646 -1 1 -1 0
lala 11 0.075 0 first 5 1 195 6 5.955001 0.01999831199646 -1 1 -1 0
lala 20 0.001171875 1 second 6 1 196 4 4.000547 0.01999831199646 1 0 1 0
lala 12 0.0375 1 second 0 1 197 4 4.0275 0.01999831199646 -1 0 1 1
lala 13 0.01875 1 second 12 1 198 4 4.00875 0.01999831199646 0 0 1 1
lala 10 0.075 0 second 3 1 199 5 5 0.01999831199646 -1 1 -1 1
lala 13 0.01875 1 first 4 1 200 6 6.003749 0.01999831199646 -1 0 1 1
lala 14 0.01875 0 second 12 1 201 4 3.99 0.01999831199646 0 0 -1 1
lala 9 0.15 0 first 16 1 202 6 5.909999 0.01999831199646 0 0 -1 1
lala 12 0.0375 1 first 10 1 203 6 6.0225 0.01999831199646 1 0 1 1
lala 17 0.0046875 1 first 14 1 204 5 5.001563 0.01999831199646 0 0 1 0
lala 12 0.0375 1 first 8 1 205 5 5.025 0.01999831199646 1 0 1 0
lala 13 0.01875 1 first 10 1 206 6 6.003749 0.01999831199646 1 0 1 0
lala 13 0.01875 1 second 8 1 207 5 5.00625 0.01999831199646 1 0 1 0
lala 21 0.001171875 0 first 6 1 208 4 3.999375 0.01999831199646 1 0 -1 1
lala 9 0.075 0 first 9 1 210 5 4.925 0.01999831199646 1 1 -1 1
lala 11 0.075 1 first 3 1 211 5 5.074999 0.01999831199646 -1 1 1 1
lala 14 0.01875 0 second 8 1 212 5 4.9875 0.01999831199646 1 0 -1 1
lala 10 0.075 0 second 9 1 213 5 5 0.01999831199646 1 1 -1 1
lala 12 0.075 1 first 5 1 214 6 6.030001 0.01999831199646 -1 1 1 0
lala 11 0.075 0 second 17 1 215 6 5.955001 0.01999831199646 0 1 -1 1
lala 9 0.075 1 second 7 1 216 4 4.045 0.01999831199646 1 1 1 1
lala 10 0.0375 1 first 13 1 217 4 4.0075 0.01999831199646 0 1 1 0
lala 11 0.075 1 second 9 1 218 5 5.074999 0.01999831199646 1 1 1 1
lala 12 0.075 1 second 17 1 219 6 6.030001 0.01999831199646 0 1 1 0
lala 11 0.075 0 second 11 1 220 6 5.955001 0.01999831199646 1 1 -1 1
lala 12 0.0375 1 first 9 1 221 5 5.037499 0.01999831199646 1 1 1 0
lala 12 0.075 1 second 11 1 222 6 6.030001 0.01999831199646 1 1 1 1
lala 10 0.15 1 first 16 1 223 6 6.059999 0.01999831199646 0 0 1 0
lala 4 1.2 1 second 1 1 224 4 4.12 0.01999831199646 -1 1 1 1
lala 18 0.0046875 0 second 14 1 225 5 4.996875 0.01999831199646 0 0 -1 1
lala 13 0.0375 0 second 17 1 226 6 5.992501 0.01999831199646 0 1 -1 1
lala 15 0.009375 1 second 15 1 227 5 5.009375 0.01999831199646 0 1 1 0
lala 15 0.009375 0 first 12 1 228 4 3.999375 0.01999831199646 0 0 -1 0
lala 14 0.01875 0 second 2 1 229 5 4.9875 0.01999831199646 -1 0 -1 1
lala 11 0.075 0 first 16 1 230 6 5.985 0.01999831199646 0 0 -1 0
lala 14 0.01875 1 first 17 1 232 6 6.011251 0.01999831199646 0 1 1 0
lala 15 0.009375 1 first 17 1 233 6 6.001876 0.01999831199646 0 1 1 1
lala 16 0.009375 1 first 12 1 234 4 4.00875 0.01999831199646 0 0 1 1
lala 15 0.009375 0 first 2 1 235 5 4.996875 0.01999831199646 -1 0 -1 0
lala 14 0.01875 0 first 10 1 236 6 5.984999 0.01999831199646 1 0 -1 1
lala 14 0.01875 0 first 4 1 237 6 5.984999 0.01999831199646 -1 0 -1 1
lala 13 0.0375 0 first 11 1 238 6 5.992501 0.01999831199646 1 1 -1 1
lala 5 0.6 0 first 1 1 239 4 3.52 0.01999831199646 -1 1 -1 1
lala 15 0.009375 0 second 8 1 240 5 4.996875 0.01999831199646 1 0 -1 1
lala 17 0.0046875 1 first 12 1 241 4 4.004063 0.01999831199646 0 0 1 1
lala 13 0.01875 1 second 0 1 242 4 4.00875 0.01999831199646 -1 0 1 1
lala 11 0.0375 0 first 13 1 243 4 3.97 0.01999831199646 0 1 -1 0
lala 14 0.01875 1 first 11 1 244 6 6.011251 0.01999831199646 1 1 1 0
lala 19 0.00234375 0 first 14 1 245 5 4.999219 0.01999831199646 0 0 -1 0
lala 18 0.0046875 0 second 12 1 247 4 3.999375 0.01999831199646 0 0 -1 0
lala 15 0.009375 0 first 10 1 248 6 5.994374 0.01999831199646 1 0 -1 1
lala 10 0.0375 1 second 7 1 249 4 4.0075 0.01999831199646 1 1 1 0
lala 6 0.3 0 second 1 1 250 4 3.82 0.01999831199646 -1 1 -1 1
lala 16 0.009375 1 second 2 1 251 5 5.00625 0.01999831199646 -1 0 1 1
lala 12 0.01875 0 second 13 1 252 4 3.98875 0.01999831199646 0 1 -1 0
lala 16 0.009375 0 first 17 1 253 6 5.992501 0.01999831199646 0 1 -1 1
lala 13 0.0375 0 second 9 1 254 5 5 0.01999831199646 1 1 -1 0
lala 12 0.0375 1 first 16 1 255 6 6.0225 0.01999831199646 0 0 1 1
lala 13 0.01875 1 second 16 1 256 6 6.003749 0.01999831199646 0 0 1 0
lala 15 0.009375 1 second 11 1 257 6 6.001876 0.01999831199646 1 1 1 0
lala 17 0.0046875 1 first 2 1 258 5 5.001563 0.01999831199646 -1 0 1 0
lala 15 0.009375 0 second 4 1 259 6 5.994374 0.01999831199646 -1 0 -1 1
lala 18 0.0046875 0 first 2 1 260 5 4.996875 0.01999831199646 -1 0 -1 1
lala 20 0.00234375 1 second 14 1 261 5 5.001563 0.01999831199646 0 0 1 1
lala 13 0.01875 1 first 13 1 262 4 4.0075 0.01999831199646 0 1 1 0
lala 16 0.009375 1 second 4 1 263 6 6.003749 0.01999831199646 -1 0 1 0
lala 16 0.009375 1 first 8 1 264 5 5.00625 0.01999831199646 1 0 1 0
lala 16 0.009375 1 second 10 1 265 6 6.003749 0.01999831199646 1 0 1 0
lala 17 0.0046875 0 second 4 1 266 6 5.999062 0.01999831199646 -1 0 -1 0
lala 17 0.0046875 0 first 17 1 267 6 5.997188 0.01999831199646 0 1 -1 1
lala 21 0.001171875 1 first 14 1 268 5 5.000391 0.01999831199646 0 0 1 0
lala 14 0.009375 0 second 13 1 272 4 3.998125 0.01999831199646 0 1 -1 0
lala 12 0.0375 1 second 3 1 273 5 5.037499 0.01999831199646 -1 1 1 0
lala 14 0.01875 1 second 9 1 274 5 5.01875 0.01999831199646 1 1 1 0
lala 11 0.0375 0 second 7 1 275 4 3.97 0.01999831199646 1 1 -1 0
lala 18 0.0046875 1 first 17 1 276 6 6.001875 0.01999831199646 0 1 1 1
lala 15 0.009375 1 second 9 1 277 5 5.009375 0.01999831199646 1 1 1 1
lala 14 0.01875 0 first 16 1 279 6 5.984999 0.01999831199646 0 0 -1 1
lala 16 0.009375 0 first 15 1 280 5 5 0.01999831199646 0 1 -1 1
lala 15 0.009375 0 first 16 1 281 6 5.994374 0.01999831199646 0 0 -1 1
lala 16 0.009375 1 first 16 1 282 6 6.003749 0.01999831199646 0 0 1 1
lala 13 0.0375 0 first 5 1 283 6 5.992501 0.01999831199646 -1 1 -1 0
lala 18 0.00234375 1 second 4 1 284 6 6.001406 0.01999831199646 -1 0 1 1
lala 17 0.0046875 1 first 15 1 285 5 5.004687 0.01999831199646 0 1 1 0
lala 13 0.0375 0 first 3 1 286 5 5 0.01999831199646 -1 1 -1 0
lala 19 0.00234375 1 second 12 1 287 4 4.001719 0.01999831199646 0 0 1 0
lala 14 0.01875 1 first 5 1 288 6 6.011251 0.01999831199646 -1 1 1 0
lala 19 0.001171875 1 first 4 1 289 6 6.000234 0.01999831199646 -1 0 1 0
lala 12 0.01875 0 second 7 1 290 4 3.98875 0.01999831199646 1 1 -1 1
lala 14 0.01875 0 first 0 1 291 4 3.99 0.01999831199646 -1 0 -1 0
lala 14 0.01875 1 first 3 1 292 5 5.01875 0.01999831199646 -1 1 1 0
lala 15 0.009375 0 first 0 1 293 4 3.999375 0.01999831199646 -1 0 -1 0
lala 20 0.001171875 1 second 12 1 294 4 4.000547 0.01999831199646 0 0 1 1
lala 19 0.00234375 0 first 17 1 295 6 5.999532 0.01999831199646 0 1 -1 1
lala 15 0.0046875 1 first 13 1 297 4 4.002812 0.01999831199646 0 1 1 0
lala 15 0.009375 1 second 5 1 298 6 6.001876 0.01999831199646 -1 1 1 1
lala 17 0.0046875 0 first 16 1 299 6 5.999062 0.01999831199646 0 0 -1 1
lala 16 0.009375 0 second 5 1 300 6 5.992501 0.01999831199646 -1 1 -1 0
lala 19 0.00234375 0 first 2 1 301 5 4.999219 0.01999831199646 -1 0 -1 1
lala 16 0.009375 1 first 0 1 302 4 4.00875 0.01999831199646 -1 0 1 0
lala 15 0.009375 1 first 3 1 303 5 5.009375 0.01999831199646 -1 1 1 1
lala 16 0.009375 0 first 9 1 304 5 5 0.01999831199646 1 1 -1 1
lala 16 0.009375 0 second 3 1 305 5 5 0.01999831199646 -1 1 -1 0
lala 21 0.001171875 0 first 12 1 306 4 3.999375 0.01999831199646 0 0 -1 1
lala 18 0.00234375 1 second 16 1 307 6 6.001406 0.01999831199646 0 0 1 1
lala 19 0.001171875 1 second 16 1 308 6 6.000234 0.01999831199646 0 0 1 0
lala 7 0.3 1 first 1 1 309 4 4.12 0.01999831199646 -1 1 1 1
lala 13 0.01875 1 first 7 1 310 4 4.0075 0.01999831199646 1 1 1 0
lala 20 0.00234375 1 second 2 1 311 5 5.001563 0.01999831199646 -1 0 1 0
lala 20 0.001171875 0 first 4 1 312 6 5.999062 0.01999831199646 -1 0 -1 0
lala 20 0.001171875 1 second 17 1 313 6 6.000704 0.01999831199646 0 1 1 1
lala 14 0.009375 0 first 7 1 314 4 3.998125 0.01999831199646 1 1 -1 1
lala 17 0.0046875 1 first 9 1 315 5 5.004687 0.01999831199646 1 1 1 0
lala 18 0.00234375 1 first 9 1 316 5 5.002343 0.01999831199646 1 1 1 0
lala 18 0.00234375 1 second 15 1 318 5 5.002343 0.01999831199646 0 1 1 1
lala 21 0.0005859375 1 second 17 1 320 6 6.000118 0.01999831199646 0 1 1 0
lala 15 0.0046875 1 first 7 1 321 4 4.002812 0.01999831199646 1 1 1 0
lala 21 0.001171875 1 second 2 1 322 5 5.000391 0.01999831199646 -1 0 1 1
lala 16 0.00234375 1 second 7 1 323 4 4.000468 0.01999831199646 1 1 1 1
lala 8 0.15 0 second 1 1 324 4 3.97 0.01999831199646 -1 1 -1 1
lala 21 0.0005859375 0 first 4 1 325 6 5.999648 0.01999831199646 -1 0 -1 0
lala 16 0.00234375 1 second 13 1 330 4 4.000468 0.01999831199646 0 1 1 1
lala 17 0.00234375 0 second 7 1 332 4 3.998125 0.01999831199646 1 1 -1 0
lala 17 0.0046875 1 first 3 1 333 5 5.004687 0.01999831199646 -1 1 1 0
lala 9 0.075 1 second 1 1 334 4 4.045 0.01999831199646 -1 1 1 0
lala 17 0.0046875 1 second 8 1 335 5 5.001563 0.01999831199646 1 0 1 1
lala 18 0.0046875 0 first 8 1 336 5 4.996875 0.01999831199646 1 0 -1 0
lala 17 0.0046875 1 first 0 1 337 4 4.004063 0.01999831199646 -1 0 1 0
lala 19 0.00234375 0 first 9 1 340 5 5 0.01999831199646 1 1 -1 0
lala 16 0.009375 0 second 11 1 341 6 5.992501 0.01999831199646 1 1 -1 0
lala 17 0.0046875 0 second 5 1 342 6 5.997188 0.01999831199646 -1 1 -1 1
lala 19 0.00234375 0 first 15 1 343 5 5 0.01999831199646 0 1 -1 1
lala 20 0.001171875 1 first 15 1 344 5 5.001172 0.01999831199646 0 1 1 0
lala 18 0.0046875 1 second 5 1 348 6 6.001875 0.01999831199646 -1 1 1 1
lala 21 0.0005859375 1 first 15 1 350 5 5.000586 0.01999831199646 0 1 1 0
lala 18 0.001171875 0 second 7 1 351 4 3.999296 0.01999831199646 1 1 -1 0
lala 18 0.0046875 0 first 0 1 353 4 3.999375 0.01999831199646 -1 0 -1 0
lala 10 0.0375 1 second 1 1 354 4 4.0075 0.01999831199646 -1 1 1 0
lala 17 0.0046875 0 second 11 1 356 6 5.997188 0.01999831199646 1 1 -1 0
lala 18 0.0046875 1 first 11 1 358 6 6.001875 0.01999831199646 1 1 1 0
lala 19 0.00234375 1 second 0 1 359 4 4.001719 0.01999831199646 -1 0 1 0
lala 20 0.001171875 0 first 16 1 361 6 5.999062 0.01999831199646 0 0 -1 1
lala 18 0.00234375 1 first 3 1 362 5 5.002343 0.01999831199646 -1 1 1 1
lala 19 0.001171875 1 second 7 1 363 4 4.000468 0.01999831199646 1 1 1 0
lala 19 0.00234375 0 first 5 1 366 6 5.999532 0.01999831199646 -1 1 -1 1
lala 17 0.0046875 0 first 10 1 368 6 5.999062 0.01999831199646 1 0 -1 1
lala 18 0.00234375 1 first 10 1 370 6 6.001406 0.01999831199646 1 0 1 1
lala 20 0.001171875 1 first 5 1 372 6 6.000704 0.01999831199646 -1 1 1 0
lala 19 0.001171875 1 second 10 1 374 6 6.000234 0.01999831199646 1 0 1 0
lala 17 0.00234375 0 first 13 1 375 4 3.998125 0.01999831199646 0 1 -1 1
lala 19 0.00234375 0 second 11 1 377 6 5.999532 0.01999831199646 1 1 -1 1
lala 20 0.001171875 1 first 0 1 379 4 4.000547 0.01999831199646 -1 0 1 1
lala 21 0.0005859375 0 first 16 1 380 6 5.999648 0.01999831199646 0 0 -1 1
lala 18 0.001171875 0 first 13 1 383 4 3.999296 0.01999831199646 0 1 -1 1
lala 21 0.0005859375 1 second 5 1 384 6 6.000118 0.01999831199646 -1 1 1 0
lala 20 0.001171875 1 first 11 1 386 6 6.000704 0.01999831199646 1 1 1 0
lala 21 0.0005859375 1 first 11 1 387 6 6.000118 0.01999831199646 1 1 1 1
lala 11 0.0375 0 second 1 1 388 4 3.97 0.01999831199646 -1 1 -1 1
lala 19 0.00234375 0 first 3 1 389 5 5 0.01999831199646 -1 1 -1 1
lala 20 0.001171875 1 first 9 1 391 5 5.001172 0.01999831199646 1 1 1 1
lala 20 0.0005859375 0 second 7 1 393 4 3.999882 0.01999831199646 1 1 -1 1
lala 21 0.0002929688 1 second 7 1 394 4 4.000175 0.01999831199646 1 1 1 1
lala 21 0.001171875 0 second 0 1 395 4 3.999375 0.01999831199646 -1 0 -1 1
lala 19 0.00234375 0 first 8 1 398 5 4.999219 0.01999831199646 1 0 -1 1
lala 12 0.01875 0 first 1 1 399 4 3.98875 0.01999831199646 -1 1 -1 1
lala 21 0.0005859375 1 first 9 1 402 5 5.000586 0.01999831199646 1 1 1 1
lala 20 0.00234375 1 first 8 1 404 5 5.001563 0.01999831199646 1 0 1 1
lala 20 0.001171875 1 second 3 1 406 5 5.001172 0.01999831199646 -1 1 1 1
lala 20 0.001171875 0 first 10 1 408 6 5.999062 0.01999831199646 1 0 -1 0
lala 21 0.0005859375 0 first 10 1 411 6 5.999648 0.01999831199646 1 0 -1 1
lala 21 0.001171875 1 first 8 1 413 5 5.000391 0.01999831199646 1 0 1 1
lala 19 0.001171875 1 second 13 1 415 4 4.000468 0.01999831199646 0 1 1 0
lala 21 0.0005859375 1 second 3 1 419 5 5.000586 0.01999831199646 -1 1 1 1
lala 13 0.01875 1 second 1 1 426 4 4.0075 0.01999831199646 -1 1 1 0
lala 20 0.0005859375 0 second 13 1 435 4 3.999882 0.01999831199646 0 1 -1 0
lala 21 0.0002929688 1 first 13 1 448 4 4.000175 0.01999831199646 0 1 1 1
lala 14 0.009375 0 first 1 1 450 4 3.998125 0.01999831199646 -1 1 -1 0
lala 15 0.0046875 1 first 1 1 461 4 4.002812 0.01999831199646 -1 1 1 1
lala 16 0.00234375 1 first 1 1 464 4 4.000468 0.01999831199646 -1 1 1 0
lala 17 0.00234375 0 second 1 1 466 4 3.998125 0.01999831199646 -1 1 -1 0
lala 18 0.001171875 0 first 1 1 468 4 3.999296 0.01999831199646 -1 1 -1 0
lala 19 0.001171875 1 first 1 1 469 4 4.000468 0.01999831199646 -1 1 1 0
lala 20 0.0005859375 0 second 1 1 475 4 3.999882 0.01999831199646 -1 1 -1 0
lala 21 0.0002929688 1 first 1 1 476 4 4.000175 0.01999831199646 -1 1 1 0
