subject PestNr Step_Size_OnTrial Pest_Faster Pest_Interval Condition block trial velH velH_Pest Reaction_Time velH_Subject Start_Above Response_MotionEstimation RightOrLeftxRotations_first0 xRotations_first1 xRotations_first2 xRotations_first3 xRotations_first4 xRotations_first5 yRotations_first0 yRotations_first1 yRotations_first2 yRotations_first3 yRotations_first4 yRotations_first5 xRotations_second0 xRotations_second1 xRotations_second2 xRotations_second3 xRotations_second4 xRotations_second5 yRotations_second0 yRotations_second1 yRotations_second2 yRotations_second3 yRotations_second4 yRotations_second5
lala 1 1.2 0 second 8 1 1 5 3.3 0.499997854232788 1 0 -1 0 0.004450021 0.002324976 0.004383132 0.001871829 0.001419106 1000 0.004450021 0.002324976 0.004383132 0.001871829 0.001419106 1000 -0.001967096 -0.00204859 -0.001878396 -0.001602317 -0.001570337 1000 -0.001967096 -0.00204859 -0.001878396 -0.001602317 -0.001570337 1000
lala 1 1.2 0 first 0 1 2 4 2.64 2.07999658584595 -1 0 -1 1 -0.002292277 -0.002268843 -0.002831357 1000 1000 1000 -0.002292277 -0.002268843 -0.002831357 1000 1000 1000 -0.004448749 -0.004273806 -0.004117931 -0.004381586 -0.004310491 1000 -0.004448749 -0.004273806 -0.004117931 -0.004381586 -0.004310491 1000
lala 1 1.2 0 second 6 1 3 4 2.64 1.73999691009521 1 0 -1 1 -0.002802774 -0.002826016 -0.002719895 -0.002782772 -0.002849494 1000 -0.002802774 -0.002826016 -0.002719895 -0.002782772 -0.002849494 1000 -0.003640965 -0.00351811 -0.003439177 -0.003335738 -0.00350923 1000 -0.003640965 -0.00351811 -0.003439177 -0.003335738 -0.00350923 1000
lala 1 1.2 1 first 13 1 4 4 5.32 0.119998216629028 0 1 1 1 -0.002293906 -0.002335482 -0.002736492 1000 1000 1000 -0.002293906 -0.002335482 -0.002736492 1000 1000 1000 -0.002408959 -0.002445123 -0.002210106 -0.002048974 -0.002272808 1000 -0.002408959 -0.002445123 -0.002210106 -0.002048974 -0.002272808 1000
lala 1 1.2 1 second 10 1 5 6 3.96 1.17999720573425 1 0 1 1 -0.002155755 -0.002401932 -0.002558808 -0.002982145 -0.002890651 1000 -0.002155755 -0.002401932 -0.002558808 -0.002982145 -0.002890651 1000 -0.002853275 -0.002845042 -0.002801157 -0.003166222 -0.003414241 1000 -0.002853275 -0.002845042 -0.002801157 -0.003166222 -0.003414241 1000
lala 2 1.2 0 second 10 1 6 6 2.76 1.21999716758728 1 0 -1 1 -0.00207109 -0.00238236 -0.002438395 -0.002362013 -0.002558938 1000 -0.00207109 -0.00238236 -0.002438395 -0.002362013 -0.002558938 1000 -0.003037429 -0.002679187 -0.002391817 -0.002650132 -0.002785455 1000 -0.003037429 -0.002679187 -0.002391817 -0.002650132 -0.002785455 1000
lala 1 1.2 1 first 17 1 7 6 7.98 0.61999773979187 0 1 1 0 -0.002900016 -0.002743693 -0.002840354 1000 1000 1000 -0.002900016 -0.002743693 -0.002840354 1000 1000 1000 -0.002793051 -0.002808553 -0.002586096 -0.002758444 -0.003053124 1000 -0.002793051 -0.002808553 -0.002586096 -0.002758444 -0.003053124 1000
lala 3 1.2 0 first 10 1 8 6 3.96 0.299998044967651 1 0 -1 1 -0.002338863 -0.002227328 -0.00207193 1000 1000 1000 -0.002338863 -0.002227328 -0.00207193 1000 1000 1000 0.004577691 0.004390829 0.004176783 0.002183195 -0.0003577117 1000 0.004577691 0.004390829 0.004176783 0.002183195 -0.0003577117 1000
lala 2 1.2 1 first 8 1 9 5 4.5 0.61999773979187 1 0 1 0 0.003827581 0.004793414 0.006142505 1000 1000 1000 0.003827581 0.004793414 0.006142505 1000 1000 1000 0.0007783673 0.001494813 0.001849422 0.002158197 0.002236625 1000 0.0007783673 0.001494813 0.001849422 0.002158197 0.002236625 1000
lala 1 1.2 1 first 4 1 10 6 3.96 2.55999612808228 -1 0 1 0 0.003686336 0.003014801 0.002824547 1000 1000 1000 0.003686336 0.003014801 0.002824547 1000 1000 1000 0.002952368 0.003037394 0.003124738 0.003124221 0.003170898 1000 0.002952368 0.003037394 0.003124738 0.003124221 0.003170898 1000
lala 2 1.2 0 first 6 1 11 4 3.84 1.41999697685242 1 0 -1 0 0.0005034008 0.001062089 0.00078311 1000 1000 1000 0.0005034008 0.001062089 0.00078311 1000 1000 1000 0.0008656623 0.00112247 0.001648909 0.00167877 0.001354283 1000 0.0008656623 0.00112247 0.001648909 0.00167877 0.001354283 1000
lala 1 1.2 1 first 12 1 12 4 2.64 0.939997434616089 0 0 1 1 0.001213168 0.001242778 0.00143478 1000 1000 1000 0.001213168 0.001242778 0.00143478 1000 1000 1000 0.001915751 0.002055245 0.001759369 0.00146467 0.001491362 1000 0.001915751 0.002055245 0.001759369 0.00146467 0.001491362 1000
lala 3 1.2 1 second 6 1 13 4 5.04 0.459997892379761 1 0 1 1 0.002526456 0.002471779 0.002859056 0.002599186 0.002080794 1000 0.002526456 0.002471779 0.002859056 0.002599186 0.002080794 1000 0.002296767 0.002220058 0.002349432 0.002223005 0.002055971 1000 0.002296767 0.002220058 0.002349432 0.002223005 0.002055971 1000
lala 2 1.2 1 second 17 1 14 6 6.780001 0.459997892379761 0 1 1 0 0.004319532 0.004165911 0.003923667 0.004180843 0.0041748 1000 0.004319532 0.004165911 0.003923667 0.004180843 0.0041748 1000 0.00333173 0.003234792 0.002953791 0.003138543 0.003262098 1000 0.00333173 0.003234792 0.002953791 0.003138543 0.003262098 1000
lala 3 1.2 0 second 8 1 15 5 3.3 0.599997758865356 1 0 -1 0 0.003125612 0.003150482 0.00309955 0.00302367 0.002982378 1000 0.003125612 0.003150482 0.00309955 0.00302367 0.002982378 1000 0.003399809 0.003245134 0.003234796 0.003140571 0.003413026 1000 0.003399809 0.003245134 0.003234796 0.003140571 0.003413026 1000
lala 1 1.2 1 first 2 1 16 5 3.3 1.77999687194824 -1 0 1 0 0.004480194 0.004488751 0.00437367 1000 1000 1000 0.004480194 0.004488751 0.00437367 1000 1000 1000 0.003593719 0.003355987 0.003182762 0.002956829 0.003001655 1000 0.003593719 0.003355987 0.003182762 0.002956829 0.003001655 1000
lala 4 1.2 1 first 10 1 17 6 5.16 0.499997854232788 1 0 1 1 0.001827627 0.002357013 0.002478536 1000 1000 1000 0.001827627 0.002357013 0.002478536 1000 1000 1000 0.002110909 0.001761842 0.001606337 0.001516126 0.001384476 1000 0.002110909 0.001761842 0.001606337 0.001516126 0.001384476 1000
lala 5 1.2 0 first 10 1 18 6 3.96 0.319998025894165 1 0 -1 1 0.001865984 0.002013931 0.001909961 1000 1000 1000 0.001865984 0.002013931 0.001909961 1000 1000 1000 0.001162121 0.001075928 0.001240924 0.001150358 0.001047212 1000 0.001162121 0.001075928 0.001240924 0.001150358 0.001047212 1000
lala 2 1.2 1 second 13 1 19 4 4.12 0.539997816085815 0 1 1 0 0.001133056 0.001247595 0.001015604 0.0006238805 7.290969E-05 1000 0.001133056 0.001247595 0.001015604 0.0006238805 7.290969E-05 1000 0.001027641 0.0009912045 0.0006762471 0.0006538476 0.0005498151 1000 0.001027641 0.0009912045 0.0006762471 0.0006538476 0.0005498151 1000
lala 1 1.2 1 second 9 1 20 5 6.65 1.33999705314636 1 1 1 1 -2.268732E-05 -0.0002148178 -0.0001671512 -0.0002453351 -0.00070416 1000 -2.268732E-05 -0.0002148178 -0.0001671512 -0.0002453351 -0.00070416 1000 0.001358034 0.001329961 0.001522193 0.002404329 0.00371736 1000 0.001358034 0.001329961 0.001522193 0.002404329 0.00371736 1000
lala 2 1.2 0 second 12 1 21 4 1.44 0.519997835159302 0 0 -1 1 0.009285538 0.009335646 0.009073649 0.008364703 0.008388348 1000 0.009285538 0.009335646 0.009073649 0.008364703 0.008388348 1000 0.007322802 0.007705068 0.008276729 0.008435128 0.008085608 1000 0.007322802 0.007705068 0.008276729 0.008435128 0.008085608 1000
lala 4 1.2 0 first 6 1 22 4 3.84 0.599997758865356 1 0 -1 1 0.007518479 0.007691214 0.007883968 1000 1000 1000 0.007518479 0.007691214 0.007883968 1000 1000 1000 0.006961559 0.007286213 0.007505174 0.007310892 0.007614791 1000 0.006961559 0.007286213 0.007505174 0.007310892 0.007614791 1000
lala 1 1.2 1 first 7 1 23 4 5.32 0.599997758865356 1 1 1 1 0.006281328 0.006747759 0.00703101 1000 1000 1000 0.006281328 0.006747759 0.00703101 1000 1000 1000 0.006352539 0.006763225 0.006843528 0.007113475 0.006479842 1000 0.006352539 0.006763225 0.006843528 0.007113475 0.006479842 1000
lala 3 1.2 0 second 13 1 24 4 2.92 0.39999794960022 0 1 -1 1 0.005750216 0.005370858 0.005267111 0.005382331 0.005894606 1000 0.005750216 0.005370858 0.005267111 0.005382331 0.005894606 1000 0.005503356 0.005706535 0.005914348 0.005772062 0.005568558 1000 0.005503356 0.005706535 0.005914348 0.005772062 0.005568558 1000
lala 1 1.2 1 first 3 1 25 5 6.65 1.49999690055847 -1 1 1 0 0.005341387 0.005547474 0.005385679 1000 1000 1000 0.005341387 0.005547474 0.005385679 1000 1000 1000 0.004465776 0.004317575 0.004251228 0.004201731 0.004531071 1000 0.004465776 0.004317575 0.004251228 0.004201731 0.004531071 1000
lala 1 1.2 1 second 15 1 26 5 6.65 0.579997777938843 0 1 1 0 0.003535181 0.003642103 0.003556592 0.003632579 0.004115985 1000 0.003535181 0.003642103 0.003556592 0.003632579 0.004115985 1000 0.003800291 0.004041162 0.003590465 0.003451475 0.003540053 1000 0.003800291 0.004041162 0.003590465 0.003451475 0.003540053 1000
lala 1 1.2 0 first 1 1 27 4 5.32 0.639997720718384 -1 1 -1 0 0.002593861 0.002598023 0.002510322 1000 1000 1000 0.002593861 0.002598023 0.002510322 1000 1000 1000 0.001865565 0.001933805 0.002044375 0.002167505 0.002477085 1000 0.001865565 0.001933805 0.002044375 0.002167505 0.002477085 1000
lala 1 1.2 0 second 14 1 28 5 3.3 0.459997892379761 0 0 -1 1 0.00173439 0.001434717 0.001761238 0.00162505 0.001285749 1000 0.00173439 0.001434717 0.001761238 0.00162505 0.001285749 1000 0.001177515 0.00126768 0.001624361 0.001726109 0.001725382 1000 0.001177515 0.00126768 0.001624361 0.001726109 0.001725382 1000
lala 2 1.2 1 second 1 1 29 4 6.52 0.499997854232788 -1 1 1 1 0.001086145 0.001106121 0.001527915 0.001571141 0.001572135 1000 0.001086145 0.001106121 0.001527915 0.001571141 0.001572135 1000 0.001263987 0.0008427041 0.001067147 0.00164009 0.002134277 1000 0.001263987 0.0008427041 0.001067147 0.00164009 0.002134277 1000
lala 2 1.2 0 second 7 1 30 4 4.12 0.39999794960022 1 1 -1 1 0.002907627 0.003111413 0.002704797 0.00200964 0.001296653 1000 0.002907627 0.003111413 0.002704797 0.00200964 0.001296653 1000 0.001473988 0.001196542 0.001283722 0.001759187 0.001520569 1000 0.001473988 0.001196542 0.001283722 0.001759187 0.001520569 1000
lala 4 1.2 0 second 8 1 31 5 4.5 0.739997625350952 1 0 -1 0 0.001546564 0.001713223 0.001471979 0.001040089 0.0008917642 1000 0.001546564 0.001713223 0.001471979 0.001040089 0.0008917642 1000 0.0006773908 0.000740481 0.00105069 0.001192369 0.001316377 1000 0.0006773908 0.000740481 0.00105069 0.001192369 0.001316377 1000
lala 3 1.2 1 first 12 1 32 4 2.64 0.479997873306274 0 0 1 0 1.190436E-05 -0.0003373332 -0.0003573618 1000 1000 1000 1.190436E-05 -0.0003373332 -0.0003573618 1000 1000 1000 -0.0003677608 -0.0003477886 -0.0006830736 -0.001087799 -0.001209655 1000 -0.0003677608 -0.0003477886 -0.0006830736 -0.001087799 -0.001209655 1000
lala 1 1.2 1 second 11 1 33 6 7.98 0.519997835159302 1 1 1 0 -0.002625648 -0.00362889 -0.003643288 -0.003592239 -0.0029387 1000 -0.002625648 -0.00362889 -0.003643288 -0.003592239 -0.0029387 1000 -0.002974154 -0.003471918 -0.003784375 -0.003869664 -0.003513367 1000 -0.002974154 -0.003471918 -0.003784375 -0.003869664 -0.003513367 1000
lala 1 1.2 0 second 16 1 34 6 3.96 0.439997911453247 0 0 -1 0 -0.0018609 -0.00174177 -0.001725454 -0.001498449 -0.001616141 1000 -0.0018609 -0.00174177 -0.001725454 -0.001498449 -0.001616141 1000 -0.002547905 -0.002475851 -0.00231078 -0.002400239 -0.002597762 1000 -0.002547905 -0.002475851 -0.00231078 -0.002400239 -0.002597762 1000
lala 4 1.2 0 first 12 1 35 4 1.44 0.599997758865356 0 0 -1 1 -0.002075396 -0.001895381 -0.002300651 1000 1000 1000 -0.002075396 -0.001895381 -0.002300651 1000 1000 1000 -0.002704962 -0.003020133 -0.003267308 -0.003301728 -0.003285186 1000 -0.002704962 -0.003020133 -0.003267308 -0.003301728 -0.003285186 1000
lala 1 1.2 1 first 5 1 36 6 7.98 0.319998025894165 -1 1 1 1 -0.004087254 -0.003861786 -0.004132102 1000 1000 1000 -0.004087254 -0.003861786 -0.004132102 1000 1000 1000 -0.004421425 -0.004366751 -0.004194207 -0.003802427 -0.003821953 1000 -0.004421425 -0.004366751 -0.004194207 -0.003802427 -0.003821953 1000
lala 2 1.2 1 second 3 1 37 5 5.45 0.799997568130493 -1 1 1 1 -0.004131419 -0.003557077 -0.003642072 -0.004495451 -0.005021345 1000 -0.004131419 -0.003557077 -0.003642072 -0.004495451 -0.005021345 1000 -0.004857318 -0.004603101 -0.004597554 -0.004626913 -0.004614966 1000 -0.004857318 -0.004603101 -0.004597554 -0.004626913 -0.004614966 1000
lala 2 1.2 1 first 16 1 38 6 5.16 0.479997873306274 0 0 1 0 -0.005405619 -0.004942004 -0.00442902 1000 1000 1000 -0.005405619 -0.004942004 -0.00442902 1000 1000 1000 -0.004930113 -0.005058417 -0.005556409 -0.00579122 -0.005844358 1000 -0.004930113 -0.005058417 -0.005556409 -0.00579122 -0.005844358 1000
lala 2 1.2 1 first 11 1 39 6 6.780001 0.279998064041138 1 1 1 1 -0.005343277 -0.005409382 -0.005669464 1000 1000 1000 -0.005343277 -0.005409382 -0.005669464 1000 1000 1000 -0.00612526 -0.006331504 -0.006426651 -0.006094189 -0.005943418 1000 -0.00612526 -0.006331504 -0.006426651 -0.006094189 -0.005943418 1000
lala 5 1.2 0 second 6 1 40 4 5.04 0.579997777938843 1 0 -1 0 -0.006698185 -0.006677986 -0.006275518 -0.006111646 -0.006016144 1000 -0.006698185 -0.006677986 -0.006275518 -0.006111646 -0.006016144 1000 -0.006625953 -0.006850228 -0.006884057 -0.006839608 -0.00668942 1000 -0.006625953 -0.006850228 -0.006884057 -0.006839608 -0.00668942 1000
lala 3 1.2 1 second 11 1 41 6 5.580001 0.339998006820679 1 1 1 1 -0.01241856 -0.01659045 -0.01744558 -0.01874984 -0.01906558 1000 -0.01241856 -0.01659045 -0.01744558 -0.01874984 -0.01906558 1000 -0.008332923 -0.007210667 -0.005865205 -0.004929876 -0.003914706 1000 -0.008332923 -0.007210667 -0.005865205 -0.004929876 -0.003914706 1000
lala 6 1.2 1 first 6 1 42 4 6.24 0.219998121261597 1 0 1 1 0.00336425 0.002305818 0.002241663 1000 1000 1000 0.00336425 0.002305818 0.002241663 1000 1000 1000 0.003873534 0.004326106 0.004706927 0.004318504 0.003862797 1000 0.003873534 0.004326106 0.004706927 0.004318504 0.003862797 1000
lala 7 1.2 1 second 6 1 43 4 5.04 0.339998006820679 1 0 1 1 0.003639471 0.003142603 0.002636522 0.002315924 0.002318595 1000 0.003639471 0.003142603 0.002636522 0.002315924 0.002318595 1000 0.001107855 0.00134902 0.001769971 0.001536628 0.001138157 1000 0.001107855 0.00134902 0.001769971 0.001536628 0.001138157 1000
lala 2 1.2 0 first 4 1 44 6 2.76 0.279998064041138 -1 0 -1 0 0.002148057 0.001890683 0.002141038 1000 1000 1000 0.002148057 0.001890683 0.002141038 1000 1000 1000 0.002082085 0.002161743 0.00229749 0.00202916 0.001748078 1000 0.002082085 0.002161743 0.00229749 0.00202916 0.001748078 1000
lala 2 1.2 0 first 2 1 45 5 2.1 0.159998178482056 -1 0 -1 0 0.002663262 0.003210748 0.003849012 1000 1000 1000 0.002663262 0.003210748 0.003849012 1000 1000 1000 0.003058285 0.002803897 0.002915474 0.002774669 0.002829081 1000 0.003058285 0.002803897 0.002915474 0.002774669 0.002829081 1000
lala 3 1.2 0 second 4 1 46 6 3.96 0.39999794960022 -1 0 -1 1 0.003040921 0.002918821 0.002670651 0.003232039 0.003155303 1000 0.003040921 0.002918821 0.002670651 0.003232039 0.003155303 1000 0.002595413 0.002607254 0.00240309 0.002322246 0.002204242 1000 0.002595413 0.002607254 0.00240309 0.002322246 0.002204242 1000
lala 3 1.2 1 second 17 1 47 6 5.580001 0.639997720718384 0 1 1 0 0.004022194 0.003845159 0.003543108 0.003422311 0.003537313 1000 0.004022194 0.003845159 0.003543108 0.003422311 0.003537313 1000 0.003579926 0.00421213 0.004122208 0.00394949 0.004095947 1000 0.003579926 0.00421213 0.004122208 0.00394949 0.004095947 1000
lala 4 1.2 0 first 11 1 48 6 4.380001 0.299998044967651 1 1 -1 0 0.003774106 0.004074507 0.003404577 1000 1000 1000 0.003774106 0.004074507 0.003404577 1000 1000 1000 0.005983194 0.005813238 0.005777945 0.005473584 0.005414978 1000 0.005983194 0.005813238 0.005777945 0.005473584 0.005414978 1000
lala 2 1.2 1 first 5 1 49 6 6.780001 0.39999794960022 -1 1 1 0 0.004935129 0.005299863 0.005244388 1000 1000 1000 0.004935129 0.005299863 0.005244388 1000 1000 1000 0.005516883 0.00535905 0.005065975 0.005003874 0.004887699 1000 0.005516883 0.00535905 0.005065975 0.005003874 0.004887699 1000
lala 4 1.2 1 first 17 1 50 6 4.380001 0.839997529983521 0 1 1 1 0.0008782283 0.001930832 0.004339115 0.00831679 0.01031651 0.009080867 0.0008782283 0.001930832 0.004339115 0.00831679 0.01031651 0.009080867 0.005891267 0.005844474 0.005923444 0.005947696 0.006374851 1000 0.005891267 0.005844474 0.005923444 0.005947696 0.006374851 1000
lala 8 1.2 0 first 6 1 51 4 3.84 0.259998083114624 1 0 -1 1 0.005852071 0.006438904 0.005863826 1000 1000 1000 0.005852071 0.006438904 0.005863826 1000 1000 1000 0.006137473 0.00606011 0.005658322 0.005833625 0.006041452 1000 0.006137473 0.00606011 0.005658322 0.005833625 0.006041452 1000
lala 3 1.2 0 second 2 1 52 5 3.3 0.61999773979187 -1 0 -1 1 0.02767398 0.02776524 0.02756804 0.02520874 0.01554391 1000 0.02767398 0.02776524 0.02756804 0.02520874 0.01554391 1000 0.01466697 0.01465578 0.01513255 0.01488867 0.01482368 1000 0.01466697 0.01465578 0.01513255 0.01488867 0.01482368 1000
lala 9 1.2 1 first 6 1 53 4 5.04 0.799997568130493 1 0 1 0 0.01281131 0.01265131 0.01196911 1000 1000 1000 0.01281131 0.01265131 0.01196911 1000 1000 1000 0.01275729 0.01291638 0.01306009 0.01330357 0.01311879 1000 0.01275729 0.01291638 0.01306009 0.01330357 0.01311879 1000
lala 10 0.6 1 second 6 1 54 4 4.44 0.559997797012329 1 0 1 0 0.01168214 0.01149667 0.01124815 0.01092754 0.01144397 1000 0.01168214 0.01149667 0.01124815 0.01092754 0.01144397 1000 0.01130346 0.01108386 0.01093099 0.01081133 0.01106545 1000 0.01130346 0.01108386 0.01093099 0.01081133 0.01106545 1000
lala 5 1.2 0 second 12 1 55 4 2.64 0.359997987747192 0 0 -1 0 0.01024416 0.0103497 0.01039977 0.01072066 0.01079232 1000 0.01024416 0.0103497 0.01039977 0.01072066 0.01079232 1000 0.0104201 0.01022689 0.01012115 0.01016516 0.01048638 1000 0.0104201 0.01022689 0.01012115 0.01016516 0.01048638 1000
lala 2 1.2 1 second 15 1 56 5 5.45 0.339998006820679 0 1 1 0 0.009283926 0.009265866 0.009687456 0.009945924 0.01017765 1000 0.009283926 0.009265866 0.009687456 0.009945924 0.01017765 1000 0.009770473 0.009338756 0.009392975 0.009353368 0.00958729 1000 0.009770473 0.009338756 0.009392975 0.009353368 0.00958729 1000
lala 3 1.2 1 second 5 1 57 6 5.580001 0.39999794960022 -1 1 1 1 0.006282051 0.006554631 0.006789131 0.007468318 0.008046807 1000 0.006282051 0.006554631 0.006789131 0.007468318 0.008046807 1000 0.008136847 0.007920604 0.007587601 0.007639265 0.007758242 1000 0.008136847 0.007920604 0.007587601 0.007639265 0.007758242 1000
lala 5 1.2 1 second 11 1 58 6 5.580001 0.379997968673706 1 1 1 0 0.006065647 0.006345105 0.0068064 0.007319383 0.007225658 1000 0.006065647 0.006345105 0.0068064 0.007319383 0.007225658 1000 0.007761944 0.007983949 0.007582948 0.00736055 0.007298408 1000 0.007761944 0.007983949 0.007582948 0.00736055 0.007298408 1000
lala 2 1.2 0 second 0 1 59 4 3.84 0.359997987747192 -1 0 -1 1 0.006709203 0.006627992 0.006366835 0.006026933 0.005970834 1000 0.006709203 0.006627992 0.006366835 0.006026933 0.005970834 1000 0.00564544 0.006117209 0.005902639 0.005751681 0.005908672 1000 0.00564544 0.006117209 0.005902639 0.005751681 0.005908672 1000
lala 3 1.2 0 second 15 1 60 5 4.25 0.579997777938843 0 1 -1 1 0.004398125 0.004784044 0.004778962 0.004645378 0.004158643 1000 0.004398125 0.004784044 0.004778962 0.004645378 0.004158643 1000 0.005083028 0.005118661 0.005500637 0.005400865 0.005276636 1000 0.005083028 0.005118661 0.005500637 0.005400865 0.005276636 1000
lala 2 1.2 1 second 9 1 61 5 5.45 0.319998025894165 1 1 1 1 0.0003791495 0.0004208651 0.0002878199 0.0001432783 -0.0005815249 1000 0.0003791495 0.0004208651 0.0002878199 0.0001432783 -0.0005815249 1000 -0.0004304512 -0.0003165356 -3.880592E-05 5.32971E-05 0.0003305296 1000 -0.0004304512 -0.0003165356 -3.880592E-05 5.32971E-05 0.0003305296 1000
lala 3 1.2 0 first 3 1 62 5 4.25 0.23999810218811 -1 1 -1 1 0.0008685371 0.001053685 0.0008382627 1000 1000 1000 0.0008685371 0.001053685 0.0008382627 1000 1000 1000 0.0001773325 0.0003391996 0.0003906304 0.0005861146 0.0006451488 1000 0.0001773325 0.0003391996 0.0003906304 0.0005861146 0.0006451488 1000
lala 11 0.6 0 second 6 1 63 4 3.84 0.379997968673706 1 0 -1 0 0.0006251397 0.000345793 7.829997E-05 4.085352E-05 0.0002975344 1000 0.0006251397 0.000345793 7.829997E-05 4.085352E-05 0.0002975344 1000 -9.766376E-05 0.000285257 8.911589E-05 -0.0003884887 -0.0003815708 1000 -9.766376E-05 0.000285257 8.911589E-05 -0.0003884887 -0.0003815708 1000
lala 4 1.2 1 first 13 1 64 4 4.12 0.479997873306274 0 1 1 1 -0.0004843956 0.00047567 0.0009898371 1000 1000 1000 -0.0004843956 0.00047567 0.0009898371 1000 1000 1000 -8.43774E-05 0.0003301983 0.0001885201 0.0003255947 0.0002928499 1000 -8.43774E-05 0.0003301983 0.0001885201 0.0003255947 0.0002928499 1000
lala 4 1.2 0 first 5 1 65 6 4.380001 0.219998121261597 -1 1 -1 1 -0.0003934195 8.279251E-05 -0.0004094549 1000 1000 1000 -0.0003934195 8.279251E-05 -0.0004094549 1000 1000 1000 0.0004840802 -0.0006117601 -0.001807065 -0.001623661 -0.001573849 1000 0.0004840802 -0.0006117601 -0.001807065 -0.001623661 -0.001573849 1000
lala 3 1.2 1 first 7 1 66 4 5.32 0.279998064041138 1 1 1 0 -0.001036774 -0.0008670604 -0.0005752866 1000 1000 1000 -0.001036774 -0.0008670604 -0.0005752866 1000 1000 1000 -0.001641584 -0.001776018 -0.001853009 -0.001468822 -0.001675008 1000 -0.001641584 -0.001776018 -0.001853009 -0.001468822 -0.001675008 1000
lala 5 1.2 0 first 13 1 67 4 2.92 0.23999810218811 0 1 -1 1 -0.001915945 -0.002186285 -0.002379431 1000 1000 1000 -0.001915945 -0.002186285 -0.002379431 1000 1000 1000 -0.003120733 -0.002636153 -0.002106222 -0.001833161 -0.001959539 1000 -0.003120733 -0.002636153 -0.002106222 -0.001833161 -0.001959539 1000
lala 6 1.2 1 second 10 1 68 6 5.16 0.599997758865356 1 0 1 1 -0.00280431 -0.002519923 -0.002451305 -0.002427323 -0.002795449 1000 -0.00280431 -0.002519923 -0.002451305 -0.002427323 -0.002795449 1000 -0.003266237 -0.003642389 -0.003332259 -0.002692392 -0.002120047 1000 -0.003266237 -0.003642389 -0.003332259 -0.002692392 -0.002120047 1000
lala 4 1.2 1 first 15 1 69 5 5.45 0.599997758865356 0 1 1 0 -0.004111973 -0.003759999 -0.003391384 1000 1000 1000 -0.004111973 -0.003759999 -0.003391384 1000 1000 1000 -0.00334215 -0.002714526 -0.002654239 -0.002734138 -0.00274296 1000 -0.00334215 -0.002714526 -0.002654239 -0.002734138 -0.00274296 1000
lala 3 1.2 0 first 9 1 70 5 4.25 0.279998064041138 1 1 -1 0 -0.002884056 -0.003045723 -0.003037556 1000 1000 1000 -0.002884056 -0.003045723 -0.003037556 1000 1000 1000 -0.002376623 -0.002576738 -0.002301461 -0.002260782 -0.002209221 1000 -0.002376623 -0.002576738 -0.002301461 -0.002260782 -0.002209221 1000
lala 12 0.3 0 first 6 1 71 4 4.14 0.719997644424438 1 0 -1 1 -0.002342892 -0.003060638 -0.00331117 1000 1000 1000 -0.002342892 -0.003060638 -0.00331117 1000 1000 1000 -0.002991915 -0.002714111 -0.002775966 -0.00243394 -0.002570984 1000 -0.002991915 -0.002714111 -0.002775966 -0.00243394 -0.002570984 1000
lala 4 1.2 0 second 7 1 72 4 4.12 0.699997663497925 1 1 -1 1 -0.001998044 -0.001204595 -0.001444498 -0.002219004 -0.002110064 1000 -0.001998044 -0.001204595 -0.001444498 -0.002219004 -0.002110064 1000 -0.002553711 -0.001908672 -0.001802286 -0.002258935 -0.002401812 1000 -0.002553711 -0.001908672 -0.001802286 -0.002258935 -0.002401812 1000
lala 3 1.2 0 second 1 1 73 4 5.320001 0.319998025894165 -1 1 -1 1 -0.001326922 -0.0009777441 -0.0006549318 -0.001385045 -0.002259643 1000 -0.001326922 -0.0009777441 -0.0006549318 -0.001385045 -0.002259643 1000 -0.001927865 -0.002184314 -0.002044671 -0.001303138 -0.001381108 1000 -0.001927865 -0.002184314 -0.002044671 -0.001303138 -0.001381108 1000
lala 4 1.2 0 first 1 1 74 4 6.52 0.339998006820679 -1 1 -1 1 -0.001993469 -0.001877684 -0.001685359 1000 1000 1000 -0.001993469 -0.001877684 -0.001685359 1000 1000 1000 -0.001837513 -0.001760013 -0.001879324 -0.001553825 -0.001743099 1000 -0.001837513 -0.001760013 -0.001879324 -0.001553825 -0.001743099 1000
lala 5 1.2 0 second 17 1 75 6 3.180001 0.339998006820679 0 1 -1 1 -0.002690955 -0.002872672 -0.002784356 -0.003039 -0.00349426 1000 -0.002690955 -0.002872672 -0.002784356 -0.003039 -0.00349426 1000 -0.003019754 -0.003191974 -0.003138906 -0.002852661 -0.003015346 1000 -0.003019754 -0.003191974 -0.003138906 -0.002852661 -0.003015346 1000
lala 6 1.2 1 first 17 1 76 6 4.380001 0.439997911453247 0 1 1 0 -0.002651195 -0.002268612 -0.002118967 1000 1000 1000 -0.002651195 -0.002268612 -0.002118967 1000 1000 1000 -0.002178946 -0.002393963 -0.002089718 -0.002094571 -0.001888341 1000 -0.002178946 -0.002393963 -0.002089718 -0.002094571 -0.001888341 1000
lala 7 1.2 1 first 10 1 77 6 3.96 0.479997873306274 1 0 1 1 0.001102112 0.004861151 0.004941584 1000 1000 1000 0.001102112 0.004861151 0.004941584 1000 1000 1000 0.004571594 0.004021067 0.003230199 0.003463775 0.00434374 1000 0.004571594 0.004021067 0.003230199 0.003463775 0.00434374 1000
lala 6 1.2 1 first 12 1 78 4 3.84 0.39999794960022 0 0 1 0 0.002837715 0.003128984 0.003771068 1000 1000 1000 0.002837715 0.003128984 0.003771068 1000 1000 1000 0.01068771 0.01114368 0.01116837 0.01143343 0.01195269 1000 0.01068771 0.01114368 0.01116837 0.01143343 0.01195269 1000
lala 5 1.2 0 second 15 1 79 5 4.25 0.319998025894165 0 1 -1 0 0.01028941 0.009978677 0.01085225 0.01065431 0.01084322 1000 0.01028941 0.009978677 0.01085225 0.01065431 0.01084322 1000 0.0106204 0.01072907 0.01038579 0.01032693 0.01050164 1000 0.0106204 0.01072907 0.01038579 0.01032693 0.01050164 1000
lala 5 1.2 1 second 5 1 80 6 5.580001 0.339998006820679 -1 1 1 1 0.01028391 0.01080258 0.01150239 0.01178688 0.01179241 1000 0.01028391 0.01080258 0.01150239 0.01178688 0.01179241 1000 0.01074683 0.01104864 0.01122212 0.01153446 0.01114808 1000 0.01074683 0.01104864 0.01122212 0.01153446 0.01114808 1000
lala 7 1.2 0 second 17 1 81 6 3.180001 0.359997987747192 0 1 -1 0 0.009253836 0.009324558 0.008724965 0.008555165 0.008445163 1000 0.009253836 0.009324558 0.008724965 0.008555165 0.008445163 1000 0.009994257 0.009157642 0.009201595 0.009053875 0.009013768 1000 0.009994257 0.009157642 0.009201595 0.009053875 0.009013768 1000
lala 4 1.2 1 second 4 1 82 6 5.16 0.539997816085815 -1 0 1 0 0.009726777 0.008905963 0.008448366 0.00829269 0.008727532 1000 0.009726777 0.008905963 0.008448366 0.00829269 0.008727532 1000 0.008462666 0.008593652 0.008391413 0.007684162 0.007907299 1000 0.008462666 0.008593652 0.008391413 0.007684162 0.007907299 1000
lala 7 1.2 0 second 12 1 83 4 2.64 0.339998006820679 0 0 -1 1 0.008030343 0.01103776 0.01209964 0.0136305 0.01426424 1000 0.008030343 0.01103776 0.01209964 0.0136305 0.01426424 1000 0.01171978 0.01155877 0.0115522 0.01161134 0.0115826 1000 0.01171978 0.01155877 0.0115522 0.01161134 0.0115826 1000
lala 13 0.3 1 second 6 1 84 4 4.440001 0.379997968673706 1 0 1 0 0.009079207 0.008820159 0.009137356 0.009085449 0.00966539 1000 0.009079207 0.008820159 0.009137356 0.009085449 0.00966539 1000 0.009305224 0.008685478 0.008521398 0.008346447 0.008999833 1000 0.009305224 0.008685478 0.008521398 0.008346447 0.008999833 1000
lala 8 1.2 1 first 12 1 85 4 3.84 1.63999700546265 0 0 1 1 0.001581038 -0.002078499 -0.003108938 1000 1000 1000 0.001581038 -0.002078499 -0.003108938 1000 1000 1000 0.01260395 0.01185531 0.01255513 0.01355409 0.01393865 1000 0.01260395 0.01185531 0.01255513 0.01355409 0.01393865 1000
lala 3 1.2 1 first 0 1 86 4 5.04 0.459997892379761 -1 0 1 1 0.008322254 0.008409671 0.007973962 1000 1000 1000 0.008322254 0.008409671 0.007973962 1000 1000 1000 0.008241669 0.008104492 0.008182627 0.007995971 0.00786808 1000 0.008241669 0.008104492 0.008182627 0.007995971 0.00786808 1000
lala 14 0.15 0 second 6 1 87 4 4.29 0.419997930526733 1 0 -1 0 0.006715884 0.006544574 0.0064968 0.006720221 0.006575222 1000 0.006715884 0.006544574 0.0064968 0.006720221 0.006575222 1000 0.007426625 0.008340045 0.007879109 0.007640841 0.007346826 1000 0.007426625 0.008340045 0.007879109 0.007640841 0.007346826 1000
lala 6 1.2 1 second 15 1 88 5 5.45 0.339998006820679 0 1 1 0 0.006611811 0.006149414 0.006132219 0.006398883 0.006710847 1000 0.006611811 0.006149414 0.006132219 0.006398883 0.006710847 1000 0.007721414 0.008161588 0.008042817 0.007501152 0.007519712 1000 0.007721414 0.008161588 0.008042817 0.007501152 0.007519712 1000
lala 7 1.2 1 first 15 1 89 5 4.25 3.23999547958374 0 1 1 0 0.006839538 0.007048163 0.007143612 1000 1000 1000 0.006839538 0.007048163 0.007143612 1000 1000 1000 0.006363978 0.006339389 0.006085148 0.005810351 0.006107451 1000 0.006363978 0.006339389 0.006085148 0.005810351 0.006107451 1000
lala 4 1.2 1 second 9 1 90 5 5.45 0.799997568130493 1 1 1 0 0.004083123 0.00400951 0.004168956 0.004228271 0.00437319 1000 0.004083123 0.00400951 0.004168956 0.004228271 0.00437319 1000 0.00415197 0.004420059 0.003863693 0.003538422 0.003676931 1000 0.00415197 0.004420059 0.003863693 0.003538422 0.003676931 1000
lala 5 1.2 1 first 7 1 91 4 5.32 1.01999735832214 1 1 1 1 0.004470039 0.004439516 0.004709167 1000 1000 1000 0.004470039 0.004439516 0.004709167 1000 1000 1000 0.004113068 0.004311786 0.00433651 0.004598953 0.004250218 1000 0.004113068 0.004311786 0.00433651 0.004598953 0.004250218 1000
lala 8 1.2 0 first 17 1 92 6 4.380001 0.359997987747192 0 1 -1 0 0.004459769 0.004790122 0.005440362 1000 1000 1000 0.004459769 0.004790122 0.005440362 1000 1000 1000 0.01620991 0.01544543 0.01564598 0.01574994 0.01580283 1000 0.01620991 0.01544543 0.01564598 0.01574994 0.01580283 1000
lala 4 1.2 0 second 2 1 93 5 4.5 0.819997549057007 -1 0 -1 1 0.0168845 0.01667087 0.01693446 0.01657122 0.0162353 1000 0.0168845 0.01667087 0.01693446 0.01657122 0.0162353 1000 0.01499571 0.01421095 0.0140842 0.01385004 0.01439941 1000 0.01499571 0.01421095 0.0140842 0.01385004 0.01439941 1000
lala 6 1.2 1 second 13 1 94 4 4.12 0.779997587203979 0 1 1 1 0.01426535 0.0139403 0.01365813 0.01372619 0.01365249 1000 0.01426535 0.0139403 0.01365813 0.01372619 0.01365249 1000 0.01304261 0.0124671 0.01353591 0.01377495 0.01368828 1000 0.01304261 0.0124671 0.01353591 0.01377495 0.01368828 1000
lala 5 1.2 0 second 4 1 95 6 3.96 0.339998006820679 -1 0 -1 0 0.01949978 0.01899478 0.01666726 0.01614144 0.01495369 1000 0.01949978 0.01899478 0.01666726 0.01614144 0.01495369 1000 0.0116746 0.01130286 0.011554 0.01152127 0.01091522 1000 0.0116746 0.01130286 0.011554 0.01152127 0.01091522 1000
lala 15 0.075 1 second 6 1 96 4 4.365 0.539997816085815 1 0 1 0 0.009435888 0.008943835 0.008949825 0.008950973 0.009052739 1000 0.009435888 0.008943835 0.008949825 0.008950973 0.009052739 1000 0.007977424 0.008091027 0.008359784 0.008429132 0.008015651 1000 0.007977424 0.008091027 0.008359784 0.008429132 0.008015651 1000
lala 2 1.2 1 second 14 1 97 5 4.5 0.299998044967651 0 0 1 0 0.008492846 0.008420936 0.008146682 0.00823435 0.008117933 1000 0.008492846 0.008420936 0.008146682 0.00823435 0.008117933 1000 0.008220159 0.008295843 0.008477842 0.008643 0.008156497 1000 0.008220159 0.008295843 0.008477842 0.008643 0.008156497 1000
lala 6 1.2 0 second 11 1 98 6 4.380001 0.679997682571411 1 1 -1 1 0.007097988 0.00646824 0.00691741 0.007264624 0.006793391 1000 0.007097988 0.00646824 0.00691741 0.007264624 0.006793391 1000 0.006467484 0.006309947 0.006297867 0.006366616 0.006356583 1000 0.006467484 0.006309947 0.006297867 0.006366616 0.006356583 1000
lala 16 0.0375 0 second 6 1 99 4 4.3275 0.439997911453247 1 0 -1 1 0.004170469 0.004682912 0.004596192 0.00434897 0.003903236 1000 0.004170469 0.004682912 0.004596192 0.00434897 0.003903236 1000 0.003090153 0.00319695 0.00331789 0.003353245 0.003554733 1000 0.003090153 0.00319695 0.00331789 0.003353245 0.003554733 1000
lala 5 1.2 0 first 2 1 100 5 5.7 0.279998064041138 -1 0 -1 0 -0.01787112 -0.01072101 -0.008587017 -0.006587895 -0.004495736 -0.002184144 -0.01787112 -0.01072101 -0.008587017 -0.006587895 -0.004495736 -0.002184144 -0.008241409 -0.007046156 -0.007654008 -0.00862952 -0.008629495 1000 -0.008241409 -0.007046156 -0.007654008 -0.00862952 -0.008629495 1000
lala 9 1.2 1 second 17 1 101 6 5.580001 0.279998064041138 0 1 1 0 -0.005621905 -0.005131471 -0.00452417 -0.003802477 -0.003490252 1000 -0.005621905 -0.005131471 -0.00452417 -0.003802477 -0.003490252 1000 3.064643E-05 -4.045918E-05 0.0001803096 0.0002247005 0.0004883544 1000 3.064643E-05 -4.045918E-05 0.0001803096 0.0002247005 0.0004883544 1000
lala 7 1.2 1 second 11 1 102 6 5.580001 0.359997987747192 1 1 1 1 0.0007340777 0.0009213113 0.001278185 0.00107761 0.0007395674 1000 0.0007340777 0.0009213113 0.001278185 0.00107761 0.0007395674 1000 0.0004035448 0.0006303155 0.0009632832 0.001253776 0.001059864 1000 0.0004035448 0.0006303155 0.0009632832 0.001253776 0.001059864 1000
lala 6 1.2 0 second 4 1 103 6 5.16 0.339998006820679 -1 0 -1 1 0.0007389893 0.0007547095 0.0006615913 0.0009429512 0.00148708 1000 0.0007389893 0.0007547095 0.0006615913 0.0009429512 0.00148708 1000 0.00151639 0.001590787 0.001673069 0.001455026 0.0009195007 1000 0.00151639 0.001590787 0.001673069 0.001455026 0.0009195007 1000
lala 5 1.2 1 first 8 1 104 5 5.7 0.39999794960022 1 0 1 1 0.0002530905 -7.972808E-06 0.0002814276 1000 1000 1000 0.0002530905 -7.972808E-06 0.0002814276 1000 1000 1000 0.005178485 0.005343314 0.005456686 0.005323968 0.005365901 1000 0.005178485 0.005343314 0.005456686 0.005323968 0.005365901 1000
lala 4 1.2 0 second 3 1 105 5 5.45 0.659997701644897 -1 1 -1 1 0.003979498 0.003492353 0.003845499 0.00339989 0.00296964 1000 0.003979498 0.003492353 0.003845499 0.00339989 0.00296964 1000 0.003037097 0.002860094 0.00326026 0.00340045 0.003416617 1000 0.003037097 0.002860094 0.00326026 0.00340045 0.003416617 1000
lala 8 1.2 0 first 10 1 106 6 2.76 0.299998044967651 1 0 -1 1 0.002661122 0.002720477 0.002661082 1000 1000 1000 0.002661122 0.002720477 0.002661082 1000 1000 1000 0.01435997 0.01461411 0.01481239 0.0143558 0.01425812 1000 0.01435997 0.01461411 0.01481239 0.0143558 0.01425812 1000
lala 9 1.2 0 second 10 1 107 6 3.96 0.379997968673706 1 0 -1 1 0.0136154 0.01362288 0.0130705 0.01321905 0.01321636 1000 0.0136154 0.01362288 0.0130705 0.01321905 0.01321636 1000 0.01268739 0.01288414 0.01302857 0.01327806 0.0132101 1000 0.01268739 0.01288414 0.01302857 0.01327806 0.0132101 1000
lala 6 1.2 0 second 7 1 108 4 4.12 0.539997816085815 1 1 -1 0 0.01275372 0.01256355 0.01218215 0.01226128 0.0123732 1000 0.01275372 0.01256355 0.01218215 0.01226128 0.0123732 1000 0.01219694 0.01241189 0.01252807 0.01214029 0.0119209 1000 0.01219694 0.01241189 0.01252807 0.01214029 0.0119209 1000
lala 10 0.6 1 second 17 1 109 6 4.980001 0.99999737739563 0 1 1 0 0.01158383 0.01177406 0.01188544 0.01210976 0.0121849 1000 0.01158383 0.01177406 0.01188544 0.01210976 0.0121849 1000 0.01151022 0.01127005 0.01119758 0.01137427 0.01154223 1000 0.01151022 0.01127005 0.01119758 0.01137427 0.01154223 1000
lala 6 1.2 1 second 2 1 110 5 6.9 0.659997701644897 -1 0 1 1 0.01321378 0.0128807 0.01305586 0.01247235 0.01256642 1000 0.01321378 0.0128807 0.01305586 0.01247235 0.01256642 1000 0.01428268 0.01412508 0.01448093 0.01429466 0.01418511 1000 0.01428268 0.01412508 0.01448093 0.01429466 0.01418511 1000
lala 4 1.2 0 second 0 1 111 4 3.84 0.379997968673706 -1 0 -1 1 0.01362445 0.01379173 0.01372838 0.01326136 0.01281515 1000 0.01362445 0.01379173 0.01372838 0.01326136 0.01281515 1000 0.01331847 0.01305623 0.01313277 0.01363216 0.01412177 1000 0.01331847 0.01305623 0.01313277 0.01363216 0.01412177 1000
lala 3 1.2 0 first 14 1 112 5 3.3 0.219998121261597 0 0 -1 1 0.01364135 0.01296455 0.01291341 1000 1000 1000 0.01364135 0.01296455 0.01291341 1000 1000 1000 0.01283987 0.01262519 0.01269098 0.01288707 0.01307621 1000 0.01283987 0.01262519 0.01269098 0.01288707 0.01307621 1000
lala 5 1.2 1 first 1 1 113 4 7.72 0.259998083114624 -1 1 1 1 0.01299292 0.01276558 0.01225458 1000 1000 1000 0.01299292 0.01276558 0.01225458 1000 1000 1000 0.01189231 0.01216005 0.01199563 0.01231123 0.01183237 1000 0.01189231 0.01216005 0.01199563 0.01231123 0.01183237 1000
lala 9 1.2 0 second 12 1 114 4 2.64 0.39999794960022 0 0 -1 1 0.01134322 0.01152532 0.0115065 0.01110863 0.01074676 1000 0.01134322 0.01152532 0.0115065 0.01110863 0.01074676 1000 0.01078139 0.009884733 0.01014195 0.01041343 0.01105187 1000 0.01078139 0.009884733 0.01014195 0.01041343 0.01105187 1000
lala 5 1.2 1 second 9 1 115 5 4.25 0.39999794960022 1 1 1 0 0.005921586 0.007440248 0.008970791 0.00927774 0.009418038 1000 0.005921586 0.007440248 0.008970791 0.00927774 0.009418038 1000 0.008051387 0.008983242 0.00968019 0.01014684 0.009963586 1000 0.008051387 0.008983242 0.00968019 0.01014684 0.009963586 1000
lala 10 0.6 0 first 12 1 116 4 3.24 0.379997968673706 0 0 -1 0 0.009338417 0.00970137 0.009809729 1000 1000 1000 0.009338417 0.00970137 0.009809729 1000 1000 1000 0.009830817 0.009470914 0.009561541 0.009798012 0.009628585 1000 0.009830817 0.009470914 0.009561541 0.009798012 0.009628585 1000
lala 6 1.2 1 first 5 1 117 6 4.380001 0.159998178482056 -1 1 1 1 0.009947124 0.009694646 0.009238219 1000 1000 1000 0.009947124 0.009694646 0.009238219 1000 1000 1000 0.009063357 0.008887787 0.008611697 0.008455448 0.008384461 1000 0.009063357 0.008887787 0.008611697 0.008455448 0.008384461 1000
lala 6 1.2 1 second 8 1 118 5 4.5 0.339998006820679 1 0 1 0 0.006970033 0.007249793 0.007320385 0.007602749 0.007688854 1000 0.006970033 0.007249793 0.007320385 0.007602749 0.007688854 1000 0.007831099 0.00786807 0.007326872 0.007133391 0.007149768 1000 0.007831099 0.00786807 0.007326872 0.007133391 0.007149768 1000
lala 7 1.2 1 first 7 1 119 4 5.32 0.339998006820679 1 1 1 0 0.006236421 0.006640002 0.006489459 1000 1000 1000 0.006236421 0.006640002 0.006489459 1000 1000 1000 0.006383836 0.0066573 0.007049505 0.007003003 0.006720439 1000 0.006383836 0.0066573 0.007049505 0.007003003 0.006720439 1000
lala 17 0.01875 0 second 6 1 120 4 4.346251 0.39999794960022 1 0 -1 1 0.0093704 0.01222982 0.01271336 0.01362511 0.01297029 1000 0.0093704 0.01222982 0.01271336 0.01362511 0.01297029 1000 0.01500888 0.01465417 0.01491395 0.01483864 0.01445074 1000 0.01500888 0.01465417 0.01491395 0.01483864 0.01445074 1000
lala 5 1.2 0 first 3 1 121 5 6.65 0.319998025894165 -1 1 -1 0 0.01341371 0.01340864 0.01322249 1000 1000 1000 0.01341371 0.01340864 0.01322249 1000 1000 1000 0.01328657 0.01332774 0.01323048 0.01307022 0.01307822 1000 0.01328657 0.01332774 0.01323048 0.01307022 0.01307822 1000
lala 3 1.2 0 first 16 1 122 6 3.96 0.439997911453247 0 0 -1 1 0.01277589 0.01277861 0.01298275 1000 1000 1000 0.01277589 0.01277861 0.01298275 1000 1000 1000 0.01355778 0.01365726 0.01383471 0.01348236 0.01308824 1000 0.01355778 0.01365726 0.01383471 0.01348236 0.01308824 1000
lala 18 0.01875 1 first 6 1 123 4 4.365001 0.459997892379761 1 0 1 0 0.01252317 0.01275796 0.01259476 1000 1000 1000 0.01252317 0.01275796 0.01259476 1000 1000 1000 0.01259544 0.01259806 0.01244043 0.01203251 0.01218479 1000 0.01259544 0.01259806 0.01244043 0.01203251 0.01218479 1000
lala 7 1.2 0 first 8 1 124 5 3.3 0.339998006820679 1 0 -1 1 0.0114973 0.01035432 0.01050355 1000 1000 1000 0.0114973 0.01035432 0.01050355 1000 1000 1000 0.01113135 0.01073376 0.01037145 0.01012364 0.01024511 1000 0.01113135 0.01073376 0.01037145 0.01012364 0.01024511 1000
lala 11 0.6 1 first 12 1 125 4 3.84 0.459997892379761 0 0 1 0 0.009568239 0.009795921 0.01013911 1000 1000 1000 0.009568239 0.009795921 0.01013911 1000 1000 1000 0.01157631 0.01160761 0.01144938 0.01136153 0.01130666 1000 0.01157631 0.01160761 0.01144938 0.01136153 0.01130666 1000
lala 4 1.2 1 second 14 1 126 5 4.5 1.03999733924866 0 0 1 0 0.015445 0.01595516 0.01556573 0.01460555 0.01475111 1000 0.015445 0.01595516 0.01556573 0.01460555 0.01475111 1000 0.01889927 0.01892981 0.01875926 0.01856013 0.01867598 1000 0.01889927 0.01892981 0.01875926 0.01856013 0.01867598 1000
lala 6 1.2 1 second 3 1 127 5 7.849999 0.359997987747192 -1 1 1 0 0.01561365 0.01536222 0.01562965 0.01600574 0.01582352 1000 0.01561365 0.01536222 0.01562965 0.01600574 0.01582352 1000 0.01598655 0.01733515 0.01843555 0.01864932 0.01804758 1000 0.01598655 0.01733515 0.01843555 0.01864932 0.01804758 1000
lala 8 1.2 0 second 8 1 128 5 4.5 0.179998159408569 1 0 -1 0 0.01654837 0.01657878 0.01690451 0.01656738 0.01594516 1000 0.01654837 0.01657878 0.01690451 0.01656738 0.01594516 1000 0.01475243 0.01479351 0.01488648 0.01528775 0.015355 1000 0.01475243 0.01479351 0.01488648 0.01528775 0.015355 1000
lala 7 1.2 1 second 3 1 129 5 6.65 0.23999810218811 -1 1 1 1 0.01532991 0.01509654 0.01531008 0.0154696 0.01556567 1000 0.01532991 0.01509654 0.01531008 0.0154696 0.01556567 1000 0.01618291 0.01639894 0.01564962 0.01585511 0.0157238 1000 0.01618291 0.01639894 0.01564962 0.01585511 0.0157238 1000
lala 7 1.2 0 second 5 1 130 6 3.180001 0.39999794960022 -1 1 -1 0 0.01630898 0.01583952 0.01563617 0.01577087 0.016056 1000 0.01630898 0.01583952 0.01563617 0.01577087 0.016056 1000 0.01589844 0.01619668 0.01592762 0.0158257 0.01570635 1000 0.01589844 0.01619668 0.01592762 0.0158257 0.01570635 1000
lala 19 0.009375 0 second 6 1 131 4 4.355626 0.499997854232788 1 0 -1 0 0.01688589 0.01697329 0.01747676 0.01720463 0.01710971 1000 0.01688589 0.01697329 0.01747676 0.01720463 0.01710971 1000 0.01679007 0.01706242 0.01713831 0.01666789 0.01682859 1000 0.01679007 0.01706242 0.01713831 0.01666789 0.01682859 1000
lala 12 0.3 1 first 12 1 132 4 3.54 0.659997701644897 0 0 1 0 0.01602893 0.01692494 0.01552215 1000 1000 1000 0.01602893 0.01692494 0.01552215 1000 1000 1000 0.01700066 0.0170718 0.01667277 0.01670282 0.0173001 1000 0.01700066 0.0170718 0.01667277 0.01670282 0.0173001 1000
lala 5 1.2 0 first 14 1 133 5 3.3 0.199998140335083 0 0 -1 0 0.01693641 0.01696495 0.017429 1000 1000 1000 0.01693641 0.01696495 0.017429 1000 1000 1000 0.01696626 0.01600258 0.0156088 0.01555353 0.01557234 1000 0.01696626 0.01600258 0.0156088 0.01555353 0.01557234 1000
lala 8 1.2 1 second 3 1 134 5 5.45 0.379997968673706 -1 1 1 1 0.01444633 0.01448906 0.01385216 0.01378737 0.01454895 1000 0.01444633 0.01448906 0.01385216 0.01378737 0.01454895 1000 0.0155267 0.01580624 0.015331 0.01480755 0.0147667 1000 0.0155267 0.01580624 0.015331 0.01480755 0.0147667 1000
lala 6 1.2 0 second 14 1 135 5 4.5 0.459997892379761 0 0 -1 0 0.01601795 0.01597463 0.01552972 0.01550946 0.01561204 1000 0.01601795 0.01597463 0.01552972 0.01550946 0.01561204 1000 0.0193924 0.0193991 0.01822506 0.01777709 0.01748368 1000 0.0193924 0.0193991 0.01822506 0.01777709 0.01748368 1000
lala 9 1.2 0 first 3 1 136 5 4.25 0.259998083114624 -1 1 -1 1 0.01588919 0.01593871 0.01615167 1000 1000 1000 0.01588919 0.01593871 0.01615167 1000 1000 1000 0.01592552 0.01630018 0.01615814 0.01645351 0.01646833 1000 0.01592552 0.01630018 0.01615814 0.01645351 0.01646833 1000
lala 7 1.2 1 first 13 1 137 4 2.92 0.419997930526733 0 1 1 1 0.01630915 0.0165466 0.01656126 1000 1000 1000 0.01630915 0.0165466 0.01656126 1000 1000 1000 0.01526353 0.01521255 0.0154838 0.0158277 0.01579286 1000 0.01526353 0.01521255 0.0154838 0.0158277 0.01579286 1000
lala 10 1.2 1 second 10 1 138 6 5.16 0.23999810218811 1 0 1 0 0.01624968 0.01617573 0.01589283 0.01581504 0.01590453 1000 0.01624968 0.01617573 0.01589283 0.01581504 0.01590453 1000 0.01617902 0.01657543 0.01640075 0.01613453 0.01607167 1000 0.01617902 0.01657543 0.01640075 0.01613453 0.01607167 1000
lala 4 1.2 1 second 16 1 139 6 5.16 0.459997892379761 0 0 1 1 0.01805147 0.01820573 0.0193845 0.02020713 0.01987188 1000 0.01805147 0.01820573 0.0193845 0.02020713 0.01987188 1000 0.01930208 0.01968594 0.02018077 0.02008774 0.01993424 1000 0.01930208 0.01968594 0.02018077 0.02008774 0.01993424 1000
lala 6 1.2 0 second 9 1 140 5 3.05 1.07999730110168 1 1 -1 0 0.01709501 0.01804172 0.01825066 0.01819959 0.01797987 1000 0.01709501 0.01804172 0.01825066 0.01819959 0.01797987 1000 0.01927263 0.01929724 0.01950144 0.01959167 0.01970892 1000 0.01927263 0.01929724 0.01950144 0.01959167 0.01970892 1000
lala 7 1.2 0 first 9 1 141 5 4.25 0.23999810218811 1 1 -1 0 0.01734423 0.01737767 0.01682369 1000 1000 1000 0.01734423 0.01737767 0.01682369 1000 1000 1000 0.0171529 0.01706915 0.01677608 0.01688539 0.01682803 1000 0.0171529 0.01706915 0.01677608 0.01688539 0.01682803 1000
lala 20 0.0046875 1 second 6 1 142 4 4.360313 0.139998197555542 1 0 1 0 0.01794595 0.01835168 0.01847911 0.01900804 0.01939645 1000 0.01794595 0.01835168 0.01847911 0.01900804 0.01939645 1000 0.01835584 0.01797092 0.01796249 0.0177497 0.01790558 1000 0.01835584 0.01797092 0.01796249 0.0177497 0.01790558 1000
lala 9 1.2 1 second 8 1 143 5 5.7 0.179998159408569 1 0 1 0 0.01772811 0.01741984 0.01722808 0.01685372 0.0166921 1000 0.01772811 0.01741984 0.01722808 0.01685372 0.0166921 1000 0.01779253 0.01748113 0.01716296 0.01712007 0.01725869 1000 0.01779253 0.01748113 0.01716296 0.01712007 0.01725869 1000
lala 8 1.2 0 second 15 1 144 5 3.05 0.419997930526733 0 1 -1 0 0.01703581 0.01689717 0.01719731 0.01719028 0.01709141 1000 0.01703581 0.01689717 0.01719731 0.01719028 0.01709141 1000 0.01734583 0.01778106 0.01782806 0.01746503 0.01754877 1000 0.01734583 0.01778106 0.01782806 0.01746503 0.01754877 1000
lala 11 0.6 0 first 10 1 145 6 4.56 0.199998140335083 1 0 -1 0 0.0181562 0.01820876 0.01775078 1000 1000 1000 0.0181562 0.01820876 0.01775078 1000 1000 1000 0.0150674 0.01446773 0.01441435 0.01457512 0.01456891 1000 0.0150674 0.01446773 0.01441435 0.01457512 0.01456891 1000
lala 8 1.2 1 second 9 1 146 5 5.45 0.219998121261597 1 1 1 0 0.01579302 0.01590973 0.01613556 0.01625563 0.01596947 1000 0.01579302 0.01590973 0.01613556 0.01625563 0.01596947 1000 0.01515665 0.01621114 0.01717465 0.01932174 0.02059443 1000 0.01515665 0.01621114 0.01717465 0.01932174 0.02059443 1000
lala 7 1.2 1 second 4 1 147 6 6.36 0.379997968673706 -1 0 1 1 0.0194471 0.01945435 0.01988584 0.01997746 0.01898279 1000 0.0194471 0.01945435 0.01988584 0.01997746 0.01898279 1000 0.01694667 0.01681123 0.0166651 0.01650855 0.01604539 1000 0.01694667 0.01681123 0.0166651 0.01650855 0.01604539 1000
lala 13 0.3 0 first 12 1 148 4 3.24 0.299998044967651 0 0 -1 0 0.01532888 0.01541608 0.01605917 1000 1000 1000 0.01532888 0.01541608 0.01605917 1000 1000 1000 0.01560445 0.01590187 0.01626023 0.01643582 0.01664881 1000 0.01560445 0.01590187 0.01626023 0.01643582 0.01664881 1000
lala 11 0.6 1 first 17 1 149 6 4.380001 0.299998044967651 0 1 1 1 0.0172169 0.01696449 0.01701701 1000 1000 1000 0.0172169 0.01696449 0.01701701 1000 1000 1000 0.01595682 0.01650826 0.01651254 0.01663673 0.01649043 1000 0.01595682 0.01650826 0.01651254 0.01663673 0.01649043 1000
lala 10 0.6 0 first 8 1 150 5 5.1 0.23999810218811 1 0 -1 1 -0.01663335 -0.01519639 -0.01276784 -0.01260762 -0.01216746 -0.01197363 -0.01663335 -0.01519639 -0.01276784 -0.01260762 -0.01216746 -0.01197363 -0.003591046 -0.003758353 -0.005776768 -0.006326284 -0.005901261 1000 -0.003591046 -0.003758353 -0.005776768 -0.006326284 -0.005901261 1000
lala 11 0.3 1 second 8 1 151 5 5.4 0.279998064041138 1 0 1 1 0.003749216 0.003281415 0.003468814 0.003565518 0.004441944 1000 0.003749216 0.003281415 0.003468814 0.003565518 0.004441944 1000 0.004806994 0.005657993 0.005709151 0.005564968 0.005203005 1000 0.004806994 0.005657993 0.005709151 0.005564968 0.005203005 1000
lala 6 1.2 1 first 1 1 152 4 6.52 0.199998140335083 -1 1 1 0 0.006529374 0.006719748 0.007156854 1000 1000 1000 0.006529374 0.006719748 0.007156854 1000 1000 1000 0.002688631 0.00263606 0.002488411 0.002198932 0.002295658 1000 0.002688631 0.00263606 0.002488411 0.002198932 0.002295658 1000
lala 8 1.2 0 second 11 1 153 6 4.380001 0.579997777938843 1 1 -1 1 0.002932781 0.002729348 0.002533183 0.002515815 0.00269829 1000 0.002932781 0.002729348 0.002533183 0.002515815 0.00269829 1000 0.003411503 0.003517257 0.003616398 0.003121917 0.002962681 1000 0.003411503 0.003517257 0.003616398 0.003121917 0.002962681 1000
lala 10 0.6 1 second 3 1 154 5 4.85 0.279998064041138 -1 1 1 1 0.002636385 0.00463632 0.006160961 0.007330942 0.007575249 1000 0.002636385 0.00463632 0.006160961 0.007330942 0.007575249 1000 0.008603401 0.008622767 0.008277077 0.007976627 0.007983294 1000 0.008603401 0.008622767 0.008277077 0.007976627 0.007983294 1000
lala 9 1.2 0 second 15 1 155 5 4.25 0.339998006820679 0 1 -1 0 0.008338326 0.007670979 0.007771404 0.007945871 0.008145439 1000 0.008338326 0.007670979 0.007771404 0.007945871 0.008145439 1000 0.007864472 0.008240348 0.008305593 0.008435624 0.008052612 1000 0.007864472 0.008240348 0.008305593 0.008435624 0.008052612 1000
lala 12 0.6 0 first 17 1 156 6 3.780001 0.299998044967651 0 1 -1 0 0.00789753 0.007403207 0.006821593 1000 1000 1000 0.00789753 0.007403207 0.006821593 1000 1000 1000 0.006662418 0.006605794 0.006589869 0.006457871 0.006012251 1000 0.006662418 0.006605794 0.006589869 0.006457871 0.006012251 1000
lala 9 1.2 0 first 11 1 157 6 5.580001 0.23999810218811 1 1 -1 0 0.00643288 0.006393764 0.007058383 1000 1000 1000 0.00643288 0.006393764 0.007058383 1000 1000 1000 0.007350464 0.007380119 0.007946913 0.008099951 0.007621764 1000 0.007350464 0.007380119 0.007946913 0.008099951 0.007621764 1000
lala 7 1.2 0 first 1 1 158 4 5.320001 0.23999810218811 -1 1 -1 1 0.007796464 0.00770949 0.007628986 1000 1000 1000 0.007796464 0.00770949 0.007628986 1000 1000 1000 0.008557132 0.008539039 0.008888616 0.008801035 0.008484677 1000 0.008557132 0.008539039 0.008888616 0.008801035 0.008484677 1000
lala 14 0.15 1 second 12 1 159 4 3.39 0.339998006820679 0 0 1 0 0.008706163 0.008727787 0.008840153 0.009586535 0.01070487 1000 0.008706163 0.008727787 0.008840153 0.009586535 0.01070487 1000 0.01088169 0.01039487 0.01152624 0.01178905 0.01199534 1000 0.01088169 0.01039487 0.01152624 0.01178905 0.01199534 1000
lala 7 1.2 1 second 14 1 160 5 5.7 0.199998140335083 0 0 1 1 0.01274567 0.01287645 0.01318302 0.01396032 0.01310581 1000 0.01274567 0.01287645 0.01318302 0.01396032 0.01310581 1000 0.01363778 0.0137086 0.01388455 0.01409848 0.01409233 1000 0.01363778 0.0137086 0.01388455 0.01409848 0.01409233 1000
lala 12 0.15 1 second 8 1 161 5 5.25 0.199998140335083 1 0 1 0 0.01401386 0.01374913 0.01352292 0.01333162 0.01304386 1000 0.01401386 0.01374913 0.01352292 0.01333162 0.01304386 1000 0.01449986 0.01383395 0.01340027 0.01339664 0.01341011 1000 0.01449986 0.01383395 0.01340027 0.01339664 0.01341011 1000
lala 15 0.075 0 second 12 1 162 4 3.315 0.259998083114624 0 0 -1 0 0.01279916 0.01306258 0.01313584 0.01309642 0.01297619 1000 0.01279916 0.01306258 0.01313584 0.01309642 0.01297619 1000 0.01320585 0.01315321 0.01380916 0.01480285 0.01479461 1000 0.01320585 0.01315321 0.01380916 0.01480285 0.01479461 1000
lala 8 1.2 1 first 1 1 163 4 6.52 0.219998121261597 -1 1 1 0 0.01546893 0.01486403 0.01443088 1000 1000 1000 0.01546893 0.01486403 0.01443088 1000 1000 1000 0.01399342 0.01383451 0.01405402 0.01410988 0.01433039 1000 0.01399342 0.01383451 0.01405402 0.01410988 0.01433039 1000
lala 11 0.3 0 first 3 1 164 5 4.55 0.339998006820679 -1 1 -1 1 0.01365777 0.01341543 0.0129853 1000 1000 1000 0.01365777 0.01341543 0.0129853 1000 1000 1000 0.01401147 0.01386252 0.01356057 0.01331224 0.01315298 1000 0.01401147 0.01386252 0.01356057 0.01331224 0.01315298 1000
lala 8 1.2 0 first 5 1 165 6 4.380001 0.159998178482056 -1 1 -1 0 0.01318555 0.01355823 0.01356349 1000 1000 1000 0.01318555 0.01355823 0.01356349 1000 1000 1000 0.01616892 0.01570126 0.01578005 0.01525867 0.01498087 1000 0.01616892 0.01570126 0.01578005 0.01525867 0.01498087 1000
lala 5 1.2 0 second 0 1 166 4 5.04 0.159998178482056 -1 0 -1 0 0.01379312 0.01305276 0.0129981 0.01206559 0.01215553 1000 0.01379312 0.01305276 0.0129981 0.01206559 0.01215553 1000 0.01342764 0.01367771 0.01392583 0.01375427 0.0138741 1000 0.01342764 0.01367771 0.01392583 0.01375427 0.0138741 1000
lala 12 0.3 0 second 10 1 167 6 4.86 0.319998025894165 1 0 -1 0 0.01239062 0.01216748 0.01228539 0.0125677 0.01287908 1000 0.01239062 0.01216748 0.01228539 0.0125677 0.01287908 1000 0.01305384 0.0127112 0.01255122 0.01266668 0.01266657 1000 0.01305384 0.0127112 0.01255122 0.01266668 0.01266657 1000
lala 9 1.2 1 second 9 1 168 5 4.25 0.23999810218811 1 1 1 0 0.006192875 0.00666012 0.007879527 0.008484468 0.008702121 1000 0.006192875 0.00666012 0.007879527 0.008484468 0.008702121 1000 0.01037569 0.01078333 0.01044448 0.01040114 0.01038792 1000 0.01037569 0.01078333 0.01044448 0.01040114 0.01038792 1000
lala 5 1.2 0 first 16 1 169 6 3.96 0.459997892379761 0 0 -1 0 0.01098795 0.01085168 0.0108525 1000 1000 1000 0.01098795 0.01085168 0.0108525 1000 1000 1000 0.010894 0.01117021 0.01139024 0.01153158 0.01158318 1000 0.010894 0.01117021 0.01139024 0.01153158 0.01158318 1000
lala 6 1.2 1 first 0 1 170 4 6.24 0.219998121261597 -1 0 1 0 0.01028314 0.01078071 0.0114318 1000 1000 1000 0.01028314 0.01078071 0.0114318 1000 1000 1000 0.01286623 0.0131109 0.01279003 0.01264137 0.01200252 1000 0.01286623 0.0131109 0.01279003 0.01264137 0.01200252 1000
lala 7 1.2 0 second 2 1 171 5 5.7 0.299998044967651 -1 0 -1 1 0.01125728 0.01349575 0.01809249 0.01844789 0.01966658 1000 0.01125728 0.01349575 0.01809249 0.01844789 0.01966658 1000 0.02191343 0.02264065 0.02377805 0.02262306 0.0221097 1000 0.02191343 0.02264065 0.02377805 0.02262306 0.0221097 1000
lala 21 0.00234375 0 second 6 1 172 4 4.357969 0.499997854232788 1 0 -1 0 0.01975443 0.0206626 0.0223534 0.02272893 0.02245845 1000 0.01975443 0.0206626 0.0223534 0.02272893 0.02245845 1000 0.02187352 0.02173654 0.01985328 0.02033969 0.02093696 1000 0.02187352 0.02173654 0.01985328 0.02033969 0.02093696 1000
lala 13 0.3 0 second 10 1 173 6 5.16 0.319998025894165 1 0 -1 1 0.02022684 0.02071186 0.02041597 0.02045732 0.02055523 1000 0.02022684 0.02071186 0.02041597 0.02045732 0.02055523 1000 0.01517017 0.01663186 0.01877604 0.01839787 0.01784833 1000 0.01517017 0.01663186 0.01877604 0.01839787 0.01784833 1000
lala 8 1.2 0 second 7 1 174 4 4.12 0.39999794960022 1 1 -1 1 0.01767441 0.01775157 0.01790081 0.01793854 0.01780592 1000 0.01767441 0.01775157 0.01790081 0.01793854 0.01780592 1000 0.01753481 0.0172489 0.01744086 0.01758887 0.01770147 1000 0.01753481 0.0172489 0.01744086 0.01758887 0.01770147 1000
lala 12 0.15 1 second 3 1 175 5 4.7 0.259998083114624 -1 1 1 0 0.01765497 0.01767831 0.01813366 0.01837248 0.01808502 1000 0.01765497 0.01767831 0.01813366 0.01837248 0.01808502 1000 0.01782367 0.01791434 0.01780333 0.01795592 0.01790135 1000 0.01782367 0.01791434 0.01780333 0.01795592 0.01790135 1000
lala 8 1.2 1 second 4 1 176 6 5.16 0.119998216629028 -1 0 1 0 0.01780897 0.01752726 0.01768602 0.01768597 0.01792544 1000 0.01780897 0.01752726 0.01768602 0.01768597 0.01792544 1000 0.01896628 0.01838109 0.01817612 0.01829525 0.01860062 1000 0.01896628 0.01838109 0.01817612 0.01829525 0.01860062 1000
lala 6 1.2 1 second 16 1 177 6 5.16 0.139998197555542 0 0 1 0 0.01910781 0.0184993 0.01822948 0.01839999 0.01865344 1000 0.01910781 0.0184993 0.01822948 0.01839999 0.01865344 1000 0.01928091 0.01887346 0.01864026 0.01870751 0.01898547 1000 0.01928091 0.01887346 0.01864026 0.01870751 0.01898547 1000
lala 10 1.2 0 first 9 1 178 5 3.05 0.119998216629028 1 1 -1 0 0.01794533 0.01837385 0.01831155 1000 1000 1000 0.01794533 0.01837385 0.01831155 1000 1000 1000 0.01884568 0.01922367 0.01928873 0.01910054 0.01908555 1000 0.01884568 0.01922367 0.01928873 0.01910054 0.01908555 1000
lala 8 1.2 0 first 13 1 179 4 1.72 0.0999982357025146 0 1 -1 0 0.01950527 0.01912812 0.01865724 1000 1000 1000 0.01950527 0.01912812 0.01865724 1000 1000 1000 0.01995597 0.01988695 0.0199755 0.02017549 0.02037073 1000 0.01995597 0.01988695 0.0199755 0.02017549 0.02037073 1000
lala 13 0.075 0 first 3 1 180 5 4.625 0.159998178482056 -1 1 -1 0 0.01914304 0.0192427 0.01948885 1000 1000 1000 0.01914304 0.0192427 0.01948885 1000 1000 1000 0.01972512 0.01873816 0.01774904 0.01790942 0.0182438 1000 0.01972512 0.01873816 0.01774904 0.01790942 0.0182438 1000
lala 14 0.3 1 first 10 1 181 6 5.460001 0.23999810218811 1 0 1 0 0.01791963 0.0187963 0.01916748 1000 1000 1000 0.01791963 0.0187963 0.01916748 1000 1000 1000 0.01719938 0.01675821 0.01691248 0.01705067 0.01730708 1000 0.01719938 0.01675821 0.01691248 0.01705067 0.01730708 1000
lala 11 0.6 0 first 9 1 182 5 3.65 0.159998178482056 1 1 -1 1 0.01642181 0.01683008 0.01692458 1000 1000 1000 0.01642181 0.01683008 0.01692458 1000 1000 1000 0.01659462 0.01621591 0.01721434 0.0171866 0.01712257 1000 0.01659462 0.01621591 0.01721434 0.0171866 0.01712257 1000
lala 22 0.001171875 1 first 6 1 183 4 4.359141 0.319998025894165 1 0 1 0 0.01656737 0.01752868 0.01712558 1000 1000 1000 0.01656737 0.01752868 0.01712558 1000 1000 1000 0.0183364 0.01756081 0.01702437 0.01738323 0.01804012 1000 0.0183364 0.01756081 0.01702437 0.01738323 0.01804012 1000
lala 10 1.2 0 first 15 1 184 5 5.45 0.259998083114624 0 1 -1 0 0.01762263 0.01737527 0.01678599 1000 1000 1000 0.01762263 0.01737527 0.01678599 1000 1000 1000 0.01648846 0.01627257 0.01664882 0.01677687 0.01685231 1000 0.01648846 0.01627257 0.01664882 0.01677687 0.01685231 1000
lala 11 2.4 1 first 15 1 185 5 7.85 0.439997911453247 0 1 1 1 0.00414399 0.01133575 0.0142893 1000 1000 1000 0.00414399 0.01133575 0.0142893 1000 1000 1000 0.01123826 0.01088542 0.01071356 0.01115487 0.01058604 1000 0.01123826 0.01088542 0.01071356 0.01115487 0.01058604 1000
lala 9 1.2 0 first 5 1 186 6 5.580001 0.139998197555542 -1 1 -1 1 0.009704012 0.01031046 0.01100258 1000 1000 1000 0.009704012 0.01031046 0.01100258 1000 1000 1000 0.009425038 0.009893359 0.0104992 0.01188098 0.01185892 1000 0.009425038 0.009893359 0.0104992 0.01188098 0.01185892 1000
lala 8 1.2 1 first 14 1 187 5 4.5 0.539997816085815 0 0 1 0 0.01092633 0.01147139 0.01109184 1000 1000 1000 0.01092633 0.01147139 0.01109184 1000 1000 1000 0.009867906 0.009688541 0.01000448 0.0101534 0.009746457 1000 0.009867906 0.009688541 0.01000448 0.0101534 0.009746457 1000
lala 12 1.2 1 second 15 1 188 5 6.65 0.639997720718384 0 1 1 1 0.00409335 0.006350895 0.01017234 0.01427018 0.01696361 1000 0.00409335 0.006350895 0.01017234 0.01427018 0.01696361 1000 0.01691942 0.0176459 0.01770622 0.01788852 0.01693262 1000 0.01691942 0.0176459 0.01770622 0.01788852 0.01693262 1000
lala 14 0.0375 0 first 3 1 189 5 4.6625 0.01999831199646 -1 1 -1 1 0.01597134 0.01664313 0.01751832 1000 1000 1000 0.01597134 0.01664313 0.01751832 1000 1000 1000 0.01713985 0.01748967 0.01757239 0.01742867 0.01704084 1000 0.01713985 0.01748967 0.01757239 0.01742867 0.01704084 1000
lala 13 1.2 1 second 15 1 190 5 5.45 0.159998178482056 0 1 1 1 0.01678468 0.01741472 0.01736482 0.01708665 0.01720904 1000 0.01678468 0.01741472 0.01736482 0.01708665 0.01720904 1000 0.01743372 0.01724359 0.01752355 0.01748374 0.01701431 1000 0.01743372 0.01724359 0.01752355 0.01748374 0.01701431 1000
lala 9 1.2 1 second 1 1 191 4 5.320001 0.179998159408569 -1 1 1 1 0.01793241 0.01783009 0.01743895 0.01733126 0.0165576 1000 0.01793241 0.01783009 0.01743895 0.01733126 0.0165576 1000 0.0178184 0.01806899 0.01729027 0.01709532 0.01682423 1000 0.0178184 0.01806899 0.01729027 0.01709532 0.01682423 1000
lala 16 0.0375 0 second 12 1 192 4 3.3525 0.279998064041138 0 0 -1 1 0.0182435 0.01890045 0.01866462 0.01814252 0.01760802 1000 0.0182435 0.01890045 0.01866462 0.01814252 0.01760802 1000 0.01952908 0.01950131 0.01977196 0.02007461 0.0196032 1000 0.01952908 0.01950131 0.01977196 0.02007461 0.0196032 1000
lala 10 1.2 0 first 1 1 193 4 4.120001 0.0599982738494873 -1 1 -1 1 0.01812135 0.01748628 0.01801657 1000 1000 1000 0.01812135 0.01748628 0.01801657 1000 1000 1000 0.01801657 0.01880124 0.01870122 0.0187862 0.01895952 1000 0.01801657 0.01880124 0.01870122 0.0187862 0.01895952 1000
lala 9 1.2 0 second 13 1 194 4 2.92 0.339998006820679 0 1 -1 0 0.0201594 0.01981052 0.01877031 0.01862293 0.01846176 1000 0.0201594 0.01981052 0.01877031 0.01862293 0.01846176 1000 0.01779884 0.01823884 0.01802612 0.01852343 0.01827352 1000 0.01779884 0.01823884 0.01802612 0.01852343 0.01827352 1000
lala 11 0.6 1 second 1 1 195 4 4.720001 0.0999982357025146 -1 1 1 0 0.01804715 0.01810388 0.01807561 0.01816189 0.01861474 1000 0.01804715 0.01810388 0.01807561 0.01816189 0.01861474 1000 0.01751323 0.01745335 0.01772898 0.01796618 0.01806416 1000 0.01751323 0.01745335 0.01772898 0.01796618 0.01806416 1000
lala 15 0.0375 0 second 3 1 196 5 4.7 0.339998006820679 -1 1 -1 1 0.01832723 0.01801837 0.01754234 0.01702738 0.01870586 1000 0.01832723 0.01801837 0.01754234 0.01702738 0.01870586 1000 0.01910995 0.01937184 0.01948259 0.01940146 0.01941319 1000 0.01910995 0.01937184 0.01948259 0.01940146 0.01941319 1000
lala 15 0.15 1 second 10 1 197 6 5.31 0.199998140335083 1 0 1 1 0.0181874 0.01879395 0.01904192 0.01863075 0.01825039 1000 0.0181874 0.01879395 0.01904192 0.01863075 0.01825039 1000 0.01854471 0.01866634 0.01881382 0.01890083 0.01905688 1000 0.01854471 0.01866634 0.01881382 0.01890083 0.01905688 1000
lala 13 0.15 1 second 8 1 198 5 5.1 0.359997987747192 1 0 1 0 0.02283421 0.02230446 0.02241181 0.02275657 0.02391394 1000 0.02283421 0.02230446 0.02241181 0.02275657 0.02391394 1000 0.0225472 0.01706566 0.01866577 0.01952506 0.02027004 1000 0.0225472 0.01706566 0.01866577 0.01952506 0.02027004 1000
lala 16 0.15 1 first 10 1 199 6 5.16 0.159998178482056 1 0 1 1 0.01879525 0.01773437 0.01844438 1000 1000 1000 0.01879525 0.01773437 0.01844438 1000 1000 1000 0.009745779 0.009819356 0.00946462 0.01094125 0.01289276 1000 0.009745779 0.009819356 0.00946462 0.01094125 0.01289276 1000
lala 12 0.3 0 second 1 1 200 4 4.420001 0.179998159408569 -1 1 -1 1 -0.004381565 -0.002562401 -0.002672981 -0.00243063 -0.001290284 1000 -0.004381565 -0.002562401 -0.002672981 -0.00243063 -0.001290284 1000 0.001592057 0.0008914786 0.0002741377 0.0001346968 0.0004810654 1000 0.001592057 0.0008914786 0.0002741377 0.0001346968 0.0004810654 1000
lala 8 1.2 1 first 2 1 201 5 6.9 0.139998197555542 -1 0 1 0 0.002475342 0.003453447 0.003584032 1000 1000 1000 0.002475342 0.003453447 0.003584032 1000 1000 1000 0.003784166 0.002414228 0.002685829 0.002461323 0.002898437 1000 0.003784166 0.002414228 0.002685829 0.002461323 0.002898437 1000
lala 7 1.2 0 first 0 1 202 4 5.04 0.079998254776001 -1 0 -1 0 0.002456944 0.002752127 0.002806412 1000 1000 1000 0.002456944 0.002752127 0.002806412 1000 1000 1000 0.003062857 0.002710956 0.002422297 0.002322701 0.002259442 1000 0.003062857 0.002710956 0.002422297 0.002322701 0.002259442 1000
lala 16 0.0375 0 second 3 1 203 5 4.7375 0.0399982929229736 -1 1 -1 0 0.003461003 0.002858324 0.002780412 0.002483289 0.002336824 1000 0.003461003 0.002858324 0.002780412 0.002483289 0.002336824 1000 0.002271652 0.002290127 0.002309306 0.002611762 0.002109782 1000 0.002271652 0.002290127 0.002309306 0.002611762 0.002109782 1000
lala 7 1.2 1 first 16 1 204 6 3.96 0.39999794960022 0 0 1 1 0.003359266 0.003518559 0.00337809 1000 1000 1000 0.003359266 0.003518559 0.00337809 1000 1000 1000 0.001780394 0.001298237 0.002183257 0.002881481 0.002954914 1000 0.001780394 0.001298237 0.002183257 0.002881481 0.002954914 1000
lala 8 1.2 0 first 16 1 205 6 2.76 0.299998044967651 0 0 -1 0 0.001705446 0.001709658 0.001270553 1000 1000 1000 0.001705446 0.001709658 0.001270553 1000 1000 1000 -0.0002398087 -0.0004592932 -0.0003110294 -0.0005440724 -0.0003919928 1000 -0.0002398087 -0.0004592932 -0.0003110294 -0.0005440724 -0.0003919928 1000
lala 13 0.3 0 second 17 1 206 6 4.080001 0.459997892379761 0 1 -1 0 0.0006732691 0.0003615829 0.000352107 0.0008725447 0.001005352 1000 0.0006732691 0.0003615829 0.000352107 0.0008725447 0.001005352 1000 0.000350503 0.001184696 0.00115573 0.000972711 0.0003655472 1000 0.000350503 0.001184696 0.00115573 0.000972711 0.0003655472 1000
lala 17 0.15 1 first 10 1 207 6 5.01 0.139998197555542 1 0 1 0 8.420822E-05 -0.001760969 -0.004857831 1000 1000 1000 8.420822E-05 -0.001760969 -0.004857831 1000 1000 1000 -0.0008211823 -0.0009174628 -0.001347432 -0.00162855 -0.001288747 1000 -0.0008211823 -0.0009174628 -0.001347432 -0.00162855 -0.001288747 1000
lala 9 1.2 0 first 16 1 208 6 3.96 0.23999810218811 0 0 -1 0 -0.0004223186 0.0009982832 0.001565235 1000 1000 1000 -0.0004223186 0.0009982832 0.001565235 1000 1000 1000 0.001162531 0.001549771 0.002249701 0.002049524 0.002178711 1000 0.001162531 0.001549771 0.002249701 0.002049524 0.002178711 1000
lala 14 1.2 1 second 15 1 209 5 4.25 0.23999810218811 0 1 1 1 0.001743549 0.001611193 0.0015922 0.001439501 0.001475234 1000 0.001743549 0.001611193 0.0015922 0.001439501 0.001475234 1000 0.001734072 0.002485509 0.002732895 0.002173099 0.002176585 1000 0.001734072 0.002485509 0.002732895 0.002173099 0.002176585 1000
lala 23 0.0005859375 0 first 6 1 210 4 4.358555 0.079998254776001 1 0 -1 0 0.002528184 0.002766445 0.002511448 1000 1000 1000 0.002528184 0.002766445 0.002511448 1000 1000 1000 0.001656868 0.001214278 0.002198976 0.002091684 0.00234818 1000 0.001656868 0.001214278 0.002198976 0.002091684 0.00234818 1000
lala 14 0.15 1 first 8 1 211 5 4.95 0.359997987747192 1 0 1 0 0.00297197 0.00260218 0.001560366 1000 1000 1000 0.00297197 0.00260218 0.001560366 1000 1000 1000 0.003091142 0.002693795 0.002163468 0.002079281 0.00253742 1000 0.003091142 0.002693795 0.002163468 0.002079281 0.00253742 1000
lala 13 0.15 0 second 1 1 212 4 4.570001 0.259998083114624 -1 1 -1 1 0.002252799 0.002174668 0.002284622 0.002571952 0.002120931 1000 0.002252799 0.002174668 0.002284622 0.002571952 0.002120931 1000 0.00332738 0.003419957 0.003599123 0.003138056 0.002575937 1000 0.00332738 0.003419957 0.003599123 0.003138056 0.002575937 1000
lala 14 0.3 0 first 17 1 213 6 4.380002 0.279998064041138 0 1 -1 0 0.002367667 0.00345286 0.004025976 1000 1000 1000 0.002367667 0.00345286 0.004025976 1000 1000 1000 0.004724703 0.005467347 0.005360668 0.004902352 0.004505886 1000 0.004724703 0.005467347 0.005360668 0.004902352 0.004505886 1000
lala 15 2.4 0 second 15 1 214 5 1.85 0.01999831199646 0 1 -1 0 0.005368069 0.004817265 0.004450471 0.004380018 0.004724427 1000 0.005368069 0.004817265 0.004450471 0.004380018 0.004724427 1000 0.005541161 0.005345796 0.006408066 0.005218455 0.005137417 1000 0.005541161 0.005345796 0.006408066 0.005218455 0.005137417 1000
lala 15 0.3 1 second 8 1 215 5 4.65 0.319998025894165 1 0 1 1 0.005206304 0.00536472 0.004461102 0.004606085 0.005332332 1000 0.005206304 0.00536472 0.004461102 0.004606085 0.005332332 1000 0.005288336 0.004549845 0.004419054 0.004701738 0.004477523 1000 0.005288336 0.004549845 0.004419054 0.004701738 0.004477523 1000
lala 16 1.2 0 first 15 1 216 5 3.05 0.139998197555542 0 1 -1 1 0.005229366 0.004806104 0.004809977 1000 1000 1000 0.005229366 0.004806104 0.004809977 1000 1000 1000 0.006386254 0.00637258 0.007074786 0.006897365 0.006207428 1000 0.006386254 0.00637258 0.007074786 0.006897365 0.006207428 1000
lala 9 1.2 0 second 14 1 217 5 3.3 0.359997987747192 0 0 -1 1 0.005815311 0.004918458 0.003475374 0.003579876 0.00397976 1000 0.005815311 0.004918458 0.003475374 0.003579876 0.00397976 1000 0.003895047 0.003590324 0.003754788 0.00377833 0.003399689 1000 0.003895047 0.003590324 0.003754788 0.00377833 0.003399689 1000
lala 15 0.3 1 second 17 1 218 6 4.680002 0.279998064041138 0 1 1 1 0.003931215 0.004312461 0.00429076 0.004060003 0.003989179 1000 0.003931215 0.004312461 0.00429076 0.004060003 0.003989179 1000 -0.002323679 -0.001079353 0.0001890706 0.001321193 0.001649328 1000 -0.002323679 -0.001079353 0.0001890706 0.001321193 0.001649328 1000
lala 24 0.0002929688 1 first 6 1 219 4 4.358848 0.359997987747192 1 0 1 1 0.001604816 0.003212269 0.002844255 1000 1000 1000 0.001604816 0.003212269 0.002844255 1000 1000 1000 0.003705531 0.003591873 0.003269523 0.003264124 0.003134074 1000 0.003705531 0.003591873 0.003269523 0.003264124 0.003134074 1000
lala 10 1.2 1 second 16 1 220 6 5.16 0.299998044967651 0 0 1 0 0.002958959 0.003128689 0.002595366 0.002424396 0.003016883 1000 0.002958959 0.003128689 0.002595366 0.002424396 0.003016883 1000 0.002881441 0.00349852 0.002722457 0.002530793 0.002704042 1000 0.002881441 0.00349852 0.002722457 0.002530793 0.002704042 1000
lala 17 0.075 0 second 3 1 221 5 4.8125 0.359997987747192 -1 1 -1 1 0.002956156 0.00227903 0.002204362 0.001806457 0.002261358 1000 0.002956156 0.00227903 0.002204362 0.001806457 0.002261358 1000 0.002528015 0.002669474 0.002816432 0.002554884 0.002581961 1000 0.002528015 0.002669474 0.002816432 0.002554884 0.002581961 1000
lala 9 1.2 1 first 2 1 222 5 5.7 0.319998025894165 -1 0 1 0 0.001656193 0.002381565 0.002915137 1000 1000 1000 0.001656193 0.002381565 0.002915137 1000 1000 1000 0.002652788 0.003855434 0.00282047 0.002251228 0.002436821 1000 0.002652788 0.003855434 0.00282047 0.002251228 0.002436821 1000
lala 10 2.4 0 second 5 1 223 6 7.980001 0.359997987747192 -1 1 -1 1 0.00275545 0.002176709 0.002775697 0.00350084 0.00313506 1000 0.00275545 0.002176709 0.002775697 0.00350084 0.00313506 1000 0.00246923 0.003190833 0.003611272 0.002749859 0.002533765 1000 0.00246923 0.003190833 0.003611272 0.002749859 0.002533765 1000
lala 11 4.8 1 first 5 1 224 6 12.78 0.259998083114624 -1 1 1 1 0.002044307 0.001131144 -0.0003686064 1000 1000 1000 0.002044307 0.001131144 -0.0003686064 1000 1000 1000 0.002281267 0.002257118 0.002161308 0.002075384 0.00178392 1000 0.002281267 0.002257118 0.002161308 0.002075384 0.00178392 1000
lala 12 0.6 1 first 9 1 225 5 4.25 0.339998006820679 1 1 1 1 0.002350101 0.002355284 0.002537414 1000 1000 1000 0.002350101 0.002355284 0.002537414 1000 1000 1000 0.002883382 0.002945822 0.003270289 0.00358172 0.003084053 1000 0.002883382 0.002945822 0.003270289 0.00358172 0.003084053 1000
lala 9 1.2 0 second 4 1 226 6 3.96 1.65999698638916 -1 0 -1 1 0.002192903 0.002796979 0.002991843 0.002413683 0.002101163 1000 0.002192903 0.002796979 0.002991843 0.002413683 0.002101163 1000 0.003023908 0.003091338 0.002233198 0.00217749 0.003256165 1000 0.003023908 0.003091338 0.002233198 0.00217749 0.003256165 1000
lala 16 0.15 0 first 17 1 227 6 4.530002 0.419997930526733 0 1 -1 1 0.003491071 0.004371314 0.003943129 1000 1000 1000 0.003491071 0.004371314 0.003943129 1000 1000 1000 0.004461966 0.003749233 0.003548363 0.003698476 0.003317525 1000 0.004461966 0.003749233 0.003548363 0.003698476 0.003317525 1000
lala 12 2.4 1 first 5 1 228 6 10.38 0.159998178482056 -1 1 1 1 0.004052109 0.004555125 0.003389363 1000 1000 1000 0.004052109 0.004555125 0.003389363 1000 1000 1000 0.004096678 0.003476863 0.003661325 0.002830165 0.002489525 1000 0.004096678 0.003476863 0.003661325 0.002830165 0.002489525 1000
lala 25 0.0001464844 1 first 6 1 229 4 4.358702 0.779997587203979 1 0 1 0 0.002222444 0.002395498 0.003399414 1000 1000 1000 0.002222444 0.002395498 0.003399414 1000 1000 1000 0.001862251 0.002721505 0.003292196 0.003376795 0.003259672 1000 0.001862251 0.002721505 0.003292196 0.003376795 0.003259672 1000
lala 8 1.2 0 second 0 1 230 4 6.24 0.219998121261597 -1 0 -1 1 0.00270065 0.002692668 0.002986807 0.002410033 0.001896139 1000 0.00270065 0.002692668 0.002986807 0.002410033 0.001896139 1000 0.003175283 0.002534132 0.002019497 0.003073422 0.003383161 1000 0.003175283 0.002534132 0.002019497 0.003073422 0.003383161 1000
lala 14 0.15 1 first 1 1 231 4 4.720001 0.079998254776001 -1 1 1 1 0.002884204 0.002780404 0.003271084 1000 1000 1000 0.002884204 0.002780404 0.003271084 1000 1000 1000 0.002016767 0.002495573 0.002902214 0.003562014 0.002730181 1000 0.002016767 0.002495573 0.002902214 0.003562014 0.002730181 1000
lala 18 0.15 0 first 3 1 232 5 4.9625 0.499997854232788 -1 1 -1 0 0.002434215 0.003131064 0.002691341 1000 1000 1000 0.002434215 0.003131064 0.002691341 1000 1000 1000 0.002026011 0.00243162 0.001593237 0.001566226 0.001857828 1000 0.002026011 0.00243162 0.001593237 0.001566226 0.001857828 1000
lala 18 0.3 1 second 10 1 233 6 4.71 0.599997758865356 1 0 1 0 0.0004521705 0.001048367 0.00135528 0.001256571 0.001228919 1000 0.0004521705 0.001048367 0.00135528 0.001256571 0.001228919 1000 0.001839425 0.002295237 0.002838074 0.002743612 0.002696939 1000 0.001839425 0.002295237 0.002838074 0.002743612 0.002696939 1000
lala 17 1.2 1 first 15 1 234 5 4.25 0.219998121261597 0 1 1 0 0.0009717087 0.001807237 0.001946933 1000 1000 1000 0.0009717087 0.001807237 0.001946933 1000 1000 1000 0.005671108 0.005413501 0.004607232 0.004437597 0.004139354 1000 0.005671108 0.005413501 0.004607232 0.004437597 0.004139354 1000
lala 11 0.6 1 first 16 1 235 6 4.56 0.339998006820679 0 0 1 1 0.004621569 0.005353625 0.005101535 1000 1000 1000 0.004621569 0.005353625 0.005101535 1000 1000 1000 0.004133433 0.003857144 0.004082819 0.003617655 0.003382222 1000 0.004133433 0.003857144 0.004082819 0.003617655 0.003382222 1000
lala 10 1.2 1 second 13 1 236 4 4.12 0.179998159408569 0 1 1 0 0.002299292 0.0030541 0.003254261 0.003061479 0.002997399 1000 0.002299292 0.0030541 0.003254261 0.003061479 0.002997399 1000 0.002223648 0.001834834 0.0011682 0.0009362813 0.001864524 1000 0.002223648 0.001834834 0.0011682 0.0009362813 0.001864524 1000
lala 10 1.2 1 second 11 1 237 6 6.780001 0.959997415542603 1 1 1 1 0.002585487 0.002764556 0.002530243 0.002087694 0.002078016 1000 0.002585487 0.002764556 0.002530243 0.002087694 0.002078016 1000 0.003015014 0.003576153 0.003709616 0.004502743 0.002504668 1000 0.003015014 0.003576153 0.003709616 0.004502743 0.002504668 1000
lala 16 0.6 0 second 8 1 238 5 4.05 0.39999794960022 1 0 -1 0 0.001293499 0.0006768542 0.0002613801 -0.000454657 -0.0005825408 1000 0.001293499 0.0006768542 0.0002613801 -0.000454657 -0.0005825408 1000 0.002001409 0.002277814 0.001521519 0.001339338 0.001428358 1000 0.002001409 0.002277814 0.001521519 0.001339338 0.001428358 1000
lala 26 0.0001464844 1 second 6 1 239 4 4.358555 0.299998044967651 1 0 1 0 -0.002111974 -0.0006771024 0.0005518959 -0.0001627856 0.0006472896 1000 -0.002111974 -0.0006771024 0.0005518959 -0.0001627856 0.0006472896 1000 0.002033941 0.001522182 0.002032999 0.002392325 0.001376632 1000 0.002033941 0.001522182 0.002032999 0.002392325 0.001376632 1000
lala 10 0.6 0 first 4 1 240 6 4.56 0.079998254776001 -1 0 -1 0 0.0007140791 0.001837845 0.001515763 1000 1000 1000 0.0007140791 0.001837845 0.001515763 1000 1000 1000 0.001054707 0.001535495 0.001319099 0.001490644 0.001926756 1000 0.001054707 0.001535495 0.001319099 0.001490644 0.001926756 1000
lala 17 0.3 0 second 8 1 241 5 4.35 0.459997892379761 1 0 -1 0 0.000260942 0.0003340216 0.0003221036 0.000664801 0.001222372 1000 0.000260942 0.0003340216 0.0003221036 0.000664801 0.001222372 1000 0.001166953 0.001575992 0.001096844 0.0009827235 0.0008547755 1000 0.001166953 0.001575992 0.001096844 0.0009827235 0.0008547755 1000
lala 10 0.6 1 second 14 1 242 5 3.9 0.299998044967651 0 0 1 1 -0.006631046 -0.01664804 -0.008785239 -0.002756355 -0.001477234 1000 -0.006631046 -0.01664804 -0.008785239 -0.002756355 -0.001477234 1000 0.002149801 0.002592338 0.00153321 0.0001349144 -0.000733053 1000 0.002149801 0.002592338 0.00153321 0.0001349144 -0.000733053 1000
lala 13 0.3 0 second 9 1 243 5 3.95 0.639997720718384 1 1 -1 0 -0.001294275 -0.001795862 -0.002120459 -0.002833486 -0.0030379 1000 -0.001294275 -0.001795862 -0.002120459 -0.002833486 -0.0030379 1000 -0.002110148 -0.001926343 -0.001550243 -0.001210475 -0.001917458 1000 -0.002110148 -0.001926343 -0.001550243 -0.001210475 -0.001917458 1000
lala 11 0.6 0 first 13 1 244 4 3.52 0.339998006820679 0 1 -1 1 -0.00178388 -0.002709121 -0.003442752 1000 1000 1000 -0.00178388 -0.002709121 -0.003442752 1000 1000 1000 -0.001551008 -0.001730706 -0.002103562 -0.001456583 -0.0006846822 1000 -0.001551008 -0.001730706 -0.002103562 -0.001456583 -0.0006846822 1000
lala 11 0.3 0 first 14 1 245 5 3.6 0.299998044967651 0 0 -1 1 -0.001007215 -0.001229666 -0.002094072 1000 1000 1000 -0.001007215 -0.001229666 -0.002094072 1000 1000 1000 -0.002537456 -0.002846483 -0.003251619 -0.00282956 -0.00283249 1000 -0.002537456 -0.002846483 -0.003251619 -0.00282956 -0.00283249 1000
lala 12 0.6 0 second 16 1 246 6 3.96 0.419997930526733 0 0 -1 0 -0.0002083906 -0.0005378225 -0.0008407385 -0.0006918905 -0.0003883132 1000 -0.0002083906 -0.0005378225 -0.0008407385 -0.0006918905 -0.0003883132 1000 2.185005E-05 0.002098143 0.002287651 0.001831705 0.001741575 1000 2.185005E-05 0.002098143 0.002287651 0.001831705 0.001741575 1000
lala 18 0.6 1 second 15 1 247 5 3.65 0.539997816085815 0 1 1 1 0.002698704 0.002227541 0.001873512 0.001741373 0.001936055 1000 0.002698704 0.002227541 0.001873512 0.001741373 0.001936055 1000 0.002455518 0.002089414 0.002482208 0.001931707 0.001738386 1000 0.002455518 0.002089414 0.002482208 0.001931707 0.001738386 1000
lala 13 0.3 0 second 16 1 248 6 4.26 0.319998025894165 0 0 -1 0 0.008287217 0.007979388 0.006653037 0.005257413 0.00578919 1000 0.008287217 0.007979388 0.006653037 0.005257413 0.00578919 1000 0.007755984 0.006977524 0.006548898 0.007169255 0.007348232 1000 0.007755984 0.006977524 0.006548898 0.007169255 0.007348232 1000
lala 14 0.3 1 first 16 1 249 6 4.56 0.23999810218811 0 0 1 0 0.002867869 0.002104432 0.001877206 1000 1000 1000 0.002867869 0.002104432 0.001877206 1000 1000 1000 0.005769226 0.006859724 0.00698188 0.007778683 0.008304621 1000 0.005769226 0.006859724 0.00698188 0.007778683 0.008304621 1000
lala 27 0.0001464844 1 first 6 1 250 4 4.358409 1.65999698638916 1 0 1 0 -0.01749427 -0.01107815 -0.004727626 -0.002557195 -0.002104717 -0.001703796 -0.01749427 -0.01107815 -0.004727626 -0.002557195 -0.002104717 -0.001703796 0.001106054 0.0007992279 0.001414943 0.001729107 0.001863152 1000 0.001106054 0.0007992279 0.001414943 0.001729107 0.001863152 1000
lala 17 0.0375 1 first 12 1 251 4 3.39 0.279998064041138 0 0 1 0 0.001349923 0.001636371 0.00184265 1000 1000 1000 0.001349923 0.001636371 0.00184265 1000 1000 1000 0.002601634 0.002274135 0.00242244 0.002565324 0.002366422 1000 0.002601634 0.002274135 0.00242244 0.002565324 0.002366422 1000
lala 15 0.075 0 second 1 1 252 4 4.645001 0.439997911453247 -1 1 -1 0 0.0001865498 0.0005899194 0.0006221024 0.0005565392 0.0006910486 1000 0.0001865498 0.0005899194 0.0006221024 0.0005565392 0.0006910486 1000 0.00222367 0.002925134 0.003227515 0.003107066 0.002607043 1000 0.00222367 0.002925134 0.003227515 0.003107066 0.002607043 1000
lala 19 0.6 0 second 15 1 253 5 3.05 0.939997434616089 0 1 -1 0 0.004755796 0.004588693 0.004160457 0.003991415 0.003356648 1000 0.004755796 0.004588693 0.004160457 0.003991415 0.003356648 1000 0.003536517 0.003437182 0.004055589 0.004483179 0.004002924 1000 0.003536517 0.003437182 0.004055589 0.004483179 0.004002924 1000
lala 19 0.3 1 first 3 1 254 5 5.2625 0.0599982738494873 -1 1 1 1 0.00327546 0.002903962 0.002827551 1000 1000 1000 0.00327546 0.002903962 0.002827551 1000 1000 1000 0.002272106 0.001890206 0.001139932 0.001618329 0.001968495 1000 0.002272106 0.001890206 0.001139932 0.001618329 0.001968495 1000
lala 15 0.15 0 second 16 1 255 6 4.41 0.359997987747192 0 0 -1 1 0.002752141 0.002753084 0.003551226 0.003727142 0.002533375 1000 0.002752141 0.002753084 0.003551226 0.003727142 0.002533375 1000 0.002338044 0.002334851 0.002832271 0.001961769 0.002061459 1000 0.002338044 0.002334851 0.002832271 0.001961769 0.002061459 1000
lala 13 2.4 1 second 5 1 256 6 7.980001 0.679997682571411 -1 1 1 1 0.004016113 0.003889982 0.003457875 0.003394756 0.003773923 1000 0.004016113 0.003889982 0.003457875 0.003394756 0.003773923 1000 0.004013926 0.005054856 0.005039211 0.004857937 0.004454885 1000 0.004013926 0.005054856 0.005039211 0.004857937 0.004454885 1000
lala 16 0.0375 0 first 1 1 257 4 4.682501 0.139998197555542 -1 1 -1 0 0.003934895 0.003996155 0.003363645 1000 1000 1000 0.003934895 0.003996155 0.003363645 1000 1000 1000 0.004014262 0.004623911 0.004317939 0.004539157 0.004254241 1000 0.004014262 0.004623911 0.004317939 0.004539157 0.004254241 1000
lala 20 0.15 0 first 3 1 258 5 5.1125 0.139998197555542 -1 1 -1 1 0.007321032 0.007018297 0.007074312 1000 1000 1000 0.007321032 0.007018297 0.007074312 1000 1000 1000 -0.006028098 -0.005588688 -0.004733562 -0.003496716 -0.002745062 1000 -0.006028098 -0.005588688 -0.004733562 -0.003496716 -0.002745062 1000
lala 21 0.075 0 second 3 1 259 5 5.1875 0.199998140335083 -1 1 -1 1 0.003317034 0.003878617 0.00430068 0.005147946 0.004884603 1000 0.003317034 0.003878617 0.00430068 0.005147946 0.004884603 1000 0.00708214 0.006411915 0.006178757 0.00615432 0.006581537 1000 0.00708214 0.006411915 0.006178757 0.00615432 0.006581537 1000
lala 22 0.075 0 first 3 1 260 5 5.262499 0.199998140335083 -1 1 -1 1 0.00582548 0.006980817 0.00805967 1000 1000 1000 0.00582548 0.006980817 0.00805967 1000 1000 1000 0.010482 0.01083194 0.01009458 0.009398849 0.009435075 1000 0.010482 0.01083194 0.01009458 0.009398849 0.009435075 1000
lala 20 0.3 0 second 15 1 261 5 3.35 0.539997816085815 0 1 -1 0 0.009899113 0.009417457 0.009490472 0.009675375 0.009462215 1000 0.009899113 0.009417457 0.009490472 0.009675375 0.009462215 1000 0.01017347 0.01045024 0.01048673 0.01063344 0.01015442 1000 0.01017347 0.01045024 0.01048673 0.01063344 0.01015442 1000
lala 17 0.075 1 second 17 1 262 6 4.605001 0.839997529983521 0 1 1 1 0.007626425 0.007343743 0.007945972 0.008844727 0.008247823 1000 0.007626425 0.007343743 0.007945972 0.008844727 0.008247823 1000 0.009033532 0.007691015 0.007410515 0.00754645 0.008419374 1000 0.009033532 0.007691015 0.007410515 0.00754645 0.008419374 1000
lala 16 0.075 1 second 16 1 263 6 4.485 0.359997987747192 0 0 1 1 0.008097579 0.008003282 0.007443077 0.006785608 0.00738671 1000 0.008097579 0.008003282 0.007443077 0.006785608 0.00738671 1000 0.006846391 0.006579189 0.006718443 0.00638466 0.006683974 1000 0.006846391 0.006579189 0.006718443 0.00638466 0.006683974 1000
lala 14 2.4 0 first 5 1 264 6 5.580001 0.359997987747192 -1 1 -1 0 0.006935735 0.006632761 0.006799436 1000 1000 1000 0.006935735 0.006632761 0.006799436 1000 1000 1000 0.006034539 0.006625562 0.006192218 0.00667573 0.006748118 1000 0.006034539 0.006625562 0.006192218 0.00667573 0.006748118 1000
lala 19 0.6 0 first 10 1 265 6 4.11 0.219998121261597 1 0 -1 0 0.006695867 0.007383595 0.007144802 1000 1000 1000 0.006695867 0.007383595 0.007144802 1000 1000 1000 0.006760648 0.007860144 0.008555528 0.008205073 0.007047812 1000 0.006760648 0.007860144 0.008555528 0.008205073 0.007047812 1000
lala 12 0.15 1 second 14 1 266 5 3.75 0.39999794960022 0 0 1 1 0.008335003 0.007633848 0.007762635 0.008379347 0.008292996 1000 0.008335003 0.007633848 0.007762635 0.008379347 0.008292996 1000 0.01083465 0.01121274 0.01177583 0.01184459 0.01199499 1000 0.01083465 0.01121274 0.01177583 0.01184459 0.01199499 1000
lala 11 0.6 0 first 4 1 267 6 5.16 0.299998044967651 -1 0 -1 1 0.01373279 0.01456338 0.01537225 1000 1000 1000 0.01373279 0.01456338 0.01537225 1000 1000 1000 0.02140252 0.02093827 0.0202026 0.01965015 0.01911392 1000 0.02140252 0.02093827 0.0202026 0.01965015 0.01911392 1000
lala 18 0.01875 1 first 12 1 268 4 3.37125 0.219998121261597 0 0 1 1 0.01680499 0.01676511 0.01627363 1000 1000 1000 0.01680499 0.01676511 0.01627363 1000 1000 1000 0.01280889 0.01297137 0.01391986 0.01409245 0.01378063 1000 0.01280889 0.01297137 0.01391986 0.01409245 0.01378063 1000
lala 13 0.075 1 first 14 1 269 5 3.675 0.299998044967651 0 0 1 1 0.01417826 0.01389038 0.0144877 1000 1000 1000 0.01417826 0.01389038 0.0144877 1000 1000 1000 0.01537837 0.01506361 0.01457061 0.01457761 0.01471647 1000 0.01537837 0.01506361 0.01457061 0.01457761 0.01471647 1000
lala 18 0.3 0 first 8 1 270 5 4.65 0.119998216629028 1 0 -1 1 0.01409566 0.01401464 0.01349605 1000 1000 1000 0.01409566 0.01401464 0.01349605 1000 1000 1000 0.01385963 0.01415197 0.01324802 0.01259449 0.01307924 1000 0.01385963 0.01415197 0.01324802 0.01259449 0.01307924 1000
lala 18 0.0375 1 second 17 1 271 6 4.567502 0.179998159408569 0 1 1 0 0.01355666 0.01262141 0.01194789 0.01133488 0.01122326 1000 0.01355666 0.01262141 0.01194789 0.01133488 0.01122326 1000 0.01198673 0.01204669 0.01237759 0.01246794 0.01201878 1000 0.01198673 0.01204669 0.01237759 0.01246794 0.01201878 1000
lala 12 0.3 1 first 13 1 272 4 3.82 0.159998178482056 0 1 1 0 0.01215704 0.01190946 0.01146893 1000 1000 1000 0.01215704 0.01190946 0.01146893 1000 1000 1000 0.01124148 0.01077539 0.01061931 0.01098104 0.0109662 1000 0.01124148 0.01077539 0.01061931 0.01098104 0.0109662 1000
lala 9 1.2 1 second 0 1 273 4 7.44 0.219998121261597 -1 0 1 0 0.01089557 0.01063816 0.01031316 0.01048595 0.01053319 1000 0.01089557 0.01063816 0.01031316 0.01048595 0.01053319 1000 0.01130133 0.01133665 0.01126681 0.01040904 0.0101405 1000 0.01130133 0.01133665 0.01126681 0.01040904 0.0101405 1000
lala 10 1.2 1 first 2 1 274 5 4.5 0.639997720718384 -1 0 1 0 0.009866502 0.01002412 0.01062321 1000 1000 1000 0.009866502 0.01002412 0.01062321 1000 1000 1000 0.008671447 0.00961088 0.009179899 0.009365116 0.009285076 1000 0.008671447 0.00961088 0.009179899 0.009365116 0.009285076 1000
lala 15 1.2 0 first 5 1 275 6 6.780001 0.339998006820679 -1 1 -1 0 0.008857745 0.008683651 0.008448984 1000 1000 1000 0.008857745 0.008683651 0.008448984 1000 1000 1000 0.007168747 0.007342418 0.00722081 0.006892873 0.007989965 1000 0.007168747 0.007342418 0.00722081 0.006892873 0.007989965 1000
lala 9 1.2 1 second 7 1 276 4 5.32 0.159998178482056 1 1 1 1 0.007980107 0.008122969 0.008858671 0.008141336 0.007425005 1000 0.007980107 0.008122969 0.008858671 0.008141336 0.007425005 1000 0.00757634 0.007222435 0.007685414 0.007840532 0.007465182 1000 0.00757634 0.007222435 0.007685414 0.007840532 0.007465182 1000
lala 16 1.2 1 first 5 1 277 6 7.98 0.299998044967651 -1 1 1 0 0.007144419 0.008870929 0.008949728 1000 1000 1000 0.007144419 0.008870929 0.008949728 1000 1000 1000 0.005621132 0.005748845 0.006172642 0.006655314 0.006293566 1000 0.005621132 0.005748845 0.006172642 0.006655314 0.006293566 1000
lala 17 0.0375 0 second 1 1 278 4 4.720001 0.359997987747192 -1 1 -1 0 0.005430582 0.005370885 0.005183882 0.005158319 0.005438793 1000 0.005430582 0.005370885 0.005183882 0.005158319 0.005438793 1000 0.005807583 0.006515125 0.006047415 0.005218714 0.005064531 1000 0.005807583 0.006515125 0.006047415 0.005218714 0.005064531 1000
lala 10 0.6 1 first 0 1 279 4 6.84 0.159998178482056 -1 0 1 1 0.005459303 0.00533123 0.006518551 1000 1000 1000 0.005459303 0.00533123 0.006518551 1000 1000 1000 0.001900754 0.001601207 0.001455858 0.001476724 0.0006881928 1000 0.001900754 0.001601207 0.001455858 0.001476724 0.0006881928 1000
lala 11 0.6 1 first 0 1 280 4 6.24 0.319998025894165 -1 0 1 1 -0.001162462 -0.0009307781 -0.001500712 1000 1000 1000 -0.001162462 -0.0009307781 -0.001500712 1000 1000 1000 -0.001448847 -0.001810056 -0.002271475 -0.002093569 -0.002602778 1000 -0.001448847 -0.001810056 -0.002271475 -0.002093569 -0.002602778 1000
lala 11 2.4 0 first 2 1 281 5 2.1 0.199998140335083 -1 0 -1 0 -0.002850413 -0.002524448 -0.002315207 1000 1000 1000 -0.002850413 -0.002524448 -0.002315207 1000 1000 1000 -0.004284652 -0.003911843 -0.003766524 -0.003871085 -0.00445349 1000 -0.004284652 -0.003911843 -0.003766524 -0.003871085 -0.00445349 1000
lala 17 0.0375 1 second 16 1 282 6 4.4475 0.299998044967651 0 0 1 1 -0.004244875 -0.004418471 -0.003783801 -0.003164761 -0.003863323 1000 -0.004244875 -0.004418471 -0.003783801 -0.003164761 -0.003863323 1000 -0.003689199 -0.003835235 -0.003521405 -0.003211338 -0.002548384 1000 -0.003689199 -0.003835235 -0.003521405 -0.003211338 -0.002548384 1000
lala 18 0.0375 0 second 16 1 283 6 4.41 0.419997930526733 0 0 -1 0 -0.005032822 -0.004716651 -0.00494522 -0.005106368 -0.005369693 1000 -0.005032822 -0.004716651 -0.00494522 -0.005106368 -0.005369693 1000 -0.005235004 -0.005071328 -0.004246093 -0.004391737 -0.004365516 1000 -0.005235004 -0.005071328 -0.004246093 -0.004391737 -0.004365516 1000
lala 19 0.01875 0 second 12 1 284 4 3.3525 0.339998006820679 0 0 -1 1 -0.009211404 -0.01127897 -0.01178334 -0.01230702 -0.01199377 1000 -0.009211404 -0.01127897 -0.01178334 -0.01230702 -0.01199377 1000 -0.009198679 -0.009098784 -0.008465284 -0.008182793 -0.008220057 1000 -0.009198679 -0.009098784 -0.008465284 -0.008182793 -0.008220057 1000
lala 12 1.2 0 second 2 1 285 5 3.3 0.359997987747192 -1 0 -1 0 -0.007906453 -0.008314556 -0.009287112 -0.009632887 -0.01007364 1000 -0.007906453 -0.008314556 -0.009287112 -0.009632887 -0.01007364 1000 -0.009420896 -0.008970229 -0.008926007 -0.008287445 -0.008304102 1000 -0.009420896 -0.008970229 -0.008926007 -0.008287445 -0.008304102 1000
lala 17 0.6 0 first 5 1 286 6 7.380001 0.259998083114624 -1 1 -1 1 -0.008266899 -0.008993471 -0.009328662 1000 1000 1000 -0.008266899 -0.008993471 -0.009328662 1000 1000 1000 -0.00893474 -0.0085969 -0.008517614 -0.008850136 -0.009108337 1000 -0.00893474 -0.0085969 -0.008517614 -0.008850136 -0.009108337 1000
lala 13 1.2 0 second 2 1 287 5 4.5 0.259998083114624 -1 0 -1 1 -0.009423671 -0.008200129 -0.008817452 -0.008683215 -0.007830125 1000 -0.009423671 -0.008200129 -0.008817452 -0.008683215 -0.007830125 1000 -0.009231549 -0.008883154 -0.008084903 -0.007372274 -0.007806464 1000 -0.009231549 -0.008883154 -0.008084903 -0.007372274 -0.007806464 1000
lala 28 0.0002929688 0 first 6 1 288 4 4.358116 0.879997491836548 1 0 -1 0 -0.007814825 -0.00785879 -0.008976013 1000 1000 1000 -0.007814825 -0.00785879 -0.008976013 1000 1000 1000 -0.01015817 -0.01016527 -0.00963061 -0.009390543 -0.009710545 1000 -0.01015817 -0.01016527 -0.00963061 -0.009390543 -0.009710545 1000
lala 13 0.15 1 first 13 1 289 4 3.67 0.799997568130493 0 1 1 1 -0.01132947 -0.009981181 -0.01136048 1000 1000 1000 -0.01132947 -0.009981181 -0.01136048 1000 1000 1000 -0.0104896 -0.0113391 -0.01145692 -0.01122973 -0.01139784 1000 -0.0104896 -0.0113391 -0.01145692 -0.01122973 -0.01139784 1000
lala 10 0.6 1 first 7 1 290 4 4.72 0.539997816085815 1 1 1 1 -0.01272584 -0.01187402 -0.01176734 1000 1000 1000 -0.01272584 -0.01187402 -0.01176734 1000 1000 1000 -0.01327325 -0.01263158 -0.01369755 -0.01642262 -0.01737119 1000 -0.01327325 -0.01263158 -0.01369755 -0.01642262 -0.01737119 1000
lala 20 0.009375 0 second 12 1 291 4 3.361875 0.419997930526733 0 0 -1 0 -0.01832579 -0.01841482 -0.01871336 -0.02035368 -0.02060102 1000 -0.01832579 -0.01841482 -0.01871336 -0.02035368 -0.02060102 1000 -0.02048806 -0.02028797 -0.01926005 -0.01798061 -0.01756669 1000 -0.02048806 -0.02028797 -0.01926005 -0.01798061 -0.01756669 1000
lala 19 0.3 1 second 8 1 292 5 4.95 0.159998178482056 1 0 1 0 -0.01262011 -0.01227838 -0.01361205 -0.01377494 -0.01314811 1000 -0.01262011 -0.01227838 -0.01361205 -0.01377494 -0.01314811 1000 -0.01256162 -0.01228828 -0.01213266 -0.0123445 -0.01226041 1000 -0.01256162 -0.01228828 -0.01213266 -0.0123445 -0.01226041 1000
lala 14 0.075 1 first 14 1 293 5 3.6 0.0999982357025146 0 0 1 0 -0.01147507 -0.01154621 -0.01149821 1000 1000 1000 -0.01147507 -0.01154621 -0.01149821 1000 1000 1000 -0.01289574 -0.01265518 -0.01261264 -0.0125673 -0.01278594 1000 -0.01289574 -0.01265518 -0.01261264 -0.0125673 -0.01278594 1000
lala 29 0.0001464844 0 second 6 1 294 4 4.358263 0.279998064041138 1 0 -1 0 -0.01131748 -0.009838331 -0.008923336 -0.007538205 -0.007679342 1000 -0.01131748 -0.009838331 -0.008923336 -0.007538205 -0.007679342 1000 -0.008467763 -0.009195996 -0.009327663 -0.009155831 -0.008361318 1000 -0.008467763 -0.009195996 -0.009327663 -0.009155831 -0.008361318 1000
lala 21 0.009375 0 second 12 1 295 4 3.37125 0.899997472763062 0 0 -1 1 -0.01042349 -0.01044114 -0.01016996 -0.009882844 -0.009179392 1000 -0.01042349 -0.01044114 -0.01016996 -0.009882844 -0.009179392 1000 -0.01057117 -0.01072369 -0.01089207 -0.01100623 -0.01088867 1000 -0.01057117 -0.01072369 -0.01089207 -0.01100623 -0.01088867 1000
lala 15 0.075 0 second 14 1 296 5 3.525 0.479997873306274 0 0 -1 0 -0.009987454 -0.009956186 -0.009877552 -0.009941963 -0.01037171 1000 -0.009987454 -0.009956186 -0.009877552 -0.009941963 -0.01037171 1000 -0.01035116 -0.01036507 -0.01024959 -0.01022832 -0.01002466 1000 -0.01035116 -0.01036507 -0.01024959 -0.01022832 -0.01002466 1000
lala 14 1.2 1 second 2 1 297 5 5.7 0.179998159408569 -1 0 1 1 -0.01115439 -0.01086597 -0.01076154 -0.01117854 -0.0119082 1000 -0.01115439 -0.01086597 -0.01076154 -0.01117854 -0.0119082 1000 -0.008452961 -0.008773227 -0.008945796 -0.008428541 -0.008320145 1000 -0.008452961 -0.008773227 -0.008945796 -0.008428541 -0.008320145 1000
lala 12 0.6 0 first 4 1 298 6 5.76 0.39999794960022 -1 0 -1 0 -0.007969957 -0.007921469 -0.0078594 1000 1000 1000 -0.007969957 -0.007921469 -0.0078594 1000 1000 1000 -0.00591729 -0.005739471 -0.005942216 -0.00557538 -0.005417207 1000 -0.00591729 -0.005739471 -0.005942216 -0.00557538 -0.005417207 1000
lala 20 0.3 0 first 10 1 299 6 4.41 0.259998083114624 1 0 -1 1 -0.005840874 -0.006083712 -0.006136168 1000 1000 1000 -0.005840874 -0.006083712 -0.006136168 1000 1000 1000 -0.006918691 -0.007300531 -0.007582067 -0.007854365 -0.008210937 1000 -0.006918691 -0.007300531 -0.007582067 -0.007854365 -0.008210937 1000
lala 14 0.15 0 first 9 1 300 5 4.1 0.679997682571411 1 1 -1 0 -0.01980332 -0.01652103 -0.0134787 -0.01213441 -0.01256747 -0.01194227 -0.01980332 -0.01652103 -0.0134787 -0.01213441 -0.01256747 -0.01194227 -0.009268601 -0.009281832 -0.009463402 -0.009671376 -0.009741581 1000 -0.009268601 -0.009281832 -0.009463402 -0.009671376 -0.009741581 1000
lala 21 0.3 0 first 10 1 301 6 4.710001 0.339998006820679 1 0 -1 0 -0.01042215 -0.01015928 -0.01047679 1000 1000 1000 -0.01042215 -0.01015928 -0.01047679 1000 1000 1000 -0.009842481 -0.009597996 -0.009732832 -0.01004099 -0.00994644 1000 -0.009842481 -0.009597996 -0.009732832 -0.01004099 -0.00994644 1000
lala 20 0.15 1 first 8 1 302 5 4.8 0.219998121261597 1 0 1 0 -0.008497189 -0.007108558 -0.006772202 1000 1000 1000 -0.008497189 -0.007108558 -0.006772202 1000 1000 1000 -0.006969093 -0.006409721 -0.006327358 -0.007011189 -0.007198709 1000 -0.006969093 -0.006409721 -0.006327358 -0.007011189 -0.007198709 1000
lala 21 0.15 1 first 8 1 303 5 4.65 0.199998140335083 1 0 1 1 -0.005562403 -0.006906217 -0.008977519 1000 1000 1000 -0.005562403 -0.006906217 -0.008977519 1000 1000 1000 -0.003686621 -0.002667413 -0.001953787 -0.002018675 -0.002887899 1000 -0.003686621 -0.002667413 -0.001953787 -0.002018675 -0.002887899 1000
lala 18 0.3 1 first 5 1 304 6 7.680001 0.219998121261597 -1 1 1 0 -0.003391715 -0.003705583 -0.003947486 1000 1000 1000 -0.003391715 -0.003705583 -0.003947486 1000 1000 1000 -0.004150737 -0.004554599 -0.004454612 -0.004184604 -0.003883254 1000 -0.004150737 -0.004554599 -0.004454612 -0.004184604 -0.003883254 1000
lala 23 0.075 0 first 3 1 305 5 5.337499 0.499997854232788 -1 1 -1 0 -0.004894584 -0.005006808 -0.005191111 1000 1000 1000 -0.004894584 -0.005006808 -0.005191111 1000 1000 1000 -0.004764732 -0.004825457 -0.00546333 -0.005809282 -0.00538477 1000 -0.004764732 -0.004825457 -0.00546333 -0.005809282 -0.00538477 1000
lala 11 0.6 1 second 11 1 306 6 6.180001 0.299998044967651 1 1 1 0 -0.006046796 -0.006561994 -0.006778478 -0.006051516 -0.005691381 1000 -0.006046796 -0.006561994 -0.006778478 -0.006051516 -0.005691381 1000 -0.007922672 -0.007412105 -0.007137818 -0.006895524 -0.007386133 1000 -0.007922672 -0.007412105 -0.007137818 -0.006895524 -0.007386133 1000
lala 21 0.3 1 first 15 1 307 5 3.65 0.219998121261597 0 1 1 0 -0.006986545 -0.006015969 -0.005532642 1000 1000 1000 -0.006986545 -0.006015969 -0.005532642 1000 1000 1000 -0.006323765 -0.006024512 -0.00614641 -0.005729621 -0.006379746 1000 -0.006323765 -0.006024512 -0.00614641 -0.005729621 -0.006379746 1000
lala 12 0.6 1 second 11 1 308 6 5.580001 0.979997396469116 1 1 1 1 -0.005173447 -0.005601881 -0.005650036 -0.0056778 -0.005362264 1000 -0.005173447 -0.005601881 -0.005650036 -0.0056778 -0.005362264 1000 -0.005418234 -0.006142787 -0.006330704 -0.006693187 -0.006609818 1000 -0.005418234 -0.006142787 -0.006330704 -0.006693187 -0.006609818 1000
lala 11 0.6 0 second 7 1 309 4 4.12 0.419997930526733 1 1 -1 0 0.002095657 0.002527116 0.001024504 -0.0009079548 -0.00143326 1000 0.002095657 0.002527116 0.001024504 -0.0009079548 -0.00143326 1000 -0.004254557 -0.003589519 -0.003500579 -0.003529802 -0.003897606 1000 -0.004254557 -0.003589519 -0.003500579 -0.003529802 -0.003897606 1000
lala 13 0.6 1 second 11 1 310 6 4.980001 0.359997987747192 1 1 1 1 -0.009374466 -0.009499603 -0.008547854 -0.006946322 -0.006532559 1000 -0.009374466 -0.009499603 -0.008547854 -0.006946322 -0.006532559 1000 -0.003389359 -0.005573182 -0.006439325 -0.005604682 -0.004619985 1000 -0.003389359 -0.005573182 -0.006439325 -0.005604682 -0.004619985 1000
lala 22 0.009375 0 first 12 1 311 4 3.380625 0.339998006820679 0 0 -1 0 -0.01305905 -0.01731703 -0.01865434 1000 1000 1000 -0.01305905 -0.01731703 -0.01865434 1000 1000 1000 -0.008490419 -0.007172026 -0.006395176 -0.005833688 -0.005268134 1000 -0.008490419 -0.007172026 -0.006395176 -0.005833688 -0.005268134 1000
lala 19 0.01875 1 second 16 1 312 6 4.428751 0.23999810218811 0 0 1 0 -0.0009213148 -0.001305283 -0.001202819 -0.0004423589 -0.0002285215 1000 -0.0009213148 -0.001305283 -0.001202819 -0.0004423589 -0.0002285215 1000 -0.002895748 -0.002787215 -0.002749054 -0.002438484 -0.002198951 1000 -0.002895748 -0.002787215 -0.002749054 -0.002438484 -0.002198951 1000
lala 20 0.009375 1 first 16 1 313 6 4.419375 0.219998121261597 0 0 1 1 -0.002098241 -0.001843296 -0.002180685 1000 1000 1000 -0.002098241 -0.001843296 -0.002180685 1000 1000 1000 -0.003714419 -0.004395481 -0.004702284 -0.004392354 -0.004235226 1000 -0.003714419 -0.004395481 -0.004702284 -0.004392354 -0.004235226 1000
lala 24 0.15 0 first 3 1 314 5 5.487499 0.23999810218811 -1 1 -1 0 -0.003893246 -0.003836138 -0.004328673 1000 1000 1000 -0.003893246 -0.003836138 -0.004328673 1000 1000 1000 -0.004328726 -0.004242323 -0.004218306 -0.004450814 -0.004592865 1000 -0.004328726 -0.004242323 -0.004218306 -0.004450814 -0.004592865 1000
lala 22 0.3 1 second 10 1 315 6 5.010001 0.0999982357025146 1 0 1 0 -0.003824609 -0.00441167 -0.005413115 -0.00664932 -0.007124083 1000 -0.003824609 -0.00441167 -0.005413115 -0.00664932 -0.007124083 1000 -0.01592941 -0.01556416 -0.01465561 -0.01389044 -0.01385255 1000 -0.01592941 -0.01556416 -0.01465561 -0.01389044 -0.01385255 1000
lala 12 0.3 0 first 7 1 316 4 4.42 0.079998254776001 1 1 -1 0 -0.01191396 -0.01157522 -0.01094929 1000 1000 1000 -0.01191396 -0.01157522 -0.01094929 1000 1000 1000 -0.004316211 -0.004503706 -0.004695922 -0.004625353 -0.004015031 1000 -0.004316211 -0.004503706 -0.004695922 -0.004625353 -0.004015031 1000
lala 25 0.3 0 second 3 1 317 5 5.787499 0.23999810218811 -1 1 -1 1 -0.003575513 -0.003731294 -0.004001639 -0.004165208 -0.0043755 1000 -0.003575513 -0.003731294 -0.004001639 -0.004165208 -0.0043755 1000 -0.003746707 -0.003708438 -0.00327571 -0.003398781 -0.003639216 1000 -0.003746707 -0.003708438 -0.00327571 -0.003398781 -0.003639216 1000
lala 14 0.15 0 second 13 1 318 4 3.52 0.279998064041138 0 1 -1 0 -0.003617395 -0.004051807 -0.003786126 -0.003983235 -0.004009892 1000 -0.003617395 -0.004051807 -0.003786126 -0.003983235 -0.004009892 1000 -0.004079779 -0.003925697 -0.003712341 -0.003715922 -0.003547824 1000 -0.004079779 -0.003925697 -0.003712341 -0.003715922 -0.003547824 1000
lala 22 0.15 1 second 8 1 319 5 4.5 0.119998216629028 1 0 1 1 -0.003868876 -0.003940705 -0.003748421 -0.003602304 -0.003721701 1000 -0.003868876 -0.003940705 -0.003748421 -0.003602304 -0.003721701 1000 -0.002796163 -0.002894841 -0.002838227 -0.002585737 -0.002422523 1000 -0.002796163 -0.002894841 -0.002838227 -0.002585737 -0.002422523 1000
lala 23 0.01875 1 first 12 1 320 4 3.399375 0.23999810218811 0 0 1 1 -0.002261981 -0.002172027 -0.001901949 1000 1000 1000 -0.002261981 -0.002172027 -0.001901949 1000 1000 1000 -0.002975588 -0.002710888 -0.001411309 0.0001044053 -0.0002357441 1000 -0.002975588 -0.002710888 -0.001411309 0.0001044053 -0.0002357441 1000
lala 14 1.2 0 second 11 1 321 6 3.780001 0.219998121261597 1 1 -1 1 -0.00345898 -0.003291923 -0.003207844 -0.003883254 -0.004091828 1000 -0.00345898 -0.003291923 -0.003207844 -0.003883254 -0.004091828 1000 -0.003219788 -0.003376893 -0.003549752 -0.003454845 -0.003629221 1000 -0.003219788 -0.003376893 -0.003549752 -0.003454845 -0.003629221 1000
lala 16 0.0375 0 second 14 1 322 5 3.5625 0.159998178482056 0 0 -1 1 -0.002865563 -0.002809471 -0.003017008 -0.00324613 -0.003691493 1000 -0.002865563 -0.002809471 -0.003017008 -0.00324613 -0.003691493 1000 -0.003052261 -0.002686948 -0.002135159 -0.002152978 -0.002507269 1000 -0.003052261 -0.002686948 -0.002135159 -0.002152978 -0.002507269 1000
