subject PestNr Step_Size_OnTrial Pest_Faster Pest_Interval Condition block trial velH velH_Pest Reaction_Time velH_Subject Start_Above Response_MotionEstimation RightOrLeftxRotations_first0 xRotations_first1 xRotations_first2 xRotations_first3 xRotations_first4 xRotations_first5 yRotations_first0 yRotations_first1 yRotations_first2 yRotations_first3 yRotations_first4 yRotations_first5 xRotations_second0 xRotations_second1 xRotations_second2 xRotations_second3 xRotations_second4 xRotations_second5 yRotations_second0 yRotations_second1 yRotations_second2 yRotations_second3 yRotations_second4 yRotations_second5
lala 1 1.2 0 first 2 1 1 5 3.3 0.799997568130493 -1 0 -1 1 -0.008761396 -0.006429635 -0.005316791 -0.005702856 -0.01058525 -0.01401672 -0.008761396 -0.006429635 -0.005316791 -0.005702856 -0.01058525 -0.01401672 -0.01474813 -0.0146983 -0.01481225 -0.01524947 -0.01516458 1000 -0.01474813 -0.0146983 -0.01481225 -0.01524947 -0.01516458 1000
lala 1 1.2 1 second 9 1 2 5 6.65 0.39999794960022 1 1 1 1 -0.001900168 -0.005675525 -0.007141867 -0.006520112 -0.006329197 1000 -0.001900168 -0.005675525 -0.007141867 -0.006520112 -0.006329197 1000 -0.008912754 -0.008926432 -0.008951567 -0.008546872 -0.008458765 1000 -0.008912754 -0.008926432 -0.008951567 -0.008546872 -0.008458765 1000
lala 1 1.2 0 first 0 1 3 4 2.64 0.219998121261597 -1 0 -1 1 -0.009519066 -0.008708559 -0.009351936 1000 1000 1000 -0.009519066 -0.008708559 -0.009351936 1000 1000 1000 -0.01107653 -0.01141265 -0.01182008 -0.01103786 -0.01036535 1000 -0.01107653 -0.01141265 -0.01182008 -0.01103786 -0.01036535 1000
lala 1 1.2 0 first 6 1 4 4 2.64 0.959997415542603 1 0 -1 1 -0.01223366 -0.01278106 -0.01243988 1000 1000 1000 -0.01223366 -0.01278106 -0.01243988 1000 1000 1000 -0.01990049 -0.02086012 -0.02032426 -0.02028724 -0.01911945 1000 -0.01990049 -0.02086012 -0.02032426 -0.02028724 -0.01911945 1000
lala 1 1.2 0 second 1 1 5 4 5.32 0.959997415542603 -1 1 -1 1 -0.01621614 -0.01565279 -0.01505786 -0.01514514 -0.01545649 1000 -0.01621614 -0.01565279 -0.01505786 -0.01514514 -0.01545649 1000 -0.01796878 -0.01811542 -0.0177106 -0.01745605 -0.0174255 1000 -0.01796878 -0.01811542 -0.0177106 -0.01745605 -0.0174255 1000
lala 1 1.2 0 first 10 1 6 6 3.96 1.03999733924866 1 0 -1 0 -0.02030222 -0.02072224 -0.02105902 1000 1000 1000 -0.02030222 -0.02072224 -0.02105902 1000 1000 1000 -0.01976224 -0.01992995 -0.02037936 -0.01974033 -0.01997148 1000 -0.01976224 -0.01992995 -0.02037936 -0.01974033 -0.01997148 1000
lala 2 1.2 1 first 1 1 7 4 6.52 0.339998006820679 -1 1 1 0 -0.02027804 -0.02607675 -0.02524418 1000 1000 1000 -0.02027804 -0.02607675 -0.02524418 1000 1000 1000 -0.0185887 -0.01871411 -0.01876299 -0.0193231 -0.01943686 1000 -0.0185887 -0.01871411 -0.01876299 -0.0193231 -0.01943686 1000
lala 2 1.2 0 first 0 1 8 4 3.84 0.679997682571411 -1 0 -1 1 -0.01940845 -0.020066 -0.0206372 1000 1000 1000 -0.01940845 -0.020066 -0.0206372 1000 1000 1000 -0.02096475 -0.02256125 -0.02302107 -0.02207045 -0.02165967 1000 -0.02096475 -0.02256125 -0.02302107 -0.02207045 -0.02165967 1000
lala 1 1.2 1 first 11 1 9 6 7.98 0.539997816085815 1 1 1 0 -0.02111249 -0.02028462 -0.01781132 1000 1000 1000 -0.02111249 -0.02028462 -0.01781132 1000 1000 1000 -0.01982109 -0.01985282 -0.02024415 -0.01905506 -0.01869464 1000 -0.01982109 -0.01985282 -0.02024415 -0.01905506 -0.01869464 1000
lala 2 1.2 0 first 2 1 10 5 4.5 1.03999733924866 -1 0 -1 0 -0.01924953 -0.01907332 -0.01960714 1000 1000 1000 -0.01924953 -0.01907332 -0.01960714 1000 1000 1000 -0.020633 -0.02125323 -0.02138669 -0.02001115 -0.01946192 1000 -0.020633 -0.02125323 -0.02138669 -0.02001115 -0.01946192 1000
lala 1 1.2 1 second 17 1 11 6 7.98 0.339998006820679 0 1 1 0 -0.02238537 -0.0231526 -0.02494831 -0.02614772 -0.02531715 1000 -0.02238537 -0.0231526 -0.02494831 -0.02614772 -0.02531715 1000 -0.0210836 -0.0213096 -0.02206706 -0.02223389 -0.02218978 1000 -0.0210836 -0.0213096 -0.02206706 -0.02223389 -0.02218978 1000
lala 1 1.2 0 second 13 1 12 4 5.32 1.29999709129334 0 1 -1 0 -0.02434455 -0.02455384 -0.0233474 -0.02251759 -0.02231744 1000 -0.02434455 -0.02455384 -0.0233474 -0.02251759 -0.02231744 1000 -0.02243364 -0.02257076 -0.02237073 -0.02283722 -0.02312129 1000 -0.02243364 -0.02257076 -0.02237073 -0.02283722 -0.02312129 1000
lala 1 1.2 0 first 8 1 13 5 3.3 1.41999697685242 1 0 -1 1 -0.02175056 -0.02157159 -0.02190172 1000 1000 1000 -0.02175056 -0.02157159 -0.02190172 1000 1000 1000 -0.02296482 -0.02240728 -0.02375437 -0.02545618 -0.02503721 1000 -0.02296482 -0.02240728 -0.02375437 -0.02545618 -0.02503721 1000
lala 1 1.2 1 first 3 1 14 5 6.65 0.079998254776001 -1 1 1 1 -0.01992149 -0.01976469 -0.02032134 1000 1000 1000 -0.01992149 -0.01976469 -0.02032134 1000 1000 1000 -0.01983422 -0.01973936 -0.01914428 -0.01888214 -0.01915251 1000 -0.01983422 -0.01973936 -0.01914428 -0.01888214 -0.01915251 1000
lala 2 1.2 1 first 6 1 15 4 3.84 3.15999555587769 1 0 1 1 -0.01926959 -0.01968693 -0.01976822 1000 1000 1000 -0.01926959 -0.01968693 -0.01976822 1000 1000 1000 -0.01823982 -0.0175333 -0.01792407 -0.01890625 -0.01909116 1000 -0.01823982 -0.0175333 -0.01792407 -0.01890625 -0.01909116 1000
lala 2 1.2 1 second 10 1 16 6 5.16 0.839997529983521 1 0 1 0 -0.02011875 -0.01944712 -0.01983979 -0.02067737 -0.02042278 1000 -0.02011875 -0.01944712 -0.01983979 -0.02067737 -0.02042278 1000 -0.01966531 -0.02017484 -0.01988189 -0.01991922 -0.01942095 1000 -0.01966531 -0.02017484 -0.01988189 -0.01991922 -0.01942095 1000
lala 1 1.2 1 second 15 1 17 5 6.65 0.519997835159302 0 1 1 1 -0.02018425 -0.02015086 -0.02022747 -0.01972078 -0.01936966 1000 -0.02018425 -0.02015086 -0.02022747 -0.01972078 -0.01936966 1000 -0.02010833 -0.02017752 -0.02035326 -0.02078282 -0.02129569 1000 -0.02010833 -0.02017752 -0.02035326 -0.02078282 -0.02129569 1000
lala 2 1.2 1 second 9 1 18 5 5.45 0.659997701644897 1 1 1 1 -0.01599382 -0.01611771 -0.01731492 -0.017871 -0.01823372 1000 -0.01599382 -0.01611771 -0.01731492 -0.017871 -0.01823372 1000 -0.02017955 -0.01989212 -0.02008926 -0.02008449 -0.02052027 1000 -0.02017955 -0.01989212 -0.02008926 -0.02008449 -0.02052027 1000
lala 2 1.2 1 second 13 1 19 4 6.52 0.439997911453247 0 1 1 0 -0.02246097 -0.02163446 -0.02118366 -0.01993555 -0.01924043 1000 -0.02246097 -0.02163446 -0.02118366 -0.01993555 -0.01924043 1000 -0.02359522 -0.02279205 -0.0212672 -0.01978316 -0.01982885 1000 -0.02359522 -0.02279205 -0.0212672 -0.01978316 -0.01982885 1000
lala 1 1.2 0 second 12 1 20 4 2.64 0.859997510910034 0 0 -1 0 -0.0239943 -0.02343764 -0.02199264 -0.0205637 -0.02040364 1000 -0.0239943 -0.02343764 -0.02199264 -0.0205637 -0.02040364 1000 -0.02090952 -0.02104346 -0.02079745 -0.02108036 -0.02140777 1000 -0.02090952 -0.02104346 -0.02079745 -0.02108036 -0.02140777 1000
lala 2 1.2 0 second 17 1 21 6 6.780001 0.859997510910034 0 1 -1 0 -0.02151209 -0.02233258 -0.02211385 -0.02201117 -0.02126663 1000 -0.02151209 -0.02233258 -0.02211385 -0.02201117 -0.02126663 1000 -0.01968461 -0.01983063 -0.01995694 -0.02028924 -0.02000779 1000 -0.01968461 -0.01983063 -0.01995694 -0.02028924 -0.02000779 1000
lala 3 1.2 1 first 2 1 22 5 5.7 0.819997549057007 -1 0 1 1 -0.02186959 -0.02171506 -0.0215234 1000 1000 1000 -0.02186959 -0.02171506 -0.0215234 1000 1000 1000 -0.02099228 -0.02069697 -0.0210054 -0.02106445 -0.02136057 1000 -0.02099228 -0.02069697 -0.0210054 -0.02106445 -0.02136057 1000
lala 1 1.2 0 first 16 1 23 6 3.96 1.41999697685242 0 0 -1 1 -0.02146734 -0.02123104 -0.02095133 1000 1000 1000 -0.02146734 -0.02123104 -0.02095133 1000 1000 1000 -0.02172102 -0.02235918 -0.0215556 -0.02023608 -0.01968699 1000 -0.02172102 -0.02235918 -0.0215556 -0.02023608 -0.01968699 1000
lala 3 1.2 1 first 1 1 24 4 5.320001 1.27999711036682 -1 1 1 0 -0.02205929 -0.02140372 -0.02123959 1000 1000 1000 -0.02205929 -0.02140372 -0.02123959 1000 1000 1000 -0.02022842 -0.02078631 -0.02094457 -0.02000429 -0.02015796 1000 -0.02022842 -0.02078631 -0.02094457 -0.02000429 -0.02015796 1000
lala 4 1.2 0 second 1 1 25 4 4.120001 1.29999709129334 -1 1 -1 1 -0.0183027 -0.01832686 -0.01738617 -0.0163144 -0.01646349 1000 -0.0183027 -0.01832686 -0.01738617 -0.0163144 -0.01646349 1000 -0.01846417 -0.01862342 -0.01909965 -0.01860568 -0.01840729 1000 -0.01846417 -0.01862342 -0.01909965 -0.01860568 -0.01840729 1000
lala 4 1.2 1 first 2 1 26 5 4.5 1.93999671936035 -1 0 1 0 -0.01809692 -0.01793696 -0.01845383 1000 1000 1000 -0.01809692 -0.01793696 -0.01845383 1000 1000 1000 -0.0177236 -0.01785961 -0.0176353 -0.01770034 -0.01729932 1000 -0.0177236 -0.01785961 -0.0176353 -0.01770034 -0.01729932 1000
lala 2 1.2 1 first 11 1 27 6 6.780001 0.499997854232788 1 1 1 0 -0.01968359 -0.01973933 -0.02025125 1000 1000 1000 -0.01968359 -0.01973933 -0.02025125 1000 1000 1000 -0.02039157 -0.01967555 -0.01998571 -0.02040018 -0.0198727 1000 -0.02039157 -0.01967555 -0.01998571 -0.02040018 -0.0198727 1000
lala 2 1.2 1 second 15 1 28 5 5.45 0.479997873306274 0 1 1 1 -0.02139625 -0.02061192 -0.02034985 -0.02073615 -0.02109579 1000 -0.02139625 -0.02061192 -0.02034985 -0.02073615 -0.02109579 1000 -0.02036054 -0.01990774 -0.01951674 -0.01924277 -0.01963343 1000 -0.02036054 -0.01990774 -0.01951674 -0.01924277 -0.01963343 1000
lala 3 1.2 0 second 0 1 29 4 5.04 2.61999607086182 -1 0 -1 0 -0.01889988 -0.01856696 -0.01883495 -0.02068982 -0.02139308 1000 -0.01889988 -0.01856696 -0.01883495 -0.02068982 -0.02139308 1000 -0.01791671 -0.0189145 -0.01853576 -0.01736816 -0.01762222 1000 -0.01791671 -0.0189145 -0.01853576 -0.01736816 -0.01762222 1000
lala 2 1.2 0 first 16 1 30 6 5.16 0.739997625350952 0 0 -1 1 -0.01922002 -0.02040272 -0.02051678 1000 1000 1000 -0.01922002 -0.02040272 -0.02051678 1000 1000 1000 -0.01696776 -0.01714598 -0.01705149 -0.01650316 -0.01648258 1000 -0.01696776 -0.01714598 -0.01705149 -0.01650316 -0.01648258 1000
lala 2 1.2 0 first 12 1 31 4 3.84 1.75999689102173 0 0 -1 0 -0.01793926 -0.01761747 -0.01724127 1000 1000 1000 -0.01793926 -0.01761747 -0.01724127 1000 1000 1000 -0.0162707 -0.01674047 -0.01676112 -0.01665201 -0.01644526 1000 -0.0162707 -0.01674047 -0.01676112 -0.01665201 -0.01644526 1000
lala 3 1.2 1 first 13 1 32 4 5.320001 0.359997987747192 0 1 1 0 -0.01707409 -0.0166474 -0.0164395 1000 1000 1000 -0.01707409 -0.0166474 -0.0164395 1000 1000 1000 -0.01916248 -0.02073278 -0.02120396 -0.02062714 -0.02029129 1000 -0.01916248 -0.02073278 -0.02120396 -0.02062714 -0.02029129 1000
lala 3 1.2 1 first 9 1 33 5 4.25 0.739997625350952 1 1 1 1 -0.01878681 -0.0169101 -0.01836302 1000 1000 1000 -0.01878681 -0.0169101 -0.01836302 1000 1000 1000 -0.01400043 -0.0119207 -0.01027115 -0.01119204 -0.0134029 1000 -0.01400043 -0.0119207 -0.01027115 -0.01119204 -0.0134029 1000
lala 1 1.2 0 second 4 1 34 6 3.96 0.01999831199646 -1 0 -1 0 -0.01265911 -0.01353651 -0.01344831 -0.0128723 -0.01474495 1000 -0.01265911 -0.01353651 -0.01344831 -0.0128723 -0.01474495 1000 -0.01304753 -0.01220056 -0.0123693 -0.01403524 -0.01393741 1000 -0.01304753 -0.01220056 -0.0123693 -0.01403524 -0.01393741 1000
lala 3 1.2 0 second 15 1 35 5 4.25 0.779997587203979 0 1 -1 0 -0.01318626 -0.01407796 -0.01490784 -0.01479547 -0.01417674 1000 -0.01318626 -0.01407796 -0.01490784 -0.01479547 -0.01417674 1000 -0.01363602 -0.01369242 -0.01325165 -0.01284946 -0.01263426 1000 -0.01363602 -0.01369242 -0.01325165 -0.01284946 -0.01263426 1000
lala 3 1.2 0 second 16 1 36 6 6.36 0.759997606277466 0 0 -1 0 -0.01298485 -0.01294351 -0.0125295 -0.01218412 -0.01267193 1000 -0.01298485 -0.01294351 -0.0125295 -0.01218412 -0.01267193 1000 -0.01244925 -0.01160348 -0.01174311 -0.01221901 -0.01239322 1000 -0.01244925 -0.01160348 -0.01174311 -0.01221901 -0.01239322 1000
lala 3 1.2 1 first 10 1 37 6 3.96 2.85999584197998 1 0 1 1 -0.01444888 -0.01381046 -0.01354822 1000 1000 1000 -0.01444888 -0.01381046 -0.01354822 1000 1000 1000 -0.01358919 -0.01388466 -0.01439413 -0.01396361 -0.01367926 1000 -0.01358919 -0.01388466 -0.01439413 -0.01396361 -0.01367926 1000
lala 2 1.2 1 first 4 1 38 6 5.16 0.479997873306274 -1 0 1 0 -0.01313465 -0.01303444 -0.01342721 1000 1000 1000 -0.01313465 -0.01303444 -0.01342721 1000 1000 1000 -0.01324521 -0.01289002 -0.0131684 -0.01381308 -0.01359851 1000 -0.01324521 -0.01289002 -0.0131684 -0.01381308 -0.01359851 1000
lala 3 1.2 1 first 17 1 39 6 7.98 1.29999709129334 0 1 1 1 -0.01282424 -0.01238318 -0.01287917 1000 1000 1000 -0.01282424 -0.01238318 -0.01287917 1000 1000 1000 -0.01548925 -0.01546219 -0.01502917 -0.01533065 -0.01467898 1000 -0.01548925 -0.01546219 -0.01502917 -0.01533065 -0.01467898 1000
lala 4 1.2 0 second 13 1 40 4 4.120001 0.859997510910034 0 1 -1 0 -0.0129155 -0.01228492 -0.0116118 -0.012633 -0.01273937 1000 -0.0129155 -0.01228492 -0.0116118 -0.012633 -0.01273937 1000 -0.01266933 -0.01200991 -0.01226764 -0.01259907 -0.01277238 1000 -0.01266933 -0.01200991 -0.01226764 -0.01259907 -0.01277238 1000
lala 3 1.2 0 second 4 1 41 6 3.96 0.859997510910034 -1 0 -1 1 -0.009923539 -0.01003026 -0.01061536 -0.01064742 -0.01063997 1000 -0.009923539 -0.01003026 -0.01061536 -0.01064742 -0.01063997 1000 -0.01218742 -0.01279812 -0.01251005 -0.01329534 -0.01393326 1000 -0.01218742 -0.01279812 -0.01251005 -0.01329534 -0.01393326 1000
lala 2 1.2 1 second 8 1 42 5 4.5 1.03999733924866 1 0 1 0 -0.01362879 -0.01459318 -0.01622943 -0.01672586 -0.01662221 1000 -0.01362879 -0.01459318 -0.01622943 -0.01672586 -0.01662221 1000 -0.01827196 -0.01839616 -0.01861425 -0.01857395 -0.01819241 1000 -0.01827196 -0.01839616 -0.01861425 -0.01857395 -0.01819241 1000
lala 4 1.2 1 second 0 1 43 4 6.24 0.599997758865356 -1 0 1 1 -0.01779614 -0.01832571 -0.01752664 -0.01603051 -0.01532796 1000 -0.01779614 -0.01832571 -0.01752664 -0.01603051 -0.01532796 1000 -0.01599322 -0.01573662 -0.01577425 -0.01540277 -0.01507061 1000 -0.01599322 -0.01573662 -0.01577425 -0.01540277 -0.01507061 1000
lala 5 1.2 1 second 13 1 44 4 5.320001 0.39999794960022 0 1 1 1 -0.0161676 -0.01652066 -0.01779077 -0.01750853 -0.01789995 1000 -0.0161676 -0.01652066 -0.01779077 -0.01750853 -0.01789995 1000 -0.01726614 -0.01708493 -0.0169347 -0.01737371 -0.01737184 1000 -0.01726614 -0.01708493 -0.0169347 -0.01737371 -0.01737184 1000
lala 3 1.2 0 second 6 1 45 4 2.64 1.23999714851379 1 0 -1 1 -0.01920776 -0.01910101 -0.01889019 -0.0189133 -0.01857983 1000 -0.01920776 -0.01910101 -0.01889019 -0.0189133 -0.01857983 1000 -0.02008915 -0.0203759 -0.02074646 -0.01973855 -0.01943683 1000 -0.02008915 -0.0203759 -0.02074646 -0.01973855 -0.01943683 1000
lala 4 1.2 0 first 9 1 46 5 3.05 0.979997396469116 1 1 -1 0 -0.01895774 -0.01945337 -0.01981415 1000 1000 1000 -0.01895774 -0.01945337 -0.01981415 1000 1000 1000 -0.01978505 -0.01944133 -0.01897557 -0.01877699 -0.01945331 1000 -0.01978505 -0.01944133 -0.01897557 -0.01877699 -0.01945331 1000
lala 5 1.2 0 second 9 1 47 5 4.25 0.779997587203979 1 1 -1 0 -0.02241538 -0.02125216 -0.0208374 -0.02063593 -0.01983377 1000 -0.02241538 -0.02125216 -0.0208374 -0.02063593 -0.01983377 1000 -0.02069968 -0.02094405 -0.02062447 -0.02082979 -0.02173353 1000 -0.02069968 -0.02094405 -0.02062447 -0.02082979 -0.02173353 1000
lala 4 1.2 1 second 6 1 48 4 3.84 1.13999724388123 1 0 1 0 -0.02217797 -0.02204781 -0.02113446 -0.02133653 -0.02191209 1000 -0.02217797 -0.02204781 -0.02113446 -0.02133653 -0.02191209 1000 -0.02343672 -0.0238237 -0.02352865 -0.0236499 -0.02396413 1000 -0.02343672 -0.0238237 -0.02352865 -0.0236499 -0.02396413 1000
lala 3 1.2 1 second 12 1 49 4 5.04 0.359997987747192 0 0 1 1 -0.02333201 -0.0231763 -0.02376742 -0.02443445 -0.02446008 1000 -0.02333201 -0.0231763 -0.02376742 -0.02443445 -0.02446008 1000 -0.02132101 -0.02065273 -0.0207137 -0.02129392 -0.02191217 1000 -0.02132101 -0.02065273 -0.0207137 -0.02129392 -0.02191217 1000
lala 4 1.2 1 first 12 1 50 4 3.84 0.479997873306274 0 0 1 1 -0.009429563 -0.004937694 -0.007122729 -0.007189772 -0.005668219 -0.00649297 -0.009429563 -0.004937694 -0.007122729 -0.007189772 -0.005668219 -0.00649297 -0.02108379 -0.02176907 -0.02139355 -0.01978799 -0.01888201 1000 -0.02108379 -0.02176907 -0.02139355 -0.01978799 -0.01888201 1000
lala 4 1.2 1 first 16 1 51 6 7.559999 0.39999794960022 0 0 1 0 -0.02128091 -0.02154254 -0.02182886 1000 1000 1000 -0.02128091 -0.02154254 -0.02182886 1000 1000 1000 -0.02262159 -0.02317321 -0.02301084 -0.02217289 -0.02186956 1000 -0.02262159 -0.02317321 -0.02301084 -0.02217289 -0.02186956 1000
lala 1 1.2 1 second 5 1 52 6 7.98 1.87999677658081 -1 1 1 1 -0.0233726 -0.02426944 -0.02460726 -0.024274 -0.02393022 1000 -0.0233726 -0.02426944 -0.02460726 -0.024274 -0.02393022 1000 -0.02347296 -0.02346673 -0.02314759 -0.02312116 -0.02288315 1000 -0.02347296 -0.02346673 -0.02314759 -0.02312116 -0.02288315 1000
lala 6 1.2 0 second 13 1 53 4 4.120001 0.639997720718384 0 1 -1 1 -0.02006922 -0.01995121 -0.02034077 -0.01999206 -0.02056808 1000 -0.02006922 -0.01995121 -0.02034077 -0.01999206 -0.02056808 1000 -0.02172314 -0.022542 -0.02376224 -0.02368947 -0.02322366 1000 -0.02172314 -0.022542 -0.02376224 -0.02368947 -0.02322366 1000
lala 3 1.2 0 first 8 1 54 5 3.3 0.779997587203979 1 0 -1 0 -0.02679016 -0.02627096 -0.02362852 1000 1000 1000 -0.02679016 -0.02627096 -0.02362852 1000 1000 1000 -0.01760748 -0.01647509 -0.01566241 -0.01543713 -0.01598573 1000 -0.01760748 -0.01647509 -0.01566241 -0.01543713 -0.01598573 1000
lala 6 1.2 1 first 9 1 55 5 5.45 0.359997987747192 1 1 1 1 -0.02294337 -0.02206738 -0.02111557 1000 1000 1000 -0.02294337 -0.02206738 -0.02111557 1000 1000 1000 -0.01854416 -0.01815748 -0.01794295 -0.01748277 -0.01781288 1000 -0.01854416 -0.01815748 -0.01794295 -0.01748277 -0.01781288 1000
lala 7 1.2 0 second 13 1 56 4 5.320001 1.55999684333801 0 1 -1 1 -0.0167852 -0.0167976 -0.01711163 -0.01737699 -0.01673298 1000 -0.0167852 -0.0167976 -0.01711163 -0.01737699 -0.01673298 1000 -0.01812961 -0.01806436 -0.01773901 -0.01730853 -0.01752156 1000 -0.01812961 -0.01806436 -0.01773901 -0.01730853 -0.01752156 1000
lala 5 1.2 0 second 12 1 57 4 2.64 1.13999724388123 0 0 -1 1 -0.01552423 -0.01432099 -0.01357938 -0.01269616 -0.0120284 1000 -0.01552423 -0.01432099 -0.01357938 -0.01269616 -0.0120284 1000 -0.01442223 -0.01419733 -0.01458286 -0.01583808 -0.01650496 1000 -0.01442223 -0.01419733 -0.01458286 -0.01583808 -0.01650496 1000
lala 5 1.2 1 first 6 1 58 4 2.64 2.83999586105347 1 0 1 0 -0.0183422 -0.01748253 -0.01542782 1000 1000 1000 -0.0183422 -0.01748253 -0.01542782 1000 1000 1000 -0.01115946 -0.009786312 -0.009092461 -0.008585534 -0.00625845 1000 -0.01115946 -0.009786312 -0.009092461 -0.008585534 -0.00625845 1000
lala 6 1.2 0 first 6 1 59 4 1.44 0.0999982357025146 1 0 -1 1 -0.0067371 -0.006536811 -0.007227451 1000 1000 1000 -0.0067371 -0.006536811 -0.007227451 1000 1000 1000 -0.00863101 -0.008608361 -0.008230969 -0.007956487 -0.007646372 1000 -0.00863101 -0.008608361 -0.008230969 -0.007956487 -0.007646372 1000
lala 4 1.2 1 first 8 1 60 5 4.5 0.61999773979187 1 0 1 0 -0.006993089 -0.00726495 -0.007709208 1000 1000 1000 -0.006993089 -0.00726495 -0.007709208 1000 1000 1000 -0.009209555 -0.00656647 -0.005557273 -0.006005782 -0.006308731 1000 -0.009209555 -0.00656647 -0.005557273 -0.006005782 -0.006308731 1000
lala 7 1.2 0 second 6 1 61 4 2.64 0.919997453689575 1 0 -1 1 -0.006432147 -0.006528289 -0.00612014 -0.006360286 -0.007299839 1000 -0.006432147 -0.006528289 -0.00612014 -0.006360286 -0.007299839 1000 -0.007509297 -0.007628511 -0.006356551 -0.006365774 -0.006330134 1000 -0.007509297 -0.007628511 -0.006356551 -0.006365774 -0.006330134 1000
lala 4 1.2 1 second 17 1 62 6 6.780001 0.499997854232788 0 1 1 1 -0.003966957 -0.004041609 -0.003762853 -0.004357476 -0.004515271 1000 -0.003966957 -0.004041609 -0.003762853 -0.004357476 -0.004515271 1000 -0.003052437 -0.002838064 -0.003188743 -0.003752595 -0.003233341 1000 -0.003052437 -0.002838064 -0.003188743 -0.003752595 -0.003233341 1000
lala 5 1.2 1 second 16 1 63 6 6.36 0.799997568130493 0 0 1 1 -0.005026156 -0.005003375 -0.006046469 -0.008518539 -0.009045177 1000 -0.005026156 -0.005003375 -0.006046469 -0.008518539 -0.009045177 1000 -0.006234002 -0.00679097 -0.006662875 -0.006570801 -0.00685832 1000 -0.006234002 -0.00679097 -0.006662875 -0.006570801 -0.00685832 1000
lala 5 1.2 0 second 8 1 64 5 3.3 0.959997415542603 1 0 -1 1 -0.006757516 -0.006693734 -0.006643618 -0.006634771 -0.006212573 1000 -0.006757516 -0.006693734 -0.006643618 -0.006634771 -0.006212573 1000 -0.005750423 -0.006033542 -0.006567498 -0.00674887 -0.006642362 1000 -0.005750423 -0.006033542 -0.006567498 -0.00674887 -0.006642362 1000
lala 4 1.2 0 second 15 1 65 5 5.45 0.859997510910034 0 1 -1 0 -0.006242821 -0.006309811 -0.006771463 -0.006345243 -0.006626243 1000 -0.006242821 -0.006309811 -0.006771463 -0.006345243 -0.006626243 1000 -0.008634431 -0.008142187 -0.008269938 -0.008103102 -0.007023498 1000 -0.008634431 -0.008142187 -0.008269938 -0.008103102 -0.007023498 1000
lala 4 1.2 0 first 4 1 66 6 5.16 1.01999735832214 -1 0 -1 1 -0.006684774 -0.007325081 -0.007099018 1000 1000 1000 -0.006684774 -0.007325081 -0.007099018 1000 1000 1000 -0.008453855 -0.00890897 -0.008203661 -0.007097573 -0.00687554 1000 -0.008453855 -0.00890897 -0.008203661 -0.007097573 -0.00687554 1000
lala 8 1.2 1 first 6 1 67 4 3.84 2.03999662399292 1 0 1 0 -0.01019877 -0.008314361 -0.007997122 1000 1000 1000 -0.01019877 -0.008314361 -0.007997122 1000 1000 1000 -0.009949966 -0.008410419 -0.006740872 -0.006724219 -0.008142322 1000 -0.009949966 -0.008410419 -0.006740872 -0.006724219 -0.008142322 1000
lala 6 1.2 1 second 16 1 68 6 5.16 1.75999689102173 0 0 1 1 -0.008959901 -0.009301283 -0.008456883 -0.00841596 -0.007650705 1000 -0.008959901 -0.009301283 -0.008456883 -0.00841596 -0.007650705 1000 -0.008435042 -0.008449637 -0.008088684 -0.008217645 -0.009029875 1000 -0.008435042 -0.008449637 -0.008088684 -0.008217645 -0.009029875 1000
lala 2 1.2 1 first 3 1 69 5 5.45 0.99999737739563 -1 1 1 1 -0.00951363 -0.009549148 -0.009383909 1000 1000 1000 -0.00951363 -0.009549148 -0.009383909 1000 1000 1000 -0.0107073 -0.01171204 -0.01228803 -0.01229629 -0.01371988 1000 -0.0107073 -0.01171204 -0.01228803 -0.01229629 -0.01371988 1000
lala 8 1.2 1 first 13 1 70 4 6.52 0.799997568130493 0 1 1 1 -0.008950757 -0.008625223 -0.008586886 1000 1000 1000 -0.008950757 -0.008625223 -0.008586886 1000 1000 1000 -0.01055501 -0.009416809 -0.008983873 -0.008757275 -0.008773777 1000 -0.01055501 -0.009416809 -0.008983873 -0.008757275 -0.008773777 1000
lala 5 1.2 1 first 0 1 71 4 5.04 1.27999711036682 -1 0 1 1 -0.01013023 -0.01061868 -0.01147876 1000 1000 1000 -0.01013023 -0.01061868 -0.01147876 1000 1000 1000 -0.01070272 -0.01094721 -0.01076388 -0.01037711 -0.01028481 1000 -0.01070272 -0.01094721 -0.01076388 -0.01037711 -0.01028481 1000
lala 5 1.2 0 second 1 1 72 4 5.320001 0.459997892379761 -1 1 -1 0 -0.01551185 -0.01349199 -0.01202204 -0.01175998 -0.01261713 1000 -0.01551185 -0.01349199 -0.01202204 -0.01175998 -0.01261713 1000 -0.01307995 -0.01326596 -0.01347359 -0.01426733 -0.0144868 1000 -0.01307995 -0.01326596 -0.01347359 -0.01426733 -0.0144868 1000
lala 6 1.2 1 second 8 1 73 5 4.5 1.99999666213989 1 0 1 1 -0.0143073 -0.01378588 -0.01473278 -0.01486466 -0.01482175 1000 -0.0143073 -0.01378588 -0.01473278 -0.01486466 -0.01482175 1000 -0.01573515 -0.01604783 -0.01621965 -0.0163703 -0.01652987 1000 -0.01573515 -0.01604783 -0.01621965 -0.0163703 -0.01652987 1000
lala 1 1.2 0 first 14 1 74 5 3.3 0.119998216629028 0 0 -1 1 -0.01749431 -0.0170662 -0.0171526 1000 1000 1000 -0.01749431 -0.0170662 -0.0171526 1000 1000 1000 -0.01539564 -0.01555916 -0.0165056 -0.01725865 -0.01616662 1000 -0.01539564 -0.01555916 -0.0165056 -0.01725865 -0.01616662 1000
lala 5 1.2 1 second 15 1 75 5 6.65 0.159998178482056 0 1 1 1 -0.01634114 -0.01629154 -0.01609603 -0.01513382 -0.01595371 1000 -0.01634114 -0.01629154 -0.01609603 -0.01513382 -0.01595371 1000 -0.01636574 -0.01719324 -0.01773916 -0.01778798 -0.01669662 1000 -0.01636574 -0.01719324 -0.01773916 -0.01778798 -0.01669662 1000
lala 9 1.2 0 second 6 1 76 4 2.64 0.519997835159302 1 0 -1 0 -0.01765282 -0.01723215 -0.01678572 -0.01632747 -0.01651907 1000 -0.01765282 -0.01723215 -0.01678572 -0.01632747 -0.01651907 1000 -0.01761368 -0.01843768 -0.01810952 -0.01881097 -0.01973158 1000 -0.01761368 -0.01843768 -0.01810952 -0.01881097 -0.01973158 1000
lala 7 1.2 0 second 8 1 77 5 3.3 0.379997968673706 1 0 -1 1 -0.01898917 -0.01932362 -0.01958465 -0.01896985 -0.01864558 1000 -0.01898917 -0.01932362 -0.01958465 -0.01896985 -0.01864558 1000 -0.0210281 -0.02097454 -0.021025 -0.02117745 -0.02034594 1000 -0.0210281 -0.02097454 -0.021025 -0.02117745 -0.02034594 1000
lala 9 1.2 1 first 13 1 78 4 5.320001 0.319998025894165 0 1 1 1 -0.02178025 -0.02278537 -0.02215131 1000 1000 1000 -0.02178025 -0.02278537 -0.02215131 1000 1000 1000 -0.02212512 -0.02244348 -0.02222428 -0.02231668 -0.02329026 1000 -0.02212512 -0.02244348 -0.02222428 -0.02231668 -0.02329026 1000
lala 7 1.2 0 first 16 1 79 6 3.96 0.479997873306274 0 0 -1 0 -0.02045456 -0.02035983 -0.01808582 1000 1000 1000 -0.02045456 -0.02035983 -0.01808582 1000 1000 1000 -0.02096674 -0.02096491 -0.0209731 -0.02091576 -0.021508 1000 -0.02096674 -0.02096491 -0.0209731 -0.02091576 -0.021508 1000
lala 6 1.2 1 second 12 1 80 4 3.84 0.379997968673706 0 0 1 1 -0.02121009 -0.02113715 -0.0213807 -0.02124128 -0.02054817 1000 -0.02121009 -0.02113715 -0.0213807 -0.02124128 -0.02054817 1000 -0.02241843 -0.02293195 -0.02362343 -0.02374442 -0.02329341 1000 -0.02241843 -0.02293195 -0.02362343 -0.02374442 -0.02329341 1000
lala 7 1.2 0 first 12 1 81 4 2.64 0.119998216629028 0 0 -1 0 -0.02159904 -0.02125852 -0.02188184 1000 1000 1000 -0.02159904 -0.02125852 -0.02188184 1000 1000 1000 -0.02430723 -0.02356492 -0.02197459 -0.02175079 -0.02211716 1000 -0.02430723 -0.02356492 -0.02197459 -0.02175079 -0.02211716 1000
lala 2 1.2 1 second 5 1 82 6 6.780001 0.0399982929229736 -1 1 1 1 -0.02205921 -0.02231569 -0.02221775 -0.02199946 -0.02174583 1000 -0.02205921 -0.02231569 -0.02221775 -0.02199946 -0.02174583 1000 -0.02417787 -0.02426886 -0.02460869 -0.0242487 -0.02421515 1000 -0.02417787 -0.02426886 -0.02460869 -0.0242487 -0.02421515 1000
lala 10 0.6 0 second 6 1 83 4 3.24 0.39999794960022 1 0 -1 0 -0.02287264 -0.02356332 -0.02336471 -0.02292236 -0.02253175 1000 -0.02287264 -0.02356332 -0.02336471 -0.02292236 -0.02253175 1000 -0.02443303 -0.02507926 -0.02588244 -0.025828 -0.02497268 1000 -0.02443303 -0.02507926 -0.02588244 -0.025828 -0.02497268 1000
lala 5 1.2 0 first 2 1 84 5 3.3 0.559997797012329 -1 0 -1 1 -0.02589085 -0.02290438 -0.0208327 1000 1000 1000 -0.02589085 -0.02290438 -0.0208327 1000 1000 1000 -0.01863025 -0.01903238 -0.01981289 -0.02074259 -0.02149067 1000 -0.01863025 -0.01903238 -0.01981289 -0.02074259 -0.02149067 1000
lala 3 1.2 1 second 5 1 85 6 5.580001 0.259998083114624 -1 1 1 0 -0.01979442 -0.01905408 -0.01844272 -0.0185161 -0.01846616 1000 -0.01979442 -0.01905408 -0.01844272 -0.0185161 -0.01846616 1000 -0.02074513 -0.02118661 -0.02129581 -0.02117738 -0.02075244 1000 -0.02074513 -0.02118661 -0.02129581 -0.02117738 -0.02075244 1000
lala 6 1.2 0 first 2 1 86 5 4.5 0.539997816085815 -1 0 -1 0 -0.01947141 -0.01937728 -0.01934185 1000 1000 1000 -0.01947141 -0.01937728 -0.01934185 1000 1000 1000 -0.02110053 -0.02200435 -0.02112757 -0.02057881 -0.02065199 1000 -0.02110053 -0.02200435 -0.02112757 -0.02057881 -0.02065199 1000
lala 5 1.2 1 first 17 1 87 6 5.580001 0.39999794960022 0 1 1 0 -0.02034421 -0.0204192 -0.02043532 1000 1000 1000 -0.02034421 -0.0204192 -0.02043532 1000 1000 1000 -0.02189402 -0.02201546 -0.02239826 -0.02111183 -0.0206722 1000 -0.02189402 -0.02201546 -0.02239826 -0.02111183 -0.0206722 1000
lala 7 1.2 1 second 2 1 88 5 5.7 0.559997797012329 -1 0 1 1 -0.01849639 -0.01907169 -0.01941948 -0.01858018 -0.01826864 1000 -0.01849639 -0.01907169 -0.01941948 -0.01858018 -0.01826864 1000 -0.02115844 -0.02128853 -0.02140425 -0.02157834 -0.02161575 1000 -0.02115844 -0.02128853 -0.02140425 -0.02157834 -0.02161575 1000
lala 3 1.2 0 second 3 1 89 5 4.25 0.379997968673706 -1 1 -1 1 -0.01999032 -0.01965579 -0.01916455 -0.01878544 -0.01932185 1000 -0.01999032 -0.01965579 -0.01916455 -0.01878544 -0.01932185 1000 -0.02109407 -0.02146053 -0.02119219 -0.02094467 -0.02076098 1000 -0.02109407 -0.02146053 -0.02119219 -0.02094467 -0.02076098 1000
lala 1 1.2 1 first 7 1 90 4 5.32 0.899997472763062 1 1 1 0 -0.02169457 -0.02064626 -0.02041782 1000 1000 1000 -0.02169457 -0.02064626 -0.02041782 1000 1000 1000 -0.02093028 -0.02121282 -0.02089431 -0.02105778 -0.02124452 1000 -0.02093028 -0.02121282 -0.02089431 -0.02105778 -0.02124452 1000
lala 3 1.2 1 first 11 1 91 6 5.580001 2.23999643325806 1 1 1 0 -0.02035775 -0.01941041 -0.01940631 1000 1000 1000 -0.02035775 -0.01941041 -0.01940631 1000 1000 1000 -0.02013173 -0.01985125 -0.01998844 -0.01944937 -0.01916751 1000 -0.02013173 -0.01985125 -0.01998844 -0.01944937 -0.01916751 1000
lala 11 0.6 0 first 6 1 92 4 3.84 0.159998178482056 1 0 -1 0 -0.01829321 -0.01855419 -0.01934176 1000 1000 1000 -0.01829321 -0.01855419 -0.01934176 1000 1000 1000 -0.02113419 -0.02128663 -0.02169426 -0.02236629 -0.02182061 1000 -0.02113419 -0.02128663 -0.02169426 -0.02236629 -0.02182061 1000
lala 8 1.2 0 first 2 1 93 5 4.5 0.419997930526733 -1 0 -1 0 -0.02054069 -0.01991048 -0.01992485 1000 1000 1000 -0.02054069 -0.01991048 -0.01992485 1000 1000 1000 -0.01947892 -0.01934779 -0.01873353 -0.0193383 -0.02018819 1000 -0.01947892 -0.01934779 -0.01873353 -0.0193383 -0.02018819 1000
lala 12 0.6 0 first 6 1 94 4 4.44 2.53999614715576 1 0 -1 0 -0.01994816 -0.01940776 -0.01912523 1000 1000 1000 -0.01994816 -0.01940776 -0.01912523 1000 1000 1000 -0.01807329 -0.01715692 -0.01782627 -0.02110419 -0.02145912 1000 -0.01807329 -0.01715692 -0.01782627 -0.02110419 -0.02145912 1000
lala 5 1.2 1 first 4 1 95 6 6.36 0.01999831199646 -1 0 1 1 -0.01995396 -0.02002714 -0.02020406 1000 1000 1000 -0.01995396 -0.02002714 -0.02020406 1000 1000 1000 -0.02066011 -0.02091415 -0.02060893 -0.02014542 -0.01985795 1000 -0.02066011 -0.02091415 -0.02060893 -0.02014542 -0.01985795 1000
lala 6 1.2 0 second 0 1 96 4 3.84 0.079998254776001 -1 0 -1 0 -0.0203858 -0.02054447 -0.02083891 -0.02064858 -0.02090704 1000 -0.0203858 -0.02054447 -0.02083891 -0.02064858 -0.02090704 1000 -0.02185211 -0.02148773 -0.02126752 -0.02099468 -0.02045114 1000 -0.02185211 -0.02148773 -0.02126752 -0.02099468 -0.02045114 1000
lala 7 1.2 1 second 9 1 97 5 4.25 0.259998083114624 1 1 1 1 -0.01968062 -0.01996648 -0.02018999 -0.01941794 -0.01923848 1000 -0.01968062 -0.01996648 -0.02018999 -0.01941794 -0.01923848 1000 -0.02067812 -0.02125969 -0.02099227 -0.02050556 -0.02041186 1000 -0.02067812 -0.02125969 -0.02099227 -0.02050556 -0.02041186 1000
lala 4 1.2 1 first 3 1 98 5 5.45 0.219998121261597 -1 1 1 0 -0.01958377 -0.01910012 -0.01968766 1000 1000 1000 -0.01958377 -0.01910012 -0.01968766 1000 1000 1000 -0.02036376 -0.02086812 -0.02135613 -0.02037021 -0.02055289 1000 -0.02036376 -0.02086812 -0.02135613 -0.02037021 -0.02055289 1000
lala 6 1.2 0 first 4 1 99 6 5.16 1.43999695777893 -1 0 -1 0 -0.01825897 -0.01851159 -0.01891592 1000 1000 1000 -0.01825897 -0.01851159 -0.01891592 1000 1000 1000 -0.02020738 -0.02057288 -0.02062401 -0.02010362 -0.02020968 1000 -0.02020738 -0.02057288 -0.02062401 -0.02010362 -0.02020968 1000
lala 7 1.2 1 second 0 1 100 4 5.04 0.279998064041138 -1 0 1 1 -0.006165864 -0.004522442 -0.005519478 -0.007840502 -0.00972079 1000 -0.006165864 -0.004522442 -0.005519478 -0.007840502 -0.00972079 1000 -0.01510284 -0.01587017 -0.01746675 -0.0184768 -0.01886122 1000 -0.01510284 -0.01587017 -0.01746675 -0.0184768 -0.01886122 1000
lala 9 1.2 0 second 2 1 101 5 5.7 0.459997892379761 -1 0 -1 1 -0.02111219 -0.02172684 -0.02199714 -0.02193552 -0.02201566 1000 -0.02111219 -0.02172684 -0.02199714 -0.02193552 -0.02201566 1000 -0.02364494 -0.02342244 -0.02345655 -0.02419928 -0.02419467 1000 -0.02364494 -0.02342244 -0.02345655 -0.02419928 -0.02419467 1000
lala 6 1.2 0 first 17 1 102 6 4.380001 0.659997701644897 0 1 -1 0 -0.02252579 -0.01942722 -0.01754685 1000 1000 1000 -0.02252579 -0.01942722 -0.01754685 1000 1000 1000 -0.0159563 -0.01675431 -0.01782441 -0.01815394 -0.0189005 1000 -0.0159563 -0.01675431 -0.01782441 -0.01815394 -0.0189005 1000
lala 13 1.2 1 first 6 1 103 4 5.64 3.37999534606934 1 0 1 1 -0.0185369 -0.0184175 -0.01909749 1000 1000 1000 -0.0185369 -0.0184175 -0.01909749 1000 1000 1000 -0.01691013 -0.01895181 -0.02523357 -0.02467117 -0.02153327 1000 -0.01691013 -0.01895181 -0.02523357 -0.02467117 -0.02153327 1000
lala 8 1.2 0 second 0 1 104 4 3.84 0.199998140335083 -1 0 -1 0 -0.01107679 -0.01056349 -0.01115619 -0.01098003 -0.01097039 1000 -0.01107679 -0.01056349 -0.01115619 -0.01098003 -0.01097039 1000 -0.01268202 -0.01329489 -0.01356888 -0.0131128 -0.01246572 1000 -0.01268202 -0.01329489 -0.01356888 -0.0131128 -0.01246572 1000
lala 4 1.2 1 first 5 1 105 6 4.380001 0.779997587203979 -1 1 1 0 -0.01276125 -0.01242658 -0.01221824 1000 1000 1000 -0.01276125 -0.01242658 -0.01221824 1000 1000 1000 -0.01299035 -0.01365506 -0.01418597 -0.01484248 -0.01453416 1000 -0.01299035 -0.01365506 -0.01418597 -0.01484248 -0.01453416 1000
lala 5 1.2 0 first 5 1 106 6 3.180001 0.279998064041138 -1 1 -1 1 -0.01949614 -0.0191177 -0.01891375 1000 1000 1000 -0.01949614 -0.0191177 -0.01891375 1000 1000 1000 -0.01805179 -0.01919107 -0.01988295 -0.01940051 -0.01969297 1000 -0.01805179 -0.01919107 -0.01988295 -0.01940051 -0.01969297 1000
lala 6 1.2 1 second 15 1 107 5 5.45 0.23999810218811 0 1 1 0 -0.01928561 -0.01999172 -0.01941595 -0.01941041 -0.01895102 1000 -0.01928561 -0.01999172 -0.01941595 -0.01941041 -0.01895102 1000 -0.01941104 -0.01909569 -0.0184869 -0.01850862 -0.01880017 1000 -0.01941104 -0.01909569 -0.0184869 -0.01850862 -0.01880017 1000
lala 9 1.2 0 second 0 1 108 4 5.04 0.359997987747192 -1 0 -1 1 -0.02011742 -0.0224224 -0.0230511 -0.02045749 -0.01807887 1000 -0.02011742 -0.0224224 -0.0230511 -0.02045749 -0.01807887 1000 -0.01513908 -0.01559716 -0.01557915 -0.01567364 -0.01538636 1000 -0.01513908 -0.01559716 -0.01557915 -0.01567364 -0.01538636 1000
lala 7 1.2 1 second 15 1 109 5 4.25 1.65999698638916 0 1 1 0 -0.0145772 -0.01433728 -0.01243842 -0.01104846 -0.01110619 1000 -0.0145772 -0.01433728 -0.01243842 -0.01104846 -0.01110619 1000 -0.01540822 -0.01434941 -0.0137383 -0.01359116 -0.01316122 1000 -0.01540822 -0.01434941 -0.0137383 -0.01359116 -0.01316122 1000
lala 8 1.2 0 first 9 1 110 5 3.05 0.01999831199646 1 1 -1 1 -0.01302927 -0.01207773 -0.01287555 1000 1000 1000 -0.01302927 -0.01207773 -0.01287555 1000 1000 1000 -0.01080886 -0.009923823 -0.01087071 -0.01055619 -0.01179213 1000 -0.01080886 -0.009923823 -0.01087071 -0.01055619 -0.01179213 1000
lala 10 1.2 1 first 0 1 111 4 6.24 0.179998159408569 -1 0 1 1 -0.01010461 -0.009364447 -0.008661314 1000 1000 1000 -0.01010461 -0.009364447 -0.008661314 1000 1000 1000 -0.007102671 -0.007056952 -0.006654534 -0.006553147 -0.007427485 1000 -0.007102671 -0.007056952 -0.006654534 -0.006553147 -0.007427485 1000
lala 8 1.2 0 second 8 1 112 5 4.5 0.759997606277466 1 0 -1 0 -0.008568217 -0.007935654 -0.008009854 -0.009202372 -0.008886252 1000 -0.008568217 -0.007935654 -0.008009854 -0.009202372 -0.008886252 1000 -0.007343497 -0.007444018 -0.00861724 -0.008854492 -0.008860396 1000 -0.007343497 -0.007444018 -0.00861724 -0.008854492 -0.008860396 1000
lala 11 0.6 0 second 0 1 113 4 5.64 3.45999526977539 -1 0 -1 0 -0.006128012 -0.006243539 -0.007080423 -0.006787157 -0.005423664 1000 -0.006128012 -0.006243539 -0.007080423 -0.006787157 -0.005423664 1000 -0.006588341 -0.006596143 -0.007427398 -0.007617937 -0.006789763 1000 -0.006588341 -0.006596143 -0.007427398 -0.007617937 -0.006789763 1000
lala 8 1.2 1 first 12 1 114 4 3.84 0.499997854232788 0 0 1 1 -0.005536126 -0.005431849 -0.00511431 1000 1000 1000 -0.005536126 -0.005431849 -0.00511431 1000 1000 1000 -0.004681572 -0.004623696 -0.005622771 -0.005491036 -0.005055844 1000 -0.004681572 -0.004623696 -0.005622771 -0.005491036 -0.005055844 1000
lala 7 1.2 0 first 4 1 115 6 6.36 1.05999732017517 -1 0 -1 1 -0.004107006 -0.00381446 -0.003287654 1000 1000 1000 -0.004107006 -0.00381446 -0.003287654 1000 1000 1000 -0.00313855 -0.003590719 -0.004023762 -0.003569806 -0.002619815 1000 -0.00313855 -0.003590719 -0.004023762 -0.003569806 -0.002619815 1000
lala 4 1.2 0 second 10 1 116 6 2.76 0.719997644424438 1 0 -1 0 -0.002651249 -0.003098133 -0.00390409 -0.004583925 -0.003507585 1000 -0.002651249 -0.003098133 -0.00390409 -0.004583925 -0.003507585 1000 -0.001811534 -0.002150587 -0.00221583 -0.001764275 -0.001444424 1000 -0.001811534 -0.002150587 -0.00221583 -0.001764275 -0.001444424 1000
lala 7 1.2 0 first 17 1 117 6 5.580001 2.87999582290649 0 1 -1 1 -0.001852921 -0.002196896 -0.003111702 1000 1000 1000 -0.001852921 -0.002196896 -0.003111702 1000 1000 1000 -0.0005502718 -0.0007147379 -0.0007043158 -0.0004026052 -0.000449547 1000 -0.0005502718 -0.0007147379 -0.0007043158 -0.0004026052 -0.000449547 1000
lala 5 1.2 1 first 10 1 118 6 3.96 2.17999649047852 1 0 1 0 -0.001406813 -0.0006899845 -0.0007434324 1000 1000 1000 -0.001406813 -0.0006899845 -0.0007434324 1000 1000 1000 -0.00254546 -0.002283067 -0.001483367 -0.00112583 -0.001025265 1000 -0.00254546 -0.002283067 -0.001483367 -0.00112583 -0.001025265 1000
lala 8 1.2 0 first 15 1 119 5 3.05 0.499997854232788 0 1 -1 0 -0.003752394 -0.003658265 -0.003080932 1000 1000 1000 -0.003752394 -0.003658265 -0.003080932 1000 1000 1000 -0.002904479 -0.00282229 -0.002327551 -0.001900289 -0.001954099 1000 -0.002904479 -0.00282229 -0.002327551 -0.001900289 -0.001954099 1000
lala 8 1.2 1 second 17 1 120 6 6.780001 1.5399968624115 0 1 1 0 -0.002224029 -0.001915469 -0.00137278 -0.001471641 -0.001549651 1000 -0.002224029 -0.001915469 -0.00137278 -0.001471641 -0.001549651 1000 -0.002114016 -0.001605634 -0.000723527 -0.0002322996 -0.001428003 1000 -0.002114016 -0.001605634 -0.000723527 -0.0002322996 -0.001428003 1000
lala 9 1.2 0 first 9 1 121 5 4.25 1.7199969291687 1 1 -1 0 -0.003131438 -0.002846649 -0.003524393 1000 1000 1000 -0.003131438 -0.002846649 -0.003524393 1000 1000 1000 -0.001586658 -0.001107471 -0.001042025 -0.0006460844 -0.0007680765 1000 -0.001586658 -0.001107471 -0.001042025 -0.0006460844 -0.0007680765 1000
lala 9 1.2 1 first 15 1 122 5 4.25 3.07999563217163 0 1 1 0 -0.0006589669 -0.00100622 -0.001024178 1000 1000 1000 -0.0006589669 -0.00100622 -0.001024178 1000 1000 1000 -0.00324873 -0.003221688 -0.003096937 -0.002680653 -0.002260908 1000 -0.00324873 -0.003221688 -0.003096937 -0.002680653 -0.002260908 1000
lala 12 0.3 1 second 0 1 123 4 5.94 0.359997987747192 -1 0 1 1 -0.001310837 -0.0007201013 -0.001762952 -0.002271377 -0.002134018 1000 -0.001310837 -0.0007201013 -0.001762952 -0.002271377 -0.002134018 1000 -0.001650267 -0.003117438 -0.003060603 -0.00282477 -0.00349137 1000 -0.001650267 -0.003117438 -0.003060603 -0.00282477 -0.00349137 1000
lala 4 1.2 1 second 11 1 124 6 4.380001 1.51999688148499 1 1 1 0 -0.004240142 -0.003686906 -0.003770671 -0.003900333 -0.003198039 1000 -0.004240142 -0.003686906 -0.003770671 -0.003900333 -0.003198039 1000 -0.004169015 -0.004567299 -0.004452665 -0.003794435 -0.00392634 1000 -0.004169015 -0.004567299 -0.004452665 -0.003794435 -0.00392634 1000
lala 10 1.2 1 second 9 1 125 5 5.45 0.459997892379761 1 1 1 1 -0.006229027 -0.006827191 -0.007016568 -0.006004615 -0.005590684 1000 -0.006229027 -0.006827191 -0.007016568 -0.006004615 -0.005590684 1000 -0.004567145 -0.004754586 -0.004630816 -0.004129241 -0.004793607 1000 -0.004567145 -0.004754586 -0.004630816 -0.004129241 -0.004793607 1000
lala 9 1.2 0 first 17 1 126 6 5.580001 0.559997797012329 0 1 -1 1 -0.005434779 -0.00598267 -0.005615193 1000 1000 1000 -0.005434779 -0.00598267 -0.005615193 1000 1000 1000 -0.005093859 -0.005161161 -0.004470965 -0.005148401 -0.005542255 1000 -0.005093859 -0.005161161 -0.004470965 -0.005148401 -0.005542255 1000
lala 8 1.2 1 second 16 1 127 6 5.16 0.659997701644897 0 0 1 1 -0.006777249 -0.00678038 -0.006026075 -0.005849644 -0.005872373 1000 -0.006777249 -0.00678038 -0.006026075 -0.005849644 -0.005872373 1000 -0.007304841 -0.008054133 -0.007425306 -0.008438827 -0.008427651 1000 -0.007304841 -0.008054133 -0.007425306 -0.008438827 -0.008427651 1000
lala 6 1.2 0 second 5 1 128 6 4.380001 1.23999714851379 -1 1 -1 1 -0.006872642 -0.006933094 -0.006288277 -0.005908853 -0.006533878 1000 -0.006872642 -0.006933094 -0.006288277 -0.005908853 -0.006533878 1000 -0.008348129 -0.007830802 -0.007785257 -0.00790871 -0.008019505 1000 -0.008348129 -0.007830802 -0.007785257 -0.00790871 -0.008019505 1000
lala 6 1.2 1 first 1 1 129 4 6.52 2.65999603271484 -1 1 1 0 -0.007688805 -0.007904707 -0.008418215 1000 1000 1000 -0.007688805 -0.007904707 -0.008418215 1000 1000 1000 -0.008133112 -0.00868881 -0.0083566 -0.008315658 -0.008188454 1000 -0.008133112 -0.00868881 -0.0083566 -0.008315658 -0.008188454 1000
lala 6 1.2 0 first 10 1 130 6 2.76 0.559997797012329 1 0 -1 1 -0.00888102 -0.008998201 -0.009166461 1000 1000 1000 -0.00888102 -0.008998201 -0.009166461 1000 1000 1000 -0.00704965 -0.007346632 -0.008006575 -0.008235758 -0.00777339 1000 -0.00704965 -0.007346632 -0.008006575 -0.008235758 -0.00777339 1000
lala 8 1.2 1 second 4 1 131 6 7.559999 0.359997987747192 -1 0 1 0 -0.008960287 -0.009224637 -0.009697326 -0.009957208 -0.009515684 1000 -0.008960287 -0.009224637 -0.009697326 -0.009957208 -0.009515684 1000 -0.00872632 -0.008325809 -0.008664093 -0.008695466 -0.008833208 1000 -0.00872632 -0.008325809 -0.008664093 -0.008695466 -0.008833208 1000
lala 9 1.2 0 second 16 1 132 6 3.96 0.459997892379761 0 0 -1 1 -0.008584977 -0.008582579 -0.00950446 -0.008463154 -0.008380022 1000 -0.008584977 -0.008582579 -0.00950446 -0.008463154 -0.008380022 1000 -0.008550225 -0.008828352 -0.008822372 -0.008332286 -0.008920283 1000 -0.008550225 -0.008828352 -0.008822372 -0.008332286 -0.008920283 1000
lala 13 0.15 1 second 0 1 133 4 5.79 0.539997816085815 -1 0 1 1 -0.009891784 -0.0095034 -0.009576955 -0.009177257 -0.008757085 1000 -0.009891784 -0.0095034 -0.009576955 -0.009177257 -0.008757085 1000 -0.009480353 -0.009622003 -0.009592318 -0.009571018 -0.009707841 1000 -0.009480353 -0.009622003 -0.009592318 -0.009571018 -0.009707841 1000
lala 2 1.2 0 second 7 1 134 4 4.12 0.759997606277466 1 1 -1 0 -0.01050268 -0.009966176 -0.01095671 -0.01144824 -0.01105672 1000 -0.01050268 -0.009966176 -0.01095671 -0.01144824 -0.01105672 1000 -0.01112153 -0.01120177 -0.01186241 -0.01150614 -0.0118407 1000 -0.01112153 -0.01120177 -0.01186241 -0.01150614 -0.0118407 1000
lala 11 0.6 0 second 9 1 135 5 4.85 1.57999682426453 1 1 -1 0 -0.01229721 -0.01083648 -0.01090544 -0.01087046 -0.01101467 1000 -0.01229721 -0.01083648 -0.01090544 -0.01087046 -0.01101467 1000 -0.01162868 -0.01154215 -0.01180767 -0.01152527 -0.01211135 1000 -0.01162868 -0.01154215 -0.01180767 -0.01152527 -0.01211135 1000
lala 7 1.2 1 second 5 1 136 6 5.580001 0.0999982357025146 -1 1 1 1 -0.01303588 -0.01328995 -0.01345283 -0.01313781 -0.01367536 1000 -0.01303588 -0.01328995 -0.01345283 -0.01313781 -0.01367536 1000 -0.01195818 -0.01220563 -0.01161585 -0.01189492 -0.01169213 1000 -0.01195818 -0.01220563 -0.01161585 -0.01189492 -0.01169213 1000
lala 7 1.2 1 second 1 1 137 4 5.320001 2.11999654769897 -1 1 1 0 -0.01382602 -0.01367367 -0.01390088 -0.01406667 -0.01384879 1000 -0.01382602 -0.01367367 -0.01390088 -0.01406667 -0.01384879 1000 -0.01435717 -0.01452974 -0.01424944 -0.01425374 -0.01407667 1000 -0.01435717 -0.01452974 -0.01424944 -0.01425374 -0.01407667 1000
lala 10 0.6 0 second 16 1 138 6 4.56 0.61999773979187 0 0 -1 1 -0.02853827 -0.02770503 -0.02752871 -0.02699756 -0.02661164 1000 -0.02853827 -0.02770503 -0.02752871 -0.02699756 -0.02661164 1000 -0.01738941 -0.017882 -0.01841305 -0.01878982 -0.01760608 1000 -0.01738941 -0.017882 -0.01841305 -0.01878982 -0.01760608 1000
lala 9 1.2 0 first 12 1 139 4 2.64 2.09999656677246 0 0 -1 0 -0.01496908 -0.01214552 -0.01027949 1000 1000 1000 -0.01496908 -0.01214552 -0.01027949 1000 1000 1000 0.006114358 0.01525159 0.01474289 0.009540983 0.006296987 1000 0.006114358 0.01525159 0.01474289 0.009540983 0.006296987 1000
lala 9 1.2 1 second 8 1 140 5 5.7 0.259998083114624 1 0 1 1 -0.01678505 -0.01683923 -0.01742591 -0.02026535 -0.02147099 1000 -0.01678505 -0.01683923 -0.01742591 -0.02026535 -0.02147099 1000 -0.02208333 -0.02231271 -0.02213956 -0.02276892 -0.02311987 1000 -0.02208333 -0.02231271 -0.02213956 -0.02276892 -0.02311987 1000
lala 10 0.6 1 first 17 1 141 6 6.180001 0.379997968673706 0 1 1 1 -0.02332663 -0.0234892 -0.02319725 1000 1000 1000 -0.02332663 -0.0234892 -0.02319725 1000 1000 1000 -0.02313408 -0.02259802 -0.02158184 -0.02132897 -0.02152464 1000 -0.02313408 -0.02259802 -0.02158184 -0.02132897 -0.02152464 1000
lala 10 0.6 0 second 15 1 142 5 3.65 0.359997987747192 0 1 -1 0 -0.01902657 -0.01913643 -0.01931693 -0.01915652 -0.01927977 1000 -0.01902657 -0.01913643 -0.01931693 -0.01915652 -0.01927977 1000 -0.02045257 -0.02019809 -0.02039476 -0.01977502 -0.01931032 1000 -0.02045257 -0.02019809 -0.02039476 -0.01977502 -0.01931032 1000
lala 10 0.6 1 first 12 1 143 4 3.24 0.859997510910034 0 0 1 0 -0.01955962 -0.01779293 -0.01705331 1000 1000 1000 -0.01955962 -0.01779293 -0.01705331 1000 1000 1000 -0.0283762 -0.02842727 -0.02698131 -0.02301119 -0.02051928 1000 -0.0283762 -0.02842727 -0.02698131 -0.02301119 -0.02051928 1000
lala 11 0.3 0 second 12 1 144 4 2.94 0.379997968673706 0 0 -1 0 -0.01940976 -0.01975325 -0.02042283 -0.02117079 -0.02104769 1000 -0.01940976 -0.01975325 -0.02042283 -0.02117079 -0.02104769 1000 -0.01944061 -0.02051594 -0.01918274 -0.01910879 -0.01984846 1000 -0.01944061 -0.02051594 -0.01918274 -0.01910879 -0.01984846 1000
lala 12 0.3 1 first 9 1 145 5 5.15 0.759997606277466 1 1 1 1 -0.01763547 -0.01775157 -0.01775385 1000 1000 1000 -0.01763547 -0.01775157 -0.01775385 1000 1000 1000 -0.01818133 -0.01807842 -0.01832027 -0.01819907 -0.01785013 1000 -0.01818133 -0.01807842 -0.01832027 -0.01819907 -0.01785013 1000
lala 14 0.15 1 second 0 1 146 4 5.64 0.579997777938843 -1 0 1 0 -0.01414291 -0.01557111 -0.01502396 -0.01577935 -0.01688554 1000 -0.01414291 -0.01557111 -0.01502396 -0.01577935 -0.01688554 1000 -0.01594285 -0.01601037 -0.01724388 -0.0172687 -0.01659887 1000 -0.01594285 -0.01601037 -0.01724388 -0.0172687 -0.01659887 1000
lala 10 1.2 0 first 2 1 147 5 6.9 0.759997606277466 -1 0 -1 0 -0.01570459 -0.01642916 -0.0163805 1000 1000 1000 -0.01570459 -0.01642916 -0.0163805 1000 1000 1000 -0.01698394 -0.01600369 -0.01541047 -0.01391015 -0.01448155 1000 -0.01698394 -0.01600369 -0.01541047 -0.01391015 -0.01448155 1000
lala 7 1.2 1 first 10 1 148 6 3.96 1.5399968624115 1 0 1 0 -0.01537941 -0.01506884 -0.01503155 1000 1000 1000 -0.01537941 -0.01506884 -0.01503155 1000 1000 1000 -0.01657346 -0.01708151 -0.01656706 -0.01588937 -0.01538093 1000 -0.01657346 -0.01708151 -0.01656706 -0.01588937 -0.01538093 1000
lala 11 0.3 1 first 15 1 149 5 3.95 1.65999698638916 0 1 1 1 -0.01813924 -0.01805352 -0.01790864 1000 1000 1000 -0.01813924 -0.01805352 -0.01790864 1000 1000 1000 -0.01654282 -0.0179923 -0.01737903 -0.01671453 -0.01654268 1000 -0.01654282 -0.0179923 -0.01737903 -0.01671453 -0.01654268 1000
lala 8 1.2 0 second 1 1 150 4 4.120001 0.699997663497925 -1 1 -1 0 -0.01327451 -0.01210473 -0.01206819 -0.01249863 -0.01341198 1000 -0.01327451 -0.01210473 -0.01206819 -0.01249863 -0.01341198 1000 -0.01767117 -0.0176659 -0.0174388 -0.01662993 -0.01651258 1000 -0.01767117 -0.0176659 -0.0174388 -0.01662993 -0.01651258 1000
lala 5 1.2 0 second 11 1 151 6 3.180001 0.139998197555542 1 1 -1 1 -0.02174298 -0.02027702 -0.01929657 -0.01892778 -0.0179719 1000 -0.02174298 -0.02027702 -0.01929657 -0.01892778 -0.0179719 1000 -0.01845143 -0.01932191 -0.01907395 -0.0189103 -0.01928496 1000 -0.01845143 -0.01932191 -0.01907395 -0.0189103 -0.01928496 1000
lala 3 1.2 1 first 7 1 152 4 5.32 0.39999794960022 1 1 1 0 -0.02040633 -0.01953465 -0.01984172 1000 1000 1000 -0.02040633 -0.01953465 -0.01984172 1000 1000 1000 -0.01854066 -0.01839684 -0.0183557 -0.01824827 -0.01833154 1000 -0.01854066 -0.01839684 -0.0183557 -0.01824827 -0.01833154 1000
lala 14 0.6 1 first 6 1 153 4 5.04 0.539997816085815 1 0 1 1 -0.0187302 -0.01782257 -0.01734055 1000 1000 1000 -0.0187302 -0.01782257 -0.01734055 1000 1000 1000 -0.0183697 -0.01856842 -0.01795318 -0.01803855 -0.01854748 1000 -0.0183697 -0.01856842 -0.01795318 -0.01803855 -0.01854748 1000
lala 11 0.3 1 second 17 1 154 6 5.880001 0.499997854232788 0 1 1 0 -0.01745455 -0.01753707 -0.01723702 -0.01705344 -0.01712658 1000 -0.01745455 -0.01753707 -0.01723702 -0.01705344 -0.01712658 1000 -0.01572361 -0.01631247 -0.01620298 -0.01616425 -0.0163066 1000 -0.01572361 -0.01631247 -0.01620298 -0.01616425 -0.0163066 1000
lala 2 1.2 1 first 14 1 155 5 4.5 1.49999690055847 0 0 1 0 -0.0172749 -0.01714482 -0.01687034 1000 1000 1000 -0.0172749 -0.01714482 -0.01687034 1000 1000 1000 -0.01868196 -0.01961026 -0.01972036 -0.01903687 -0.01864415 1000 -0.01868196 -0.01961026 -0.01972036 -0.01903687 -0.01864415 1000
lala 3 1.2 1 first 14 1 156 5 3.3 0.599997758865356 0 0 1 0 -0.01926103 -0.01827603 -0.01954825 1000 1000 1000 -0.01926103 -0.01827603 -0.01954825 1000 1000 1000 -0.01816649 -0.01852153 -0.01830158 -0.01788385 -0.01810679 1000 -0.01816649 -0.01852153 -0.01830158 -0.01788385 -0.01810679 1000
lala 13 0.15 0 first 9 1 157 5 5 1.37999701499939 1 1 -1 1 -0.01855076 -0.01834252 -0.01737204 1000 1000 1000 -0.01855076 -0.01834252 -0.01737204 1000 1000 1000 -0.01693944 -0.01622725 -0.01702087 -0.01675335 -0.01560792 1000 -0.01693944 -0.01622725 -0.01702087 -0.01675335 -0.01560792 1000
lala 9 1.2 0 first 4 1 158 6 6.36 1.03999733924866 -1 0 -1 1 -0.0148863 -0.01640022 -0.01729147 1000 1000 1000 -0.0148863 -0.01640022 -0.01729147 1000 1000 1000 -0.01529871 -0.01501224 -0.0150954 -0.01510867 -0.0150008 1000 -0.01529871 -0.01501224 -0.0150954 -0.01510867 -0.0150008 1000
lala 8 1.2 0 second 10 1 159 6 2.76 0.739997625350952 1 0 -1 0 -0.01520925 -0.01347192 -0.01371689 -0.01469805 -0.01467428 1000 -0.01520925 -0.01347192 -0.01371689 -0.01469805 -0.01467428 1000 -0.01439767 -0.01407355 -0.01443568 -0.01479753 -0.01489926 1000 -0.01439767 -0.01407355 -0.01443568 -0.01479753 -0.01489926 1000
lala 10 0.6 1 second 4 1 160 6 6.96 0.299998044967651 -1 0 1 0 -0.01343527 -0.0141608 -0.01513025 -0.01430592 -0.01449317 1000 -0.01343527 -0.0141608 -0.01513025 -0.01430592 -0.01449317 1000 -0.0150415 -0.01569229 -0.01609758 -0.01505897 -0.01463714 1000 -0.0150415 -0.01569229 -0.01609758 -0.01505897 -0.01463714 1000
lala 4 1.2 0 second 14 1 161 5 2.1 0.439997911453247 0 0 -1 0 -0.01412526 -0.0137021 -0.0116426 -0.01219806 -0.01322043 1000 -0.01412526 -0.0137021 -0.0116426 -0.01219806 -0.01322043 1000 -0.01429534 -0.01454986 -0.01424678 -0.01415664 -0.01423559 1000 -0.01429534 -0.01454986 -0.01424678 -0.01415664 -0.01423559 1000
lala 15 0.6 1 second 6 1 162 4 4.440001 0.379997968673706 1 0 1 0 -0.01340384 -0.01310452 -0.01272409 -0.01317426 -0.01295099 1000 -0.01340384 -0.01310452 -0.01272409 -0.01317426 -0.01295099 1000 -0.01287224 -0.01249922 -0.01264435 -0.013613 -0.01364132 1000 -0.01287224 -0.01249922 -0.01264435 -0.013613 -0.01364132 1000
lala 15 0.15 1 first 0 1 163 4 5.49 0.319998025894165 -1 0 1 0 -0.0134893 -0.01314348 -0.01323815 1000 1000 1000 -0.0134893 -0.01314348 -0.01323815 1000 1000 1000 -0.01286311 -0.01282017 -0.01253539 -0.01297642 -0.01338725 1000 -0.01286311 -0.01282017 -0.01253539 -0.01297642 -0.01338725 1000
lala 11 2.4 1 second 2 1 164 5 9.299999 0.259998083114624 -1 0 1 0 -0.0127437 -0.0125699 -0.01270408 -0.01269242 -0.01208585 1000 -0.0127437 -0.0125699 -0.01270408 -0.01269242 -0.01208585 1000 -0.01104166 -0.01174617 -0.01189793 -0.01177474 -0.01208674 1000 -0.01104166 -0.01174617 -0.01189793 -0.01177474 -0.01208674 1000
lala 6 1.2 0 second 11 1 165 6 4.380001 0.359997987747192 1 1 -1 1 -0.01216666 -0.012002 -0.01233743 -0.01200826 -0.01212946 1000 -0.01216666 -0.012002 -0.01233743 -0.01200826 -0.01212946 1000 -0.01094799 -0.01022953 -0.01157243 -0.01284403 -0.01195152 1000 -0.01094799 -0.01022953 -0.01157243 -0.01284403 -0.01195152 1000
lala 11 0.6 1 first 16 1 166 6 5.16 1.01999735832214 0 0 1 0 -0.01268284 -0.01260351 -0.01289682 1000 1000 1000 -0.01268284 -0.01260351 -0.01289682 1000 1000 1000 -0.01130954 -0.01104175 -0.01069439 -0.01139019 -0.01142256 1000 -0.01130954 -0.01104175 -0.01069439 -0.01139019 -0.01142256 1000
lala 10 0.6 1 first 8 1 167 5 5.1 0.539997816085815 1 0 1 1 -0.01245456 -0.01209257 -0.01154668 1000 1000 1000 -0.01245456 -0.01209257 -0.01154668 1000 1000 1000 -0.01253993 -0.01230373 -0.01226374 -0.01205863 -0.0120085 1000 -0.01253993 -0.01230373 -0.01226374 -0.01205863 -0.0120085 1000
lala 5 1.2 1 first 14 1 168 5 3.3 0.959997415542603 0 0 1 1 -0.01153336 -0.01156641 -0.01171991 1000 1000 1000 -0.01153336 -0.01156641 -0.01171991 1000 1000 1000 -0.009441224 -0.009647934 -0.009078495 -0.009574007 -0.01069474 1000 -0.009441224 -0.009647934 -0.009078495 -0.009574007 -0.01069474 1000
lala 7 1.2 1 first 11 1 169 6 5.580001 0.519997835159302 1 1 1 1 -0.009788872 -0.009371314 -0.009221686 1000 1000 1000 -0.009788872 -0.009371314 -0.009221686 1000 1000 1000 -0.01029965 -0.01022348 -0.01082237 -0.01134053 -0.01135734 1000 -0.01029965 -0.01022348 -0.01082237 -0.01134053 -0.01135734 1000
lala 16 0.6 0 second 6 1 170 4 3.840001 1.61999702453613 1 0 -1 0 -0.01060395 -0.01093814 -0.01118571 -0.01070898 -0.01086037 1000 -0.01060395 -0.01093814 -0.01118571 -0.01070898 -0.01086037 1000 -0.01062438 -0.01049314 -0.01178461 -0.01354591 -0.01372218 1000 -0.01062438 -0.01049314 -0.01178461 -0.01354591 -0.01372218 1000
lala 12 0.15 1 first 12 1 171 4 3.09 1.11999726295471 0 0 1 1 -0.01204564 -0.01220297 -0.01150119 1000 1000 1000 -0.01204564 -0.01220297 -0.01150119 1000 1000 1000 -0.01330669 -0.01346336 -0.01315237 -0.01335172 -0.01285333 1000 -0.01330669 -0.01346336 -0.01315237 -0.01335172 -0.01285333 1000
lala 6 1.2 0 first 14 1 172 5 2.1 0.0599982738494873 0 0 -1 0 -0.01413923 -0.01391315 -0.0135665 1000 1000 1000 -0.01413923 -0.01391315 -0.0135665 1000 1000 1000 -0.01179932 -0.01152509 -0.01214389 -0.01301367 -0.0133227 1000 -0.01179932 -0.01152509 -0.01214389 -0.01301367 -0.0133227 1000
lala 11 0.6 1 second 8 1 173 5 4.5 3.41999530792236 1 0 1 0 -0.01268772 -0.01193531 -0.01220521 -0.01243961 -0.01207988 1000 -0.01268772 -0.01193531 -0.01220521 -0.01243961 -0.01207988 1000 -0.01336222 -0.0132686 -0.01275497 -0.01240733 -0.0128304 1000 -0.01336222 -0.0132686 -0.01275497 -0.01240733 -0.0128304 1000
lala 16 0.3 0 first 0 1 174 4 5.19 0.439997911453247 -1 0 -1 1 -0.01263216 -0.01232266 -0.01162547 1000 1000 1000 -0.01263216 -0.01232266 -0.01162547 1000 1000 1000 -0.01220239 -0.01135342 -0.01217064 -0.01298158 -0.0132197 1000 -0.01220239 -0.01135342 -0.01217064 -0.01298158 -0.0132197 1000
lala 12 0.3 0 first 16 1 175 6 4.86 0.659997701644897 0 0 -1 0 -0.01373454 -0.01325989 -0.01343065 1000 1000 1000 -0.01373454 -0.01325989 -0.01343065 1000 1000 1000 -0.01400221 -0.01461813 -0.0144497 -0.01374705 -0.01400348 1000 -0.01400221 -0.01461813 -0.0144497 -0.01374705 -0.01400348 1000
lala 8 1.2 0 first 5 1 176 6 4.380001 1.05999732017517 -1 1 -1 0 -0.01374928 -0.01320887 -0.01295402 1000 1000 1000 -0.01374928 -0.01320887 -0.01295402 1000 1000 1000 -0.01445428 -0.01445441 -0.01387728 -0.01422619 -0.01433894 1000 -0.01445428 -0.01445441 -0.01387728 -0.01422619 -0.01433894 1000
lala 9 1.2 1 second 10 1 177 6 3.96 0.379997968673706 1 0 1 0 -0.01433083 -0.01397571 -0.01516474 -0.01447201 -0.01410715 1000 -0.01433083 -0.01397571 -0.01516474 -0.01447201 -0.01410715 1000 -0.01489231 -0.01478851 -0.0148914 -0.01478937 -0.01385827 1000 -0.01489231 -0.01478851 -0.0148914 -0.01478937 -0.01385827 1000
lala 17 0.3 0 second 6 1 178 4 4.140001 0.61999773979187 1 0 -1 0 -0.01301702 -0.01309141 -0.01321955 -0.01232818 -0.01284891 1000 -0.01301702 -0.01309141 -0.01321955 -0.01232818 -0.01284891 1000 -0.01461592 -0.01437771 -0.01437156 -0.01450707 -0.01448417 1000 -0.01461592 -0.01437771 -0.01437156 -0.01450707 -0.01448417 1000
lala 12 1.2 1 second 2 1 179 5 8.099999 0.359997987747192 -1 0 1 0 -0.01329293 -0.01365916 -0.01377517 -0.01358073 -0.01318641 1000 -0.01329293 -0.01365916 -0.01377517 -0.01358073 -0.01318641 1000 -0.0143692 -0.0142071 -0.0139608 -0.01390701 -0.01388714 1000 -0.0143692 -0.0142071 -0.0139608 -0.01390701 -0.01388714 1000
lala 18 0.3 1 first 6 1 180 4 4.440001 2.97999572753906 1 0 1 1 -0.01331385 -0.01352504 -0.01367144 1000 1000 1000 -0.01331385 -0.01352504 -0.01367144 1000 1000 1000 -0.01412056 -0.01389385 -0.01368669 -0.01329863 -0.01312992 1000 -0.01412056 -0.01389385 -0.01368669 -0.01329863 -0.01312992 1000
lala 13 1.2 1 second 2 1 181 5 6.9 0.219998121261597 -1 0 1 1 -0.01816046 -0.01820539 -0.01602949 -0.0146934 -0.0140473 1000 -0.01816046 -0.01820539 -0.01602949 -0.0146934 -0.0140473 1000 -0.01643482 -0.016407 -0.01702891 -0.01749791 -0.01719315 1000 -0.01643482 -0.016407 -0.01702891 -0.01749791 -0.01719315 1000
lala 10 1.2 1 first 13 1 182 4 4.120001 0.479997873306274 0 1 1 0 -0.01799913 -0.01794942 -0.01713983 1000 1000 1000 -0.01799913 -0.01794942 -0.01713983 1000 1000 1000 -0.01780437 -0.01786129 -0.01832182 -0.01819928 -0.01839192 1000 -0.01780437 -0.01786129 -0.01832182 -0.01819928 -0.01839192 1000
lala 12 0.3 0 second 17 1 183 6 5.58 0.0599982738494873 0 1 -1 0 -0.01436125 -0.01510133 -0.01533761 -0.01496399 -0.01556313 1000 -0.01436125 -0.01510133 -0.01533761 -0.01496399 -0.01556313 1000 -0.01525638 -0.01538897 -0.01588312 -0.01621182 -0.01610948 1000 -0.01525638 -0.01538897 -0.01588312 -0.01621182 -0.01610948 1000
lala 9 1.2 0 first 5 1 184 6 5.580001 1.97999668121338 -1 1 -1 1 -0.01752148 -0.01808947 -0.01816025 1000 1000 1000 -0.01752148 -0.01808947 -0.01816025 1000 1000 1000 -0.01840159 -0.01868217 -0.01925526 -0.01892433 -0.01861579 1000 -0.01840159 -0.01868217 -0.01925526 -0.01892433 -0.01861579 1000
lala 12 0.15 0 second 15 1 185 5 3.8 0.739997625350952 0 1 -1 1 -0.01838378 -0.01837349 -0.01884076 -0.01921095 -0.0190205 1000 -0.01838378 -0.01837349 -0.01884076 -0.01921095 -0.0190205 1000 -0.0175366 -0.01764146 -0.01817507 -0.01871475 -0.01821499 1000 -0.0175366 -0.01764146 -0.01817507 -0.01871475 -0.01821499 1000
lala 8 1.2 1 first 11 1 186 6 4.380001 0.659997701644897 1 1 1 0 -0.01978148 -0.0207603 -0.0196198 1000 1000 1000 -0.01978148 -0.0207603 -0.0196198 1000 1000 1000 -0.01807211 -0.01838499 -0.0188132 -0.0182092 -0.01828532 1000 -0.01807211 -0.01838499 -0.0188132 -0.0182092 -0.01828532 1000
lala 14 1.2 0 second 2 1 187 5 5.7 0.599997758865356 -1 0 -1 1 -0.02044924 -0.0208744 -0.02072443 -0.02259688 -0.024385 1000 -0.02044924 -0.0208744 -0.02072443 -0.02259688 -0.024385 1000 -0.02395372 -0.02393275 -0.02349169 -0.02378692 -0.02379227 1000 -0.02395372 -0.02393275 -0.02349169 -0.02378692 -0.02379227 1000
lala 5 1.2 0 second 3 1 188 5 4.25 0.459997892379761 -1 1 -1 0 -0.02290976 -0.02247145 -0.02296499 -0.02297907 -0.02262447 1000 -0.02290976 -0.02247145 -0.02296499 -0.02297907 -0.02262447 1000 -0.02462881 -0.02471028 -0.02488768 -0.02491111 -0.02532168 1000 -0.02462881 -0.02471028 -0.02488768 -0.02491111 -0.02532168 1000
lala 11 2.4 0 first 13 1 189 4 1.720001 0.079998254776001 0 1 -1 1 -0.02146059 -0.02085024 -0.02087766 1000 1000 1000 -0.02146059 -0.02085024 -0.02087766 1000 1000 1000 -0.02349933 -0.02336545 -0.02332241 -0.02335037 -0.02330421 1000 -0.02349933 -0.02336545 -0.02332241 -0.02335037 -0.02330421 1000
lala 13 0.075 1 first 12 1 190 4 3.015 1.35999703407288 0 0 1 0 -0.02380529 -0.02179402 -0.0217354 1000 1000 1000 -0.02380529 -0.02179402 -0.0217354 1000 1000 1000 -0.02518337 -0.02439412 -0.02267032 -0.02324405 -0.02569867 1000 -0.02518337 -0.02439412 -0.02267032 -0.02324405 -0.02569867 1000
lala 10 1.2 0 second 5 1 191 6 6.780001 2.13999652862549 -1 1 -1 0 -0.02078427 -0.020458 -0.01970611 -0.01925899 -0.0200738 1000 -0.02078427 -0.020458 -0.01970611 -0.01925899 -0.0200738 1000 -0.02082711 -0.02064341 -0.02058733 -0.02052566 -0.02035184 1000 -0.02082711 -0.02064341 -0.02058733 -0.02052566 -0.02035184 1000
lala 4 1.2 1 first 7 1 192 4 4.12 0.759997606277466 1 1 1 1 -0.0211214 -0.02088192 -0.02010072 1000 1000 1000 -0.0211214 -0.02088192 -0.02010072 1000 1000 1000 -0.01612954 -0.01512132 -0.01668633 -0.01742712 -0.01732766 1000 -0.01612954 -0.01512132 -0.01668633 -0.01742712 -0.01732766 1000
lala 11 0.3 1 first 4 1 193 6 6.659999 1.79999685287476 -1 0 1 1 -0.01696795 -0.01668964 -0.01680134 1000 1000 1000 -0.01696795 -0.01668964 -0.01680134 1000 1000 1000 -0.01827344 -0.01825785 -0.01816321 -0.01798615 -0.01880585 1000 -0.01827344 -0.01825785 -0.01816321 -0.01798615 -0.01880585 1000
lala 9 1.2 0 second 11 1 194 6 3.180001 0.39999794960022 1 1 -1 0 -0.0169 -0.01651086 -0.01608736 -0.01569404 -0.01584828 1000 -0.0169 -0.01651086 -0.01608736 -0.01569404 -0.01584828 1000 -0.01503965 -0.01479851 -0.01502777 -0.01526637 -0.01443561 1000 -0.01503965 -0.01479851 -0.01502777 -0.01526637 -0.01443561 1000
lala 10 0.6 0 first 11 1 195 6 3.780001 1.15999722480774 1 1 -1 1 -0.01654341 -0.0166037 -0.01475202 1000 1000 1000 -0.01654341 -0.0166037 -0.01475202 1000 1000 1000 -0.01207972 -0.01306413 -0.0127678 -0.01242208 -0.01216344 1000 -0.01207972 -0.01306413 -0.0127678 -0.01242208 -0.01216344 1000
lala 12 0.6 0 first 8 1 196 5 3.9 1.23999714851379 1 0 -1 0 -0.01504024 -0.01494275 -0.01518998 1000 1000 1000 -0.01504024 -0.01494275 -0.01518998 1000 1000 1000 -0.01964123 -0.01932539 -0.0187713 -0.01737836 -0.01602008 1000 -0.01964123 -0.01932539 -0.0187713 -0.01737836 -0.01602008 1000
lala 15 0.6 0 first 2 1 197 5 6.3 2.69999599456787 -1 0 -1 1 -0.0156718 -0.01537339 -0.01586395 1000 1000 1000 -0.0156718 -0.01537339 -0.01586395 1000 1000 1000 -0.01524018 -0.01578441 -0.01568035 -0.01539422 -0.01497484 1000 -0.01524018 -0.01578441 -0.01568035 -0.01539422 -0.01497484 1000
lala 12 0.3 1 second 4 1 198 6 6.359999 0.359997987747192 -1 0 1 0 -0.0156018 -0.01414922 -0.01397039 -0.01466702 -0.01481275 1000 -0.0156018 -0.01414922 -0.01397039 -0.01466702 -0.01481275 1000 -0.01439217 -0.01426546 -0.01444946 -0.01453137 -0.01496031 1000 -0.01439217 -0.01426546 -0.01444946 -0.01453137 -0.01496031 1000
lala 7 1.2 1 first 14 1 199 5 3.3 2.93999576568604 0 0 1 1 -0.01618278 -0.01567633 -0.01476164 1000 1000 1000 -0.01618278 -0.01567633 -0.01476164 1000 1000 1000 -0.01441686 -0.01435096 -0.01351021 -0.01330262 -0.01411652 1000 -0.01441686 -0.01435096 -0.01351021 -0.01330262 -0.01411652 1000
lala 8 1.2 0 second 14 1 200 5 2.1 0.559997797012329 0 0 -1 0 -0.01980963 -0.02005257 -0.02041715 -0.01967788 -0.01979983 1000 -0.01980963 -0.02005257 -0.02041715 -0.01967788 -0.01979983 1000 -0.02066587 -0.02036453 -0.02102832 -0.02084217 -0.02051885 1000 -0.02066587 -0.02036453 -0.02102832 -0.02084217 -0.02051885 1000
lala 16 0.6 1 first 2 1 201 5 6.9 0.639997720718384 -1 0 1 0 -0.01942842 -0.0195119 -0.01980327 1000 1000 1000 -0.01942842 -0.0195119 -0.01980327 1000 1000 1000 -0.02089017 -0.01814395 -0.0164754 -0.0168912 -0.01716097 1000 -0.02089017 -0.01814395 -0.0164754 -0.0168912 -0.01716097 1000
lala 17 0.3 1 second 2 1 202 5 6.599999 0.259998083114624 -1 0 1 1 -0.009696873 -0.01030003 -0.01079125 -0.01130728 -0.01090217 1000 -0.009696873 -0.01030003 -0.01079125 -0.01130728 -0.01090217 1000 -0.01214652 -0.0125602 -0.01206554 -0.0117096 -0.01235111 1000 -0.01214652 -0.0125602 -0.01206554 -0.0117096 -0.01235111 1000
lala 5 1.2 0 first 7 1 203 4 2.92 1.5399968624115 1 1 -1 1 -0.01129562 -0.01159435 -0.01140158 1000 1000 1000 -0.01129562 -0.01159435 -0.01140158 1000 1000 1000 -0.01161114 -0.01164125 -0.01185563 -0.0121223 -0.01207516 1000 -0.01161114 -0.01164125 -0.01185563 -0.0121223 -0.01207516 1000
lala 19 0.15 1 second 6 1 204 4 4.290001 0.39999794960022 1 0 1 1 -0.01190585 -0.01282778 -0.01219525 -0.01056019 -0.01111423 1000 -0.01190585 -0.01282778 -0.01219525 -0.01056019 -0.01111423 1000 -0.01020111 -0.01031477 -0.01037591 -0.01021871 -0.01020787 1000 -0.01020111 -0.01031477 -0.01037591 -0.01021871 -0.01020787 1000
lala 6 1.2 1 first 7 1 205 4 4.12 0.679997682571411 1 1 1 0 -0.01222575 -0.0118489 -0.01126272 1000 1000 1000 -0.01222575 -0.0118489 -0.01126272 1000 1000 1000 -0.01004526 -0.01012032 -0.01017722 -0.01048712 -0.009870828 1000 -0.01004526 -0.01012032 -0.01017722 -0.01048712 -0.009870828 1000
lala 6 1.2 0 first 3 1 206 5 5.45 1.57999682426453 -1 1 -1 0 -0.01029673 -0.0102262 -0.01042732 1000 1000 1000 -0.01029673 -0.0102262 -0.01042732 1000 1000 1000 -0.01042232 -0.01064676 -0.0109812 -0.0104706 -0.01077555 1000 -0.01042232 -0.01064676 -0.0109812 -0.0104706 -0.01077555 1000
lala 13 0.15 1 first 17 1 207 6 5.73 2.65999603271484 0 1 1 0 -0.01596028 -0.01646088 -0.01506886 1000 1000 1000 -0.01596028 -0.01646088 -0.01506886 1000 1000 1000 -0.01223759 -0.01201342 -0.01190204 -0.01175067 -0.01218508 1000 -0.01223759 -0.01201342 -0.01190204 -0.01175067 -0.01218508 1000
lala 13 0.3 1 first 8 1 208 5 4.2 1.19999718666077 1 0 1 1 -0.01129017 -0.01121137 -0.01126803 1000 1000 1000 -0.01129017 -0.01121137 -0.01126803 1000 1000 1000 -0.01318192 -0.01349695 -0.0134299 -0.01156498 -0.009565349 1000 -0.01318192 -0.01349695 -0.0134299 -0.01156498 -0.009565349 1000
lala 18 0.3 1 second 2 1 209 5 6.299999 0.599997758865356 -1 0 1 1 -0.00791193 -0.007791635 -0.00776213 -0.007466637 -0.007710562 1000 -0.00791193 -0.007791635 -0.00776213 -0.007466637 -0.007710562 1000 -0.007340502 -0.007118215 -0.007212509 -0.007083552 -0.006932726 1000 -0.007340502 -0.007118215 -0.007212509 -0.007083552 -0.006932726 1000
lala 11 0.6 0 second 11 1 210 6 4.380001 1.01999735832214 1 1 -1 1 -0.008594561 -0.008722316 -0.007695573 -0.006887988 -0.007178906 1000 -0.008594561 -0.008722316 -0.007695573 -0.006887988 -0.007178906 1000 -0.007156387 -0.007271441 -0.00735668 -0.007216804 -0.007264943 1000 -0.007156387 -0.007271441 -0.00735668 -0.007216804 -0.007264943 1000
lala 13 0.15 0 second 16 1 211 6 5.01 0.0599982738494873 0 0 -1 1 -0.009424725 -0.009903492 -0.009721097 -0.009567183 -0.008978945 1000 -0.009424725 -0.009903492 -0.009721097 -0.009567183 -0.008978945 1000 -0.009754219 -0.009878739 -0.009114689 -0.009597898 -0.01102556 1000 -0.009754219 -0.009878739 -0.009114689 -0.009597898 -0.01102556 1000
lala 11 2.4 1 second 5 1 212 6 9.18 0.199998140335083 -1 1 1 1 -0.009521031 -0.009732383 -0.009486618 -0.009501701 -0.009852574 1000 -0.009521031 -0.009732383 -0.009486618 -0.009501701 -0.009852574 1000 -0.009746396 -0.009403472 -0.009053859 -0.009170052 -0.009415776 1000 -0.009746396 -0.009403472 -0.009053859 -0.009170052 -0.009415776 1000
lala 19 0.3 1 second 2 1 213 5 5.999999 0.439997911453247 -1 0 1 0 -0.01047135 -0.01002795 -0.01018314 -0.01020924 -0.00998143 1000 -0.01047135 -0.01002795 -0.01018314 -0.01020924 -0.00998143 1000 -0.01043694 -0.01019267 -0.01003254 -0.009968488 -0.01010218 1000 -0.01043694 -0.01019267 -0.01003254 -0.009968488 -0.01010218 1000
lala 9 1.2 1 second 1 1 214 4 5.320001 2.57999610900879 -1 1 1 0 -0.01172775 -0.01207564 -0.01256381 -0.01210461 -0.01164532 1000 -0.01172775 -0.01207564 -0.01256381 -0.01210461 -0.01164532 1000 -0.0119326 -0.01153275 -0.0111254 -0.01151756 -0.0117195 1000 -0.0119326 -0.01153275 -0.0111254 -0.01151756 -0.0117195 1000
lala 14 0.075 0 second 12 1 215 4 2.94 0.719997644424438 0 0 -1 0 -0.01068856 -0.01091042 -0.01131501 -0.01119473 -0.01049603 1000 -0.01068856 -0.01091042 -0.01131501 -0.01119473 -0.01049603 1000 -0.01183719 -0.01123257 -0.01055448 -0.01063329 -0.01003156 1000 -0.01183719 -0.01123257 -0.01055448 -0.01063329 -0.01003156 1000
lala 14 0.075 1 first 17 1 216 6 5.655001 0.699997663497925 0 1 1 1 -0.009509284 -0.009542045 -0.009428318 1000 1000 1000 -0.009509284 -0.009542045 -0.009428318 1000 1000 1000 -0.01070779 -0.01008051 -0.009465522 -0.009350018 -0.009665904 1000 -0.01070779 -0.01008051 -0.009465522 -0.009350018 -0.009665904 1000
lala 12 1.2 1 first 13 1 217 4 2.920001 1.69999694824219 0 1 1 0 -0.009617999 -0.009771875 -0.009340632 1000 1000 1000 -0.009617999 -0.009771875 -0.009340632 1000 1000 1000 -0.0113018 -0.01104402 -0.01088754 -0.01079996 -0.01048024 1000 -0.0113018 -0.01104402 -0.01088754 -0.01079996 -0.01048024 1000
lala 9 1.2 0 first 14 1 218 5 3.3 0.459997892379761 0 0 -1 0 -0.009524527 -0.01068017 -0.01024363 1000 1000 1000 -0.009524527 -0.01068017 -0.01024363 1000 1000 1000 -0.008484337 -0.008193341 -0.008628057 -0.009309474 -0.008779911 1000 -0.008484337 -0.008193341 -0.008628057 -0.009309474 -0.008779911 1000
lala 7 1.2 0 second 7 1 219 4 2.92 0.899997472763062 1 1 -1 0 -0.01009537 -0.00930521 -0.009007382 -0.009218561 -0.008898003 1000 -0.01009537 -0.00930521 -0.009007382 -0.009218561 -0.008898003 1000 -0.008935992 -0.008284992 -0.007525979 -0.007761539 -0.007373332 1000 -0.008935992 -0.008284992 -0.007525979 -0.007761539 -0.007373332 1000
lala 10 0.6 0 first 10 1 220 6 3.36 0.459997892379761 1 0 -1 1 -0.006174533 -0.005913064 -0.005832625 1000 1000 1000 -0.006174533 -0.005913064 -0.005832625 1000 1000 1000 -0.007418326 -0.008282814 -0.008197412 -0.008418915 -0.008978055 1000 -0.007418326 -0.008282814 -0.008197412 -0.008418915 -0.008978055 1000
lala 17 0.15 0 second 0 1 221 4 5.34 0.679997682571411 -1 0 -1 0 -0.007959037 -0.008120358 -0.008412157 -0.008181 -0.007990252 1000 -0.007959037 -0.008120358 -0.008412157 -0.008181 -0.007990252 1000 -0.009568792 -0.01004294 -0.01006478 -0.009603412 -0.009611339 1000 -0.009568792 -0.01004294 -0.01006478 -0.009603412 -0.009611339 1000
lala 18 0.15 0 second 0 1 222 4 5.49 0.499997854232788 -1 0 -1 0 -0.009367325 -0.008694662 -0.008503815 -0.008467214 -0.008666576 1000 -0.009367325 -0.008694662 -0.008503815 -0.008467214 -0.008666576 1000 -0.00925165 -0.009978389 -0.009484488 -0.009268361 -0.01029902 1000 -0.00925165 -0.009978389 -0.009484488 -0.009268361 -0.01029902 1000
lala 19 0.15 1 second 0 1 223 4 5.64 0.01999831199646 -1 0 1 0 -0.00910185 -0.009316823 -0.009413196 -0.008479747 -0.008982284 1000 -0.00910185 -0.009316823 -0.009413196 -0.008479747 -0.008982284 1000 -0.01144943 -0.01127168 -0.01118008 -0.0112787 -0.01146533 1000 -0.01144943 -0.01127168 -0.01118008 -0.0112787 -0.01146533 1000
lala 13 0.6 1 second 13 1 224 4 2.320001 0.359997987747192 0 1 1 1 -0.01219957 -0.01306448 -0.0186165 -0.0235448 -0.02347272 1000 -0.01219957 -0.01306448 -0.0186165 -0.0235448 -0.02347272 1000 -0.01467318 -0.01432914 -0.01636724 -0.0206274 -0.02278713 1000 -0.01467318 -0.01432914 -0.01636724 -0.0206274 -0.02278713 1000
lala 14 0.15 1 second 16 1 225 6 5.16 0.919997453689575 0 0 1 0 -0.01854595 -0.01847607 -0.01867728 -0.01876712 -0.01875249 1000 -0.01854595 -0.01847607 -0.01867728 -0.01876712 -0.01875249 1000 -0.01849513 -0.01805251 -0.01781203 -0.01758048 -0.01762993 1000 -0.01849513 -0.01805251 -0.01781203 -0.01758048 -0.01762993 1000
lala 12 0.6 0 first 11 1 226 6 4.980001 1.0999972820282 1 1 -1 1 -0.01858198 -0.01830794 -0.01778733 1000 1000 1000 -0.01858198 -0.01830794 -0.01778733 1000 1000 1000 -0.01700544 -0.01705091 -0.01762075 -0.0177618 -0.01771278 1000 -0.01700544 -0.01705091 -0.01762075 -0.0177618 -0.01771278 1000
lala 13 0.3 1 first 4 1 227 6 6.059999 0.679997682571411 -1 0 1 0 -0.01637858 -0.01657881 -0.01578373 1000 1000 1000 -0.01637858 -0.01657881 -0.01578373 1000 1000 1000 -0.01506013 -0.01501305 -0.01468326 -0.01475601 -0.0146567 1000 -0.01506013 -0.01501305 -0.01468326 -0.01475601 -0.0146567 1000
lala 10 1.2 1 second 14 1 228 5 4.5 1.49999690055847 0 0 1 0 -0.01275391 -0.01268172 -0.01348953 -0.01412322 -0.01432443 1000 -0.01275391 -0.01268172 -0.01348953 -0.01412322 -0.01432443 1000 -0.01306981 -0.01365491 -0.0138564 -0.01350356 -0.01344838 1000 -0.01306981 -0.01365491 -0.0138564 -0.01350356 -0.01344838 1000
lala 14 0.075 1 second 9 1 229 5 5.075 0.61999773979187 1 1 1 1 -0.01472514 -0.01594786 -0.01404883 -0.01304535 -0.0137451 1000 -0.01472514 -0.01594786 -0.01404883 -0.01304535 -0.0137451 1000 -0.01394854 -0.01458587 -0.01519004 -0.0151373 -0.01466761 1000 -0.01394854 -0.01458587 -0.01519004 -0.0151373 -0.01466761 1000
lala 20 0.075 1 second 0 1 230 4 5.565 0.759997606277466 -1 0 1 1 -0.01497409 -0.01528784 -0.01462494 -0.01461571 -0.01494282 1000 -0.01497409 -0.01528784 -0.01462494 -0.01461571 -0.01494282 1000 -0.01553805 -0.01522495 -0.01475355 -0.01480392 -0.01507535 1000 -0.01553805 -0.01522495 -0.01475355 -0.01480392 -0.01507535 1000
lala 15 0.0375 0 first 12 1 231 4 2.9775 0.0399982929229736 0 0 -1 0 -0.0163523 -0.01565222 -0.01448585 1000 1000 1000 -0.0163523 -0.01565222 -0.01448585 1000 1000 1000 -0.01495102 -0.01507105 -0.01539953 -0.01610282 -0.0155825 1000 -0.01495102 -0.01507105 -0.01539953 -0.01610282 -0.0155825 1000
lala 10 0.6 1 first 1 1 232 4 4.720001 1.41999697685242 -1 1 1 1 -0.01622679 -0.01572703 -0.01543216 1000 1000 1000 -0.01622679 -0.01572703 -0.01543216 1000 1000 1000 -0.01512801 -0.01487823 -0.01565936 -0.01472563 -0.01529126 1000 -0.01512801 -0.01487823 -0.01565936 -0.01472563 -0.01529126 1000
lala 14 0.6 0 second 13 1 233 4 1.720001 0.439997911453247 0 1 -1 1 -0.01543632 -0.01571334 -0.01617038 -0.0155441 -0.0158352 1000 -0.01543632 -0.01571334 -0.01617038 -0.0155441 -0.0158352 1000 -0.01716583 -0.01763486 -0.0180018 -0.0173664 -0.01693655 1000 -0.01716583 -0.01763486 -0.0180018 -0.0173664 -0.01693655 1000
lala 12 1.2 1 second 5 1 234 6 7.98 0.61999773979187 -1 1 1 0 -0.01590012 -0.01594581 -0.01653204 -0.01642723 -0.01657125 1000 -0.01590012 -0.01594581 -0.01653204 -0.01642723 -0.01657125 1000 -0.01725554 -0.01726012 -0.01702539 -0.01664351 -0.01675046 1000 -0.01725554 -0.01726012 -0.01702539 -0.01664351 -0.01675046 1000
lala 11 0.6 0 second 1 1 235 4 4.120001 1.0999972820282 -1 1 -1 0 -0.01568309 -0.01548903 -0.01531371 -0.01569207 -0.01599799 1000 -0.01568309 -0.01548903 -0.01531371 -0.01569207 -0.01599799 1000 -0.01661834 -0.01603723 -0.01568535 -0.01564824 -0.01592719 1000 -0.01661834 -0.01603723 -0.01568535 -0.01564824 -0.01592719 1000
lala 20 0.6 1 second 2 1 236 5 5.399999 0.779997587203979 -1 0 1 0 -0.01669888 -0.01674617 -0.01676085 -0.01676854 -0.01622011 1000 -0.01669888 -0.01674617 -0.01676085 -0.01676854 -0.01622011 1000 -0.0161339 -0.01588932 -0.01588883 -0.01606267 -0.01627236 1000 -0.0161339 -0.01588932 -0.01588883 -0.01606267 -0.01627236 1000
lala 12 0.3 1 second 1 1 237 4 4.420001 0.879997491836548 -1 1 1 0 -0.01852045 -0.01782611 -0.01746326 -0.01717633 -0.01727378 1000 -0.01852045 -0.01782611 -0.01746326 -0.01717633 -0.01727378 1000 -0.01681463 -0.01635643 -0.01677943 -0.01763714 -0.01748127 1000 -0.01681463 -0.01635643 -0.01677943 -0.01763714 -0.01748127 1000
lala 13 0.075 1 second 15 1 238 5 3.875 1.07999730110168 0 1 1 0 -0.01706981 -0.01699399 -0.01733867 -0.01733506 -0.01733313 1000 -0.01706981 -0.01699399 -0.01733867 -0.01733506 -0.01733313 1000 -0.01826115 -0.01841086 -0.01820516 -0.01815861 -0.01870448 1000 -0.01826115 -0.01841086 -0.01820516 -0.01815861 -0.01870448 1000
lala 21 0.075 1 second 0 1 239 4 5.49 1.05999732017517 -1 0 1 1 -0.01711393 -0.01733146 -0.0171601 -0.01665629 -0.0160846 1000 -0.01711393 -0.01733146 -0.0171601 -0.01665629 -0.0160846 1000 -0.01662059 -0.01669122 -0.01657891 -0.0166238 -0.01677038 1000 -0.01662059 -0.01669122 -0.01657891 -0.0166238 -0.01677038 1000
lala 7 1.2 1 second 3 1 240 5 6.65 0.23999810218811 -1 1 1 0 -0.01541795 -0.01534472 -0.01571606 -0.01613531 -0.01596401 1000 -0.01541795 -0.01534472 -0.01571606 -0.01613531 -0.01596401 1000 -0.01452328 -0.01487404 -0.01567593 -0.01526052 -0.0151163 1000 -0.01452328 -0.01487404 -0.01567593 -0.01526052 -0.0151163 1000
lala 14 0.6 0 first 4 1 241 6 5.459999 1.21999716758728 -1 0 -1 1 -0.01485064 -0.01512013 -0.01456448 1000 1000 1000 -0.01485064 -0.01512013 -0.01456448 1000 1000 1000 -0.01509555 -0.01470532 -0.01469202 -0.01451984 -0.01529989 1000 -0.01509555 -0.01470532 -0.01469202 -0.01451984 -0.01529989 1000
lala 11 0.6 1 second 14 1 242 5 3.9 0.159998178482056 0 0 1 1 -0.01532616 -0.01603283 -0.01655307 -0.0158439 -0.01548397 1000 -0.01532616 -0.01603283 -0.01655307 -0.0158439 -0.01548397 1000 -0.0140933 -0.01364766 -0.01334065 -0.01451886 -0.01505842 1000 -0.0140933 -0.01364766 -0.01334065 -0.01451886 -0.01505842 1000
lala 15 0.075 0 second 17 1 243 6 5.580001 0.799997568130493 0 1 -1 0 -0.01650452 -0.01640004 -0.01545708 -0.01697475 -0.01772509 1000 -0.01650452 -0.01640004 -0.01545708 -0.01697475 -0.01772509 1000 -0.01439621 -0.01476341 -0.01403775 -0.01324074 -0.01298004 1000 -0.01439621 -0.01476341 -0.01403775 -0.01324074 -0.01298004 1000
lala 16 0.0375 0 second 12 1 244 4 3.015 1.01999735832214 0 0 -1 0 -0.01628758 -0.01581527 -0.01494308 -0.01363318 -0.01342084 1000 -0.01628758 -0.01581527 -0.01494308 -0.01363318 -0.01342084 1000 -0.0128172 -0.01320284 -0.01339806 -0.01366439 -0.01416998 1000 -0.0128172 -0.01320284 -0.01339806 -0.01366439 -0.01416998 1000
lala 15 0.0375 0 first 9 1 245 5 5.0375 3.45999526977539 1 1 -1 0 -0.01523273 -0.01393402 -0.0137147 1000 1000 1000 -0.01523273 -0.01393402 -0.0137147 1000 1000 1000 -0.01852868 -0.01832277 -0.01723094 -0.01557335 -0.01385828 1000 -0.01852868 -0.01832277 -0.01723094 -0.01557335 -0.01385828 1000
lala 17 0.0375 1 first 12 1 246 4 3.0525 2.07999658584595 0 0 1 0 -0.01368088 -0.01334394 -0.01272307 1000 1000 1000 -0.01368088 -0.01334394 -0.01272307 1000 1000 1000 -0.01170871 -0.01175666 -0.01214196 -0.01248929 -0.01252317 1000 -0.01170871 -0.01175666 -0.01214196 -0.01248929 -0.01252317 1000
lala 13 1.2 1 second 5 1 247 6 6.780001 0.219998121261597 -1 1 1 1 -0.01267278 -0.01213531 -0.01215841 -0.01254147 -0.01254294 1000 -0.01267278 -0.01213531 -0.01215841 -0.01254147 -0.01254294 1000 -0.01325425 -0.01263699 -0.01227195 -0.01225096 -0.01239757 1000 -0.01325425 -0.01263699 -0.01227195 -0.01225096 -0.01239757 1000
lala 14 1.2 1 second 5 1 248 6 5.580001 0.359997987747192 -1 1 1 0 -0.01166256 -0.01198953 -0.0122172 -0.01217391 -0.01209505 1000 -0.01166256 -0.01198953 -0.0122172 -0.01217391 -0.01209505 1000 -0.01367369 -0.01388722 -0.01442581 -0.01455924 -0.01384605 1000 -0.01367369 -0.01388722 -0.01442581 -0.01455924 -0.01384605 1000
lala 11 0.3 0 second 10 1 249 6 3.66 1.59999680519104 1 0 -1 1 -0.01258017 -0.01229719 -0.01203808 -0.01222576 -0.01218813 1000 -0.01258017 -0.01229719 -0.01203808 -0.01222576 -0.01218813 1000 -0.01221176 -0.011605 -0.01210648 -0.01196633 -0.01167144 1000 -0.01221176 -0.011605 -0.01210648 -0.01196633 -0.01167144 1000
lala 15 0.075 1 first 16 1 250 6 5.085 0.539997816085815 0 0 1 0 0.00690136 0.02586289 0.01627158 0.007548564 0.001242492 -0.004024811 0.00690136 0.02586289 0.01627158 0.007548564 0.001242492 -0.004024811 -0.006289233 -0.004986877 -0.005443988 -0.003821949 -0.004101581 1000 -0.006289233 -0.004986877 -0.005443988 -0.003821949 -0.004101581 1000
lala 13 1.2 1 first 11 1 251 6 6.180001 0.339998006820679 1 1 1 0 -0.007819289 -0.007167732 -0.007830711 1000 1000 1000 -0.007819289 -0.007167732 -0.007830711 1000 1000 1000 -0.01368627 -0.01287531 -0.01372143 -0.01471554 -0.0146648 1000 -0.01368627 -0.01287531 -0.01372143 -0.01471554 -0.0146648 1000
lala 15 0.3 0 second 13 1 252 4 2.020001 0.139998197555542 0 1 -1 0 -0.02213025 -0.02195537 -0.02060191 -0.02116286 -0.02223981 1000 -0.02213025 -0.02195537 -0.02060191 -0.02116286 -0.02223981 1000 -0.0243825 -0.02495494 -0.02449743 -0.02408591 -0.02418365 1000 -0.0243825 -0.02495494 -0.02449743 -0.02408591 -0.02418365 1000
lala 14 0.6 1 second 11 1 253 6 5.580001 0.219998121261597 1 1 1 1 -0.01472823 -0.01664063 -0.01539384 -0.01400722 -0.01374431 1000 -0.01472823 -0.01664063 -0.01539384 -0.01400722 -0.01374431 1000 -0.01632847 -0.01666815 -0.01704951 -0.0178739 -0.01924944 1000 -0.01632847 -0.01666815 -0.01704951 -0.0178739 -0.01924944 1000
lala 15 2.4 0 second 5 1 254 6 3.180001 2.55999612808228 -1 1 -1 1 -0.02031271 -0.02034014 -0.02042104 -0.02020493 -0.02052052 1000 -0.02031271 -0.02034014 -0.02042104 -0.02020493 -0.02052052 1000 -0.02219113 -0.02204986 -0.02158304 -0.02231577 -0.02322165 1000 -0.02219113 -0.02204986 -0.02158304 -0.02231577 -0.02322165 1000
lala 12 0.6 0 second 14 1 255 5 3.3 0.659997701644897 0 0 -1 1 -0.01215962 -0.0117063 -0.0109894 -0.01174119 -0.0125649 1000 -0.01215962 -0.0117063 -0.0109894 -0.01174119 -0.0125649 1000 -0.01661257 -0.01723999 -0.01719923 -0.01780394 -0.01871552 1000 -0.01661257 -0.01723999 -0.01719923 -0.01780394 -0.01871552 1000
lala 16 1.2 0 second 5 1 256 6 4.380001 0.479997873306274 -1 1 -1 0 -0.02185424 -0.02188686 -0.01762699 -0.01676994 -0.01740422 1000 -0.02185424 -0.02188686 -0.01762699 -0.01676994 -0.01740422 1000 -0.02023805 -0.0200688 -0.01960754 -0.01904651 -0.01944392 1000 -0.02023805 -0.0200688 -0.01960754 -0.01904651 -0.01944392 1000
lala 13 0.3 0 second 14 1 257 5 3.6 0.179998159408569 0 0 -1 1 -0.02051032 -0.02035004 -0.02036133 -0.01998858 -0.01955895 1000 -0.02051032 -0.02035004 -0.02036133 -0.01998858 -0.01955895 1000 -0.01996568 -0.02034291 -0.02105152 -0.02087159 -0.02074342 1000 -0.01996568 -0.02034291 -0.02105152 -0.02087159 -0.02074342 1000
lala 16 0.075 1 first 16 1 258 6 5.01 0.259998083114624 0 0 1 1 -0.02309349 -0.02306722 -0.02227741 1000 1000 1000 -0.02309349 -0.02306722 -0.02227741 1000 1000 1000 -0.02326072 -0.02274751 -0.02202298 -0.02221256 -0.02221135 1000 -0.02326072 -0.02274751 -0.02202298 -0.02221256 -0.02221135 1000
lala 16 0.01875 1 first 9 1 259 5 5.05625 0.539997816085815 1 1 1 1 -0.02233909 -0.02124267 -0.02125426 1000 1000 1000 -0.02233909 -0.02124267 -0.02125426 1000 1000 1000 -0.02011237 -0.01998879 -0.02037513 -0.02043061 -0.02096933 1000 -0.02011237 -0.01998879 -0.02037513 -0.02043061 -0.02096933 1000
lala 17 1.2 0 second 5 1 260 6 5.580001 0.499997854232788 -1 1 -1 0 -0.02055558 -0.02067598 -0.02079073 -0.02124762 -0.02112445 1000 -0.02055558 -0.02067598 -0.02079073 -0.02124762 -0.02112445 1000 -0.01984859 -0.01983753 -0.02007128 -0.01984276 -0.02015939 1000 -0.01984859 -0.01983753 -0.02007128 -0.01984276 -0.02015939 1000
lala 17 0.075 1 second 16 1 261 6 4.935 0.199998140335083 0 0 1 0 -0.01760777 -0.01794153 -0.0188282 -0.01902347 -0.01766874 1000 -0.01760777 -0.01794153 -0.0188282 -0.01902347 -0.01766874 1000 -0.01828495 -0.0189155 -0.01860401 -0.01860388 -0.01853571 1000 -0.01828495 -0.0189155 -0.01860401 -0.01860388 -0.01853571 1000
lala 14 0.0375 0 second 15 1 262 5 3.8375 0.439997911453247 0 1 -1 1 -0.01888845 -0.01888084 -0.0195422 -0.01930262 -0.01888092 1000 -0.01888845 -0.01888084 -0.0195422 -0.01930262 -0.01888092 1000 -0.01559936 -0.01348852 -0.0130071 -0.01314479 -0.01324384 1000 -0.01559936 -0.01348852 -0.0130071 -0.01314479 -0.01324384 1000
lala 18 0.01875 0 second 12 1 263 4 3.03375 1.25999712944031 0 0 -1 0 -0.007713491 -0.007904302 -0.007638295 -0.007252933 -0.006977527 1000 -0.007713491 -0.007904302 -0.007638295 -0.007252933 -0.006977527 1000 -0.00627103 -0.005398327 -0.007116389 -0.008123863 -0.009615595 1000 -0.00627103 -0.005398327 -0.007116389 -0.008123863 -0.009615595 1000
lala 15 0.01875 0 first 15 1 264 5 3.85625 0.359997987747192 0 1 -1 1 -0.0101064 -0.01116103 -0.01219162 1000 1000 1000 -0.0101064 -0.01116103 -0.01219162 1000 1000 1000 -0.007481683 -0.00784128 -0.007923428 -0.007794086 -0.007445744 1000 -0.007481683 -0.00784128 -0.007923428 -0.007794086 -0.007445744 1000
lala 16 0.3 0 second 13 1 265 4 2.320001 0.359997987747192 0 1 -1 0 -0.005725355 -0.006071516 -0.005381108 -0.001897541 -0.0007766491 1000 -0.005725355 -0.006071516 -0.005381108 -0.001897541 -0.0007766491 1000 0.0003089442 -0.0005531146 -0.001548766 -0.002552104 -0.002568355 1000 0.0003089442 -0.0005531146 -0.001548766 -0.002552104 -0.002568355 1000
lala 17 0.3 0 first 13 1 266 4 2.620001 0.519997835159302 0 1 -1 0 -0.003942476 -0.004062241 -0.003540885 1000 1000 1000 -0.003942476 -0.004062241 -0.003540885 1000 1000 1000 -0.004131612 -0.003993908 -0.004208335 -0.004278137 -0.004275074 1000 -0.004131612 -0.003993908 -0.004208335 -0.004278137 -0.004275074 1000
lala 15 0.3 0 first 4 1 267 6 5.759999 0.639997720718384 -1 0 -1 1 -0.006168944 -0.005568595 -0.00546717 1000 1000 1000 -0.006168944 -0.005568595 -0.00546717 1000 1000 1000 -0.005113638 -0.005670222 -0.005712595 -0.005581339 -0.005443435 1000 -0.005113638 -0.005670222 -0.005712595 -0.005581339 -0.005443435 1000
lala 14 0.15 0 second 8 1 268 5 4.05 1.89999675750732 1 0 -1 0 -0.00523066 -0.005397968 -0.005473215 -0.004128986 -0.004192121 1000 -0.00523066 -0.005397968 -0.005473215 -0.004128986 -0.004192121 1000 -0.00449447 -0.00350226 -0.003645115 -0.003889279 -0.00421168 1000 -0.00449447 -0.00350226 -0.003645115 -0.003889279 -0.00421168 1000
lala 17 0.009375 1 first 9 1 269 5 5.046875 0.23999810218811 1 1 1 1 -0.004224882 -0.002889848 -0.002699129 1000 1000 1000 -0.004224882 -0.002889848 -0.002699129 1000 1000 1000 -0.002596297 -0.003011154 -0.002355834 -0.001805791 -0.00208055 1000 -0.002596297 -0.003011154 -0.002355834 -0.001805791 -0.00208055 1000
lala 22 0.075 0 second 0 1 270 4 5.415 0.839997529983521 -1 0 -1 1 -0.001574391 -0.00124377 -0.0002722758 0.0005885008 0.001245497 1000 -0.001574391 -0.00124377 -0.0002722758 0.0005885008 0.001245497 1000 0.0004072687 -0.0005255942 -0.0009594758 -0.0003585941 -0.0001455387 1000 0.0004072687 -0.0005255942 -0.0009594758 -0.0003585941 -0.0001455387 1000
lala 18 0.6 1 second 13 1 271 4 3.220001 0.699997663497925 0 1 1 1 0.0007826206 0.0009251523 0.0006946435 0.0002894681 0.001197585 1000 0.0007826206 0.0009251523 0.0006946435 0.0002894681 0.001197585 1000 0.001174602 0.0008852838 0.001622883 0.001976552 0.001992485 1000 0.001174602 0.0008852838 0.001622883 0.001976552 0.001992485 1000
lala 15 0.6 1 first 11 1 272 6 4.980001 0.639997720718384 1 1 1 0 0.005088849 0.007693532 0.005046885 1000 1000 1000 0.005088849 0.007693532 0.005046885 1000 1000 1000 -0.009452656 -0.007906535 -0.004877736 -0.003629821 -0.00305851 1000 -0.009452656 -0.007906535 -0.004877736 -0.003629821 -0.00305851 1000
lala 19 0.009375 0 first 12 1 273 4 3.043125 0.339998006820679 0 0 -1 1 -0.003724653 -0.004088652 -0.003123691 1000 1000 1000 -0.003724653 -0.004088652 -0.003123691 1000 1000 1000 -0.002632967 -0.003003229 -0.00308424 -0.002322641 -0.001512109 1000 -0.002632967 -0.003003229 -0.00308424 -0.002322641 -0.001512109 1000
lala 16 0.01875 1 second 15 1 274 5 3.875 1.81999683380127 0 1 1 1 -0.006542187 -0.01069724 -0.01373279 -0.01407994 -0.01370957 1000 -0.006542187 -0.01069724 -0.01373279 -0.01407994 -0.01370957 1000 -0.00244075 -0.001689489 0.0006640318 0.0004823013 -0.001418612 1000 -0.00244075 -0.001689489 0.0006640318 0.0004823013 -0.001418612 1000
lala 20 0.009375 0 second 12 1 275 4 3.0525 1.75999689102173 0 0 -1 1 -0.002516055 -0.002609987 -0.003275638 -0.003162024 -0.002657011 1000 -0.002516055 -0.002609987 -0.003275638 -0.003162024 -0.002657011 1000 -0.003082906 -0.003077179 -0.003126704 -0.003141593 -0.003040944 1000 -0.003082906 -0.003077179 -0.003126704 -0.003141593 -0.003040944 1000
lala 16 0.0375 0 first 17 1 276 6 5.617501 0.639997720718384 0 1 -1 0 -0.003346972 -0.00276513 -0.002443291 1000 1000 1000 -0.003346972 -0.00276513 -0.002443291 1000 1000 1000 -0.003402911 -0.0030955 -0.003291725 -0.003471176 -0.003301278 1000 -0.003402911 -0.0030955 -0.003291725 -0.003471176 -0.003301278 1000
lala 17 0.0375 1 second 17 1 277 6 5.655001 0.319998025894165 0 1 1 0 -0.004386969 -0.004443176 -0.004432251 -0.004873594 -0.004228725 1000 -0.004386969 -0.004443176 -0.004432251 -0.004873594 -0.004228725 1000 -0.00401414 -0.003618998 -0.003877154 -0.003826318 -0.003583612 1000 -0.00401414 -0.003618998 -0.003877154 -0.003826318 -0.003583612 1000
lala 15 0.075 1 second 8 1 278 5 4.125 2.27999639511108 1 0 1 0 -0.002567496 -0.002662878 -0.0027372 -0.002225089 -0.002620633 1000 -0.002567496 -0.002662878 -0.0027372 -0.002225089 -0.002620633 1000 -0.002651626 -0.002359906 -0.003238404 -0.002974603 -0.002640648 1000 -0.002651626 -0.002359906 -0.003238404 -0.002974603 -0.002640648 1000
lala 18 0.009375 1 second 9 1 279 5 5.0375 0.379997968673706 1 1 1 1 -0.001324915 -0.00103306 0.0006146951 0.004742427 0.004628959 1000 -0.001324915 -0.00103306 0.0006146951 0.004742427 0.004628959 1000 -0.001707086 -0.0003307939 0.001427374 0.0005828599 0.000800086 1000 -0.001707086 -0.0003307939 0.001427374 0.0005828599 0.000800086 1000
lala 14 0.3 1 first 14 1 280 5 3.9 0.959997415542603 0 0 1 1 0.008524881 0.008473435 0.0081189 1000 1000 1000 0.008524881 0.008473435 0.0081189 1000 1000 1000 0.006419423 0.00613676 0.005988391 0.005691776 0.006020864 1000 0.006419423 0.00613676 0.005988391 0.005691776 0.006020864 1000
lala 16 0.0375 1 second 8 1 281 5 4.0875 1.51999688148499 1 0 1 1 0.0047001 0.003665501 0.003434276 0.004593866 0.005517622 1000 0.0047001 0.003665501 0.003434276 0.004593866 0.005517622 1000 0.002684076 0.002180137 0.003027617 0.002938332 0.00180581 1000 0.002684076 0.002180137 0.003027617 0.002938332 0.00180581 1000
lala 8 1.2 0 second 3 1 282 5 5.45 0.979997396469116 -1 1 -1 1 0.0004670369 5.546685E-05 -0.0001158111 0.0006867868 0.0008743533 1000 0.0004670369 5.546685E-05 -0.0001158111 0.0006867868 0.0008743533 1000 0.002196889 0.001850744 0.002625018 0.002394376 0.001675973 1000 0.002196889 0.001850744 0.002625018 0.002394376 0.001675973 1000
lala 17 0.0375 1 first 8 1 283 5 4.05 0.99999737739563 1 0 1 0 0.001446738 -0.0002067134 -0.001083796 1000 1000 1000 0.001446738 -0.0002067134 -0.001083796 1000 1000 1000 0.001755983 0.001837777 0.00145241 0.002303054 0.002169828 1000 0.001755983 0.001837777 0.00145241 0.002303054 0.002169828 1000
lala 21 0.009375 0 first 12 1 284 4 3.061875 1.23999714851379 0 0 -1 1 0.0008893231 0.0007776113 0.001717801 1000 1000 1000 0.0008893231 0.0007776113 0.001717801 1000 1000 1000 -0.001400505 -0.001460907 -0.001150449 -0.0003751038 -0.0009717873 1000 -0.001400505 -0.001460907 -0.001150449 -0.0003751038 -0.0009717873 1000
lala 8 1.2 0 first 7 1 285 4 4.12 1.5399968624115 1 1 -1 0 -0.005030814 -0.005656016 -0.005301361 1000 1000 1000 -0.005030814 -0.005656016 -0.005301361 1000 1000 1000 -0.005853568 -0.005565112 -0.005523905 -0.006035719 -0.006324386 1000 -0.005853568 -0.005565112 -0.005523905 -0.006035719 -0.006324386 1000
lala 18 0.0375 1 second 8 1 286 5 4.0125 0.379997968673706 1 0 1 1 -0.007165629 -0.005804169 -0.005779231 -0.00619547 -0.005967814 1000 -0.007165629 -0.005804169 -0.005779231 -0.00619547 -0.005967814 1000 -0.006878803 -0.007563597 -0.007720715 -0.007715255 -0.00805749 1000 -0.006878803 -0.007563597 -0.007720715 -0.007715255 -0.00805749 1000
lala 12 0.3 1 second 10 1 287 6 3.96 1.15999722480774 1 0 1 0 -0.008999233 -0.008671155 -0.008261172 -0.008248584 -0.008695238 1000 -0.008999233 -0.008671155 -0.008261172 -0.008248584 -0.008695238 1000 -0.009331185 -0.01036425 -0.01078734 -0.0110081 -0.01080736 1000 -0.009331185 -0.01036425 -0.01078734 -0.0110081 -0.01080736 1000
lala 20 0.15 0 second 6 1 288 4 4.140001 0.539997816085815 1 0 -1 1 -0.01013668 -0.007706889 -0.009223879 -0.01099361 -0.008696591 1000 -0.01013668 -0.007706889 -0.009223879 -0.01099361 -0.008696591 1000 -0.01033833 -0.00989667 -0.0104008 -0.01101173 -0.01124721 1000 -0.01033833 -0.00989667 -0.0104008 -0.01101173 -0.01124721 1000
lala 13 0.15 0 first 10 1 289 6 3.809999 0.879997491836548 1 0 -1 0 -0.01030676 -0.01139012 -0.01227167 1000 1000 1000 -0.01030676 -0.01139012 -0.01227167 1000 1000 1000 -0.009520268 -0.009609085 -0.00949302 -0.009930922 -0.009639363 1000 -0.009520268 -0.009609085 -0.00949302 -0.009930922 -0.009639363 1000
lala 23 0.0375 1 first 0 1 290 4 5.4525 0.379997968673706 -1 0 1 1 -0.01287657 -0.01385723 -0.01393122 1000 1000 1000 -0.01287657 -0.01385723 -0.01393122 1000 1000 1000 -0.01312177 -0.01371561 -0.01235218 -0.01280267 -0.01432697 1000 -0.01312177 -0.01371561 -0.01235218 -0.01280267 -0.01432697 1000
lala 18 0.01875 0 first 17 1 291 6 5.63625 1.55999684333801 0 1 -1 1 -0.01663659 -0.01674835 -0.01668682 1000 1000 1000 -0.01663659 -0.01674835 -0.01668682 1000 1000 1000 -0.01514099 -0.01539231 -0.01532252 -0.01523193 -0.01488853 1000 -0.01514099 -0.01539231 -0.01532252 -0.01523193 -0.01488853 1000
lala 19 0.3 0 second 13 1 292 4 2.920001 0.859997510910034 0 1 -1 0 -0.01765551 -0.01672945 -0.01665238 -0.01843968 -0.02107912 1000 -0.01765551 -0.01672945 -0.01665238 -0.01843968 -0.02107912 1000 -0.0189748 -0.01892634 -0.01867582 -0.01825501 -0.01803046 1000 -0.0189748 -0.01892634 -0.01867582 -0.01825501 -0.01803046 1000
lala 19 0.009375 0 first 17 1 293 6 5.645626 0.819997549057007 0 1 -1 0 -0.02093585 -0.02111791 -0.02129326 1000 1000 1000 -0.02093585 -0.02111791 -0.02129326 1000 1000 1000 -0.03349755 -0.03227549 -0.02983484 -0.02827476 -0.02718117 1000 -0.03349755 -0.03227549 -0.02983484 -0.02827476 -0.02718117 1000
lala 16 0.6 0 second 11 1 294 6 4.380002 0.639997720718384 1 1 -1 0 -0.01889187 -0.01779698 -0.0165718 -0.01602255 -0.01613641 1000 -0.01889187 -0.01779698 -0.0165718 -0.01602255 -0.01613641 1000 -0.01660436 -0.01667384 -0.01697977 -0.01699473 -0.01696615 1000 -0.01660436 -0.01667384 -0.01697977 -0.01699473 -0.01696615 1000
lala 24 0.01875 1 second 0 1 295 4 5.43375 0.319998025894165 -1 0 1 1 -0.01722459 -0.01665029 -0.01557407 -0.01493101 -0.01522908 1000 -0.01722459 -0.01665029 -0.01557407 -0.01493101 -0.01522908 1000 -0.01745091 -0.01722766 -0.01672129 -0.01631077 -0.01655068 1000 -0.01745091 -0.01722766 -0.01672129 -0.01631077 -0.01655068 1000
lala 16 0.3 1 second 4 1 296 6 6.059999 0.919997453689575 -1 0 1 0 -0.01559839 -0.01506258 -0.01530092 -0.01532682 -0.01525119 1000 -0.01559839 -0.01506258 -0.01530092 -0.01532682 -0.01525119 1000 -0.01585212 -0.01611447 -0.01670428 -0.01678254 -0.01671732 1000 -0.01585212 -0.01611447 -0.01670428 -0.01678254 -0.01671732 1000
lala 17 0.3 1 first 11 1 297 6 4.680002 0.899997472763062 1 1 1 1 -0.01388195 -0.0142303 -0.01486194 1000 1000 1000 -0.01388195 -0.0142303 -0.01486194 1000 1000 1000 -0.01552691 -0.01478111 -0.0150641 -0.01508456 -0.01409207 1000 -0.01552691 -0.01478111 -0.0150641 -0.01508456 -0.01409207 1000
lala 18 0.15 0 first 11 1 298 6 4.530002 1.87999677658081 1 1 -1 0 -0.01510499 -0.01536719 -0.01583271 1000 1000 1000 -0.01510499 -0.01536719 -0.01583271 1000 1000 1000 -0.01490682 -0.01342553 -0.01368094 -0.01455474 -0.01454967 1000 -0.01490682 -0.01342553 -0.01368094 -0.01455474 -0.01454967 1000
lala 20 0.009375 0 first 17 1 299 6 5.655001 0.559997797012329 0 1 -1 0 -0.01419629 -0.01414804 -0.01336915 1000 1000 1000 -0.01419629 -0.01414804 -0.01336915 1000 1000 1000 -0.01475782 -0.01566515 -0.01500868 -0.01536823 -0.01673509 1000 -0.01475782 -0.01566515 -0.01500868 -0.01536823 -0.01673509 1000
lala 17 0.15 1 first 4 1 300 6 5.909999 0.799997568130493 -1 0 1 0 -0.0189829 -0.01690064 -0.01277438 -0.01090394 -0.01130586 -0.01110857 -0.0189829 -0.01690064 -0.01277438 -0.01090394 -0.01130586 -0.01110857 -0.01145233 -0.01134073 -0.01178467 -0.01075606 -0.01028304 1000 -0.01145233 -0.01134073 -0.01178467 -0.01075606 -0.01028304 1000
lala 19 0.075 1 second 8 1 301 5 3.9375 1.15999722480774 1 0 1 1 -0.009521145 -0.009858591 -0.009989077 -0.01023572 -0.01056712 1000 -0.009521145 -0.009858591 -0.009989077 -0.01023572 -0.01056712 1000 -0.006156355 -0.004709804 -0.004490537 -0.004084014 -0.003848924 1000 -0.006156355 -0.004709804 -0.004490537 -0.004084014 -0.003848924 1000
lala 15 0.15 0 first 14 1 302 5 3.75 0.299998044967651 0 0 -1 0 -0.001581839 -0.002462391 -0.002553562 1000 1000 1000 -0.001581839 -0.002462391 -0.002553562 1000 1000 1000 -0.002418342 -0.003153389 -0.003541918 -0.002797514 -0.001938425 1000 -0.002418342 -0.003153389 -0.003541918 -0.002797514 -0.001938425 1000
lala 13 0.15 1 first 1 1 303 4 4.270001 1.17999720573425 -1 1 1 1 -0.004431863 -0.01039955 -0.009617991 1000 1000 1000 -0.004431863 -0.01039955 -0.009617991 1000 1000 1000 -0.01851907 -0.01040516 -0.002921678 -0.0008209646 -0.004504359 1000 -0.01851907 -0.01040516 -0.002921678 -0.0008209646 -0.004504359 1000
lala 16 0.075 0 first 14 1 304 5 3.825 0.279998064041138 0 0 -1 0 -0.004774869 -0.004435103 -0.00476965 1000 1000 1000 -0.004774869 -0.004435103 -0.00476965 1000 1000 1000 -0.003103837 -0.003868057 -0.003960325 -0.003731667 -0.00347683 1000 -0.003103837 -0.003868057 -0.003960325 -0.003731667 -0.00347683 1000
lala 17 0.009375 0 second 15 1 305 5 3.865625 0.339998006820679 0 1 -1 1 0.0004212526 0.001386615 0.00211456 0.002881771 0.002563552 1000 0.0004212526 0.001386615 0.00211456 0.002881771 0.002563552 1000 0.003624938 0.003448109 0.002841821 0.003630424 0.003712522 1000 0.003624938 0.003448109 0.002841821 0.003630424 0.003712522 1000
lala 18 0.15 1 second 16 1 306 6 4.785 0.379997968673706 0 0 1 0 0.001642128 0.004128761 0.004388144 0.004480486 0.005318364 1000 0.001642128 0.004128761 0.004388144 0.004480486 0.005318364 1000 0.005174223 0.004823697 0.004798479 0.004631947 0.0043886 1000 0.005174223 0.004823697 0.004798479 0.004631947 0.0043886 1000
lala 9 1.2 1 first 3 1 307 5 6.65 0.139998197555542 -1 1 1 0 0.005379507 0.005584774 0.005362639 1000 1000 1000 0.005379507 0.005584774 0.005362639 1000 1000 1000 0.00666456 0.00714929 0.007083517 0.006120006 0.006885962 1000 0.00666456 0.00714929 0.007083517 0.006120006 0.006885962 1000
lala 18 0.15 0 first 4 1 308 6 5.759999 0.459997892379761 -1 0 -1 1 0.007829473 0.007834858 0.007557651 1000 1000 1000 0.007829473 0.007834858 0.007557651 1000 1000 1000 0.009019987 0.01218812 0.01369835 0.0134263 0.01337637 1000 0.009019987 0.01218812 0.01369835 0.0134263 0.01337637 1000
lala 19 0.075 1 first 11 1 309 6 4.605001 0.499997854232788 1 1 1 1 0.01158705 0.01190086 0.01270463 1000 1000 1000 0.01158705 0.01190086 0.01270463 1000 1000 1000 0.01338815 0.01286396 0.01288375 0.01427936 0.01628177 1000 0.01338815 0.01286396 0.01288375 0.01427936 0.01628177 1000
lala 20 0.15 0 second 13 1 310 4 3.070001 0.39999794960022 0 1 -1 0 0.0162659 0.01659803 0.0165604 0.01684787 0.01675633 1000 0.0162659 0.01659803 0.0165604 0.01684787 0.01675633 1000 0.01642895 0.01643948 0.01545056 0.01569461 0.01521491 1000 0.01642895 0.01643948 0.01545056 0.01569461 0.01521491 1000
lala 14 0.075 0 second 10 1 311 6 3.885 4.91999387741089 1 0 -1 0 0.01731303 0.01759965 0.01771508 0.0172332 0.01706416 1000 0.01731303 0.01759965 0.01771508 0.0172332 0.01706416 1000 0.01759645 0.01777397 0.01784904 0.017663 0.01737506 1000 0.01759645 0.01777397 0.01784904 0.017663 0.01737506 1000
lala 21 0.075 1 second 6 1 312 4 4.215001 1.11999726295471 1 0 1 1 0.01642653 0.01617846 0.01637694 0.01655983 0.01604876 1000 0.01642653 0.01617846 0.01637694 0.01655983 0.01604876 1000 0.01597901 0.0158445 0.01645783 0.01671354 0.01670837 1000 0.01597901 0.0158445 0.01645783 0.01671354 0.01670837 1000
lala 14 0.15 0 first 1 1 313 4 4.120001 0.39999794960022 -1 1 -1 1 0.01688595 0.01665759 0.01625102 1000 1000 1000 0.01688595 0.01665759 0.01625102 1000 1000 1000 0.01858258 0.01846132 0.01779393 0.01743146 0.01727966 1000 0.01858258 0.01846132 0.01779393 0.01743146 0.01727966 1000
lala 21 1.2 0 second 2 1 314 5 4.199999 1.03999733924866 -1 0 -1 0 0.0176397 0.0176044 0.01761626 0.0173234 0.01774746 1000 0.0176397 0.0176044 0.01761626 0.0173234 0.01774746 1000 0.01738393 0.01774351 0.01853687 0.0181817 0.01776014 1000 0.01738393 0.01774351 0.01853687 0.0181817 0.01776014 1000
lala 22 0.0375 1 second 6 1 315 4 4.177501 0.439997911453247 1 0 1 0 0.01723182 0.01779986 0.01754902 0.01772442 0.01815415 1000 0.01723182 0.01779986 0.01754902 0.01772442 0.01815415 1000 0.0184534 0.008256463 0.003276417 0.002756579 0.004490162 1000 0.0184534 0.008256463 0.003276417 0.002756579 0.004490162 1000
lala 22 0.6 1 first 2 1 316 5 4.799999 2.07999658584595 -1 0 1 0 0.01162315 0.01174418 0.01190344 1000 1000 1000 0.01162315 0.01174418 0.01190344 1000 1000 1000 0.01401347 0.01434269 0.01501269 0.01534897 0.01535389 1000 0.01401347 0.01434269 0.01501269 0.01534897 0.01535389 1000
lala 18 0.0046875 0 first 15 1 317 5 3.870312 2.83999586105347 0 1 -1 1 0.01571722 0.01557724 0.01581897 1000 1000 1000 0.01571722 0.01557724 0.01581897 1000 1000 1000 0.01363542 0.01389386 0.01469941 0.01540396 0.01757244 1000 0.01363542 0.01389386 0.01469941 0.01540396 0.01757244 1000
lala 20 0.0375 1 first 11 1 318 6 4.567502 0.879997491836548 1 1 1 0 0.01781338 0.0180887 0.01816265 1000 1000 1000 0.01781338 0.0180887 0.01816265 1000 1000 1000 0.01678348 0.01687114 0.01709341 0.01747662 0.01778542 1000 0.01678348 0.01687114 0.01709341 0.01747662 0.01778542 1000
