subject PestNr Step_Size_OnTrial Pest_Faster Pest_Interval Condition block trial velH velH_Pest Reaction_Time velH_Subject Start_Above Response_MotionEstimation RightOrLeftxRotations_first0 xRotations_first1 xRotations_first2 xRotations_first3 xRotations_first4 xRotations_first5 yRotations_first0 yRotations_first1 yRotations_first2 yRotations_first3 yRotations_first4 yRotations_first5 xRotations_second0 xRotations_second1 xRotations_second2 xRotations_second3 xRotations_second4 xRotations_second5 yRotations_second0 yRotations_second1 yRotations_second2 yRotations_second3 yRotations_second4 yRotations_second5
lala 1 1.2 1 first 7 1 1 4 5.32 0.759997606277466 1 1 1 1 -0.0169908 -0.006919905 -0.002615566 -0.000324099 0.0008563852 0.0009587489 -0.0169908 -0.006919905 -0.002615566 -0.000324099 0.0008563852 0.0009587489 0.004331375 0.004205129 0.004015977 0.003936171 0.003837654 1000 0.004331375 0.004205129 0.004015977 0.003936171 0.003837654 1000
lala 1 1.2 0 first 11 1 2 6 7.98 1.27999711036682 1 1 -1 1 0.002637116 0.002330123 0.002232406 1000 1000 1000 0.002637116 0.002330123 0.002232406 1000 1000 1000 0.002876676 0.002862828 0.002588915 0.002358547 0.002603943 1000 0.002876676 0.002862828 0.002588915 0.002358547 0.002603943 1000
lala 1 1.2 1 first 2 1 3 5 3.3 0.23999810218811 -1 0 1 1 -0.003752744 -0.003090597 -0.002179029 1000 1000 1000 -0.003752744 -0.003090597 -0.002179029 1000 1000 1000 0.0007980694 0.0007253023 0.0006098504 0.0009076224 0.0009803846 1000 0.0007980694 0.0007253023 0.0006098504 0.0009076224 0.0009803846 1000
lala 1 1.2 1 second 1 1 4 4 5.32 0.179998159408569 -1 1 1 1 0.001555768 0.00195183 0.0020115 0.001925997 0.002152843 1000 0.001555768 0.00195183 0.0020115 0.001925997 0.002152843 1000 0.001231861 0.001052091 0.0006736643 0.0004894348 0.0006306077 1000 0.001231861 0.001052091 0.0006736643 0.0004894348 0.0006306077 1000
lala 1 1.2 0 first 9 1 5 5 6.65 0.61999773979187 1 1 -1 1 0.001020045 0.0009240266 0.0009510904 1000 1000 1000 0.001020045 0.0009240266 0.0009510904 1000 1000 1000 0.0005928915 0.0005617888 0.0005530208 0.0007420208 0.0005654594 1000 0.0005928915 0.0005617888 0.0005530208 0.0007420208 0.0005654594 1000
lala 1 1.2 0 first 4 1 6 6 3.96 0.899997472763062 -1 0 -1 1 0.0003357759 0.0002827152 0.0001200528 1000 1000 1000 0.0003357759 0.0002827152 0.0001200528 1000 1000 1000 -0.0003571023 -0.0003912768 -0.0001347501 -0.0001856841 -0.0006365457 1000 -0.0003571023 -0.0003912768 -0.0001347501 -0.0001856841 -0.0006365457 1000
lala 2 1.2 1 second 7 1 7 4 4.12 0.339998006820679 1 1 1 1 -0.001677859 -0.001291474 -0.00134185 -0.00153521 -0.00145866 1000 -0.001677859 -0.001291474 -0.00134185 -0.00153521 -0.00145866 1000 -0.001602943 -0.001835623 -0.001729949 -0.001581315 -0.001639203 1000 -0.001602943 -0.001835623 -0.001729949 -0.001581315 -0.001639203 1000
lala 1 1.2 1 first 5 1 8 6 7.98 0.759997606277466 -1 1 1 0 -0.001439825 -0.001440392 -0.001149554 1000 1000 1000 -0.001439825 -0.001440392 -0.001149554 1000 1000 1000 -0.001676791 -0.001601159 -0.001840865 -0.001813643 -0.001703511 1000 -0.001676791 -0.001601159 -0.001840865 -0.001813643 -0.001703511 1000
lala 2 1.2 1 first 11 1 9 6 9.18 0.39999794960022 1 1 1 1 -0.002920464 -0.00324369 -0.003467247 1000 1000 1000 -0.002920464 -0.00324369 -0.003467247 1000 1000 1000 -0.003314395 -0.003276176 -0.003235864 -0.003286418 -0.003079573 1000 -0.003314395 -0.003276176 -0.003235864 -0.003286418 -0.003079573 1000
lala 1 1.2 0 first 12 1 10 4 2.64 0.359997987747192 0 0 -1 1 -0.003382161 -0.003424075 -0.003654548 1000 1000 1000 -0.003382161 -0.003424075 -0.003654548 1000 1000 1000 -0.003152289 -0.003222178 -0.00308024 -0.003037652 -0.003312068 1000 -0.003152289 -0.003222178 -0.00308024 -0.003037652 -0.003312068 1000
lala 1 1.2 0 first 15 1 11 5 6.65 1.35999703407288 0 1 -1 0 -0.003646327 -0.003370965 -0.003162426 1000 1000 1000 -0.003646327 -0.003370965 -0.003162426 1000 1000 1000 -0.00225228 -0.002435833 -0.002490963 -0.002752125 -0.002951215 1000 -0.00225228 -0.002435833 -0.002490963 -0.002752125 -0.002951215 1000
lala 1 1.2 0 second 8 1 12 5 3.3 0.539997816085815 1 0 -1 0 -0.002847671 -0.002510588 -0.002546758 -0.002617713 -0.002679859 1000 -0.002847671 -0.002510588 -0.002546758 -0.002617713 -0.002679859 1000 -0.004001532 -0.004085642 -0.003909396 -0.003844546 -0.004107772 1000 -0.004001532 -0.004085642 -0.003909396 -0.003844546 -0.004107772 1000
lala 1 1.2 1 first 13 1 13 4 5.32 0.379997968673706 0 1 1 1 -0.003507824 -0.003655162 -0.003883288 1000 1000 1000 -0.003507824 -0.003655162 -0.003883288 1000 1000 1000 -0.004915473 -0.004854834 -0.004596141 -0.004586355 -0.004621968 1000 -0.004915473 -0.004854834 -0.004596141 -0.004586355 -0.004621968 1000
lala 2 1.2 1 second 15 1 14 5 7.85 1.23999714851379 0 1 1 1 -0.005284272 -0.005001717 -0.004553307 -0.005725882 -0.005823188 1000 -0.005284272 -0.005001717 -0.004553307 -0.005725882 -0.005823188 1000 -0.005746049 -0.005716635 -0.005503427 -0.005612956 -0.005814202 1000 -0.005746049 -0.005716635 -0.005503427 -0.005612956 -0.005814202 1000
lala 1 1.2 0 second 16 1 15 6 3.96 0.439997911453247 0 0 -1 0 -0.006237686 -0.006574498 -0.006428215 -0.006536216 -0.006559783 1000 -0.006237686 -0.006574498 -0.006428215 -0.006536216 -0.006559783 1000 -0.006571482 -0.006699122 -0.006252211 -0.006266169 -0.006564631 1000 -0.006571482 -0.006699122 -0.006252211 -0.006266169 -0.006564631 1000
lala 2 1.2 0 first 4 1 16 6 5.16 1.27999711036682 -1 0 -1 1 -0.007023836 -0.006953305 -0.006827063 1000 1000 1000 -0.007023836 -0.006953305 -0.006827063 1000 1000 1000 -0.007195333 -0.007353028 -0.007080893 -0.006829544 -0.006467576 1000 -0.007195333 -0.007353028 -0.007080893 -0.006829544 -0.006467576 1000
lala 1 1.2 1 first 14 1 17 5 3.3 0.219998121261597 0 0 1 0 -0.006496887 -0.008414637 -0.008409311 1000 1000 1000 -0.006496887 -0.008414637 -0.008409311 1000 1000 1000 -0.008808398 -0.009064782 -0.008659716 -0.008844145 -0.009074495 1000 -0.008808398 -0.009064782 -0.008659716 -0.008844145 -0.009074495 1000
lala 2 1.2 0 first 13 1 18 4 4.12 0.519997835159302 0 1 -1 0 -0.009222779 -0.009317623 -0.009271944 1000 1000 1000 -0.009222779 -0.009317623 -0.009271944 1000 1000 1000 -0.009127933 -0.00895986 -0.008569005 -0.009205782 -0.008957388 1000 -0.009127933 -0.00895986 -0.008569005 -0.009205782 -0.008957388 1000
lala 2 1.2 0 second 8 1 19 5 4.5 0.379997968673706 1 0 -1 0 -0.008571574 -0.008292718 -0.008159786 -0.008251712 -0.008166239 1000 -0.008571574 -0.008292718 -0.008159786 -0.008251712 -0.008166239 1000 -0.008725707 -0.008718994 -0.008953643 -0.008937312 -0.009482993 1000 -0.008725707 -0.008718994 -0.008953643 -0.008937312 -0.009482993 1000
lala 2 1.2 1 second 5 1 20 6 6.780001 0.559997797012329 -1 1 1 0 -0.009550991 -0.009268605 -0.009164332 -0.009435247 -0.009376201 1000 -0.009550991 -0.009268605 -0.009164332 -0.009435247 -0.009376201 1000 -0.008814692 -0.009178307 -0.009179006 -0.009485141 -0.009869467 1000 -0.008814692 -0.009178307 -0.009179006 -0.009485141 -0.009869467 1000
lala 3 1.2 1 first 11 1 21 6 7.98 0.339998006820679 1 1 1 0 -0.009408055 -0.009486633 -0.009619301 1000 1000 1000 -0.009408055 -0.009486633 -0.009619301 1000 1000 1000 -0.009784122 -0.01009164 -0.01027727 -0.01010215 -0.009959147 1000 -0.009784122 -0.01009164 -0.01027727 -0.01010215 -0.009959147 1000
lala 3 1.2 0 second 4 1 22 6 6.36 0.659997701644897 -1 0 -1 1 -0.009788003 -0.009849625 -0.009756555 -0.009613742 -0.009543946 1000 -0.009788003 -0.009849625 -0.009756555 -0.009613742 -0.009543946 1000 -0.009377769 -0.009780196 -0.009797007 -0.009341208 -0.009284951 1000 -0.009377769 -0.009780196 -0.009797007 -0.009341208 -0.009284951 1000
lala 1 1.2 1 second 17 1 23 6 7.98 0.379997968673706 0 1 1 0 -0.01000961 -0.009847464 -0.009565032 -0.009724529 -0.00984209 1000 -0.01000961 -0.009847464 -0.009565032 -0.009724529 -0.00984209 1000 -0.0101588 -0.01026107 -0.01024889 -0.01022126 -0.01007906 1000 -0.0101588 -0.01026107 -0.01024889 -0.01022126 -0.01007906 1000
lala 2 1.2 0 second 1 1 24 4 4.12 1.37999701499939 -1 1 -1 0 -0.01073803 -0.01054903 -0.01035753 -0.01040673 -0.01112448 1000 -0.01073803 -0.01054903 -0.01035753 -0.01040673 -0.01112448 1000 -0.02523773 -0.02645934 -0.0257082 -0.02732277 -0.02831946 1000 -0.02523773 -0.02645934 -0.0257082 -0.02732277 -0.02831946 1000
lala 2 1.2 0 second 16 1 25 6 5.16 0.159998178482056 0 0 -1 0 -0.01002079 -0.01038787 -0.01061521 -0.01037228 -0.009647989 1000 -0.01002079 -0.01038787 -0.01061521 -0.01037228 -0.009647989 1000 -0.00932611 -0.009389196 -0.00932223 -0.009068959 -0.008811104 1000 -0.00932611 -0.009389196 -0.00932223 -0.009068959 -0.008811104 1000
lala 2 1.2 0 first 12 1 26 4 3.84 0.419997930526733 0 0 -1 1 -0.008783481 -0.008939382 -0.008793469 1000 1000 1000 -0.008783481 -0.008939382 -0.008793469 1000 1000 1000 -0.008457783 -0.0083529 -0.00848222 -0.008531202 -0.008454558 1000 -0.008457783 -0.0083529 -0.00848222 -0.008531202 -0.008454558 1000
lala 1 1.2 1 first 3 1 27 5 6.65 0.079998254776001 -1 1 1 0 -0.008786615 -0.008677737 -0.008746455 1000 1000 1000 -0.008786615 -0.008677737 -0.008746455 1000 1000 1000 -0.009495214 -0.00963599 -0.009501823 -0.009378237 -0.009565684 1000 -0.009495214 -0.00963599 -0.009501823 -0.009378237 -0.009565684 1000
lala 3 1.2 1 second 16 1 28 6 6.36 0.839997529983521 0 0 1 0 -0.009604256 -0.009531746 -0.00931753 -0.009205787 -0.009184971 1000 -0.009604256 -0.009531746 -0.00931753 -0.009205787 -0.009184971 1000 -0.009149021 -0.009362993 -0.009476517 -0.009552694 -0.009455853 1000 -0.009149021 -0.009362993 -0.009476517 -0.009552694 -0.009455853 1000
lala 3 1.2 0 first 7 1 29 4 2.92 0.179998159408569 1 1 -1 1 -0.009536465 -0.009381005 -0.00935484 1000 1000 1000 -0.009536465 -0.009381005 -0.00935484 1000 1000 1000 -0.009227687 -0.00943595 -0.009610523 -0.009439226 -0.009291783 1000 -0.009227687 -0.00943595 -0.009610523 -0.009439226 -0.009291783 1000
lala 3 1.2 1 second 13 1 30 4 5.32 0.23999810218811 0 1 1 0 -0.00983192 -0.009721447 -0.009348162 -0.009135946 -0.009238016 1000 -0.00983192 -0.009721447 -0.009348162 -0.009135946 -0.009238016 1000 -0.009341514 -0.009033525 -0.008972913 -0.009206107 -0.009283005 1000 -0.009341514 -0.009033525 -0.008972913 -0.009206107 -0.009283005 1000
lala 4 1.2 1 second 11 1 31 6 6.780001 2.33999633789063 1 1 1 1 -0.009471459 -0.009432325 -0.009316234 -0.009718679 -0.01000678 1000 -0.009471459 -0.009432325 -0.009316234 -0.009718679 -0.01000678 1000 -0.01100207 -0.01094967 -0.01045779 -0.01057544 -0.01081299 1000 -0.01100207 -0.01094967 -0.01045779 -0.01057544 -0.01081299 1000
lala 2 1.2 0 second 2 1 32 5 2.1 0.119998216629028 -1 0 -1 0 -0.01362912 -0.01302504 -0.01243614 -0.01206436 -0.01232843 1000 -0.01362912 -0.01302504 -0.01243614 -0.01206436 -0.01232843 1000 -0.01030915 -0.01039742 -0.01034573 -0.009963812 -0.009901446 1000 -0.01030915 -0.01039742 -0.01034573 -0.009963812 -0.009901446 1000
lala 4 1.2 0 second 13 1 33 4 4.12 0.879997491836548 0 1 -1 1 -0.01253351 -0.01209185 -0.01180854 -0.01186165 -0.01213239 1000 -0.01253351 -0.01209185 -0.01180854 -0.01186165 -0.01213239 1000 -0.01262687 -0.01232843 -0.01223794 -0.01197185 -0.01188162 1000 -0.01262687 -0.01232843 -0.01223794 -0.01197185 -0.01188162 1000
lala 2 1.2 0 second 14 1 34 5 2.1 0.499997854232788 0 0 -1 0 -0.0124656 -0.0125753 -0.01293421 -0.01278977 -0.01228829 1000 -0.0124656 -0.0125753 -0.01293421 -0.01278977 -0.01228829 1000 -0.01361372 -0.01353653 -0.01355059 -0.01361627 -0.0134064 1000 -0.01361372 -0.01353653 -0.01355059 -0.01361627 -0.0134064 1000
lala 3 1.2 1 second 15 1 35 5 6.650001 0.659997701644897 0 1 1 1 -0.01422038 -0.01419786 -0.01403385 -0.01410243 -0.01404537 1000 -0.01422038 -0.01419786 -0.01403385 -0.01410243 -0.01404537 1000 -0.01447878 -0.01466555 -0.01472522 -0.01442138 -0.01421381 1000 -0.01447878 -0.01466555 -0.01472522 -0.01442138 -0.01421381 1000
lala 3 1.2 1 first 8 1 36 5 5.7 0.919997453689575 1 0 1 0 -0.01451659 -0.01452565 -0.01471851 1000 1000 1000 -0.01451659 -0.01452565 -0.01471851 1000 1000 1000 -0.01514743 -0.01528815 -0.01513393 -0.01497622 -0.01498427 1000 -0.01514743 -0.01528815 -0.01513393 -0.01497622 -0.01498427 1000
lala 1 1.2 0 second 6 1 37 4 2.64 0.479997873306274 1 0 -1 1 -0.01541685 -0.01530515 -0.01543691 -0.01547854 -0.01581543 1000 -0.01541685 -0.01530515 -0.01543691 -0.01547854 -0.01581543 1000 -0.01585687 -0.01581026 -0.01550753 -0.01532187 -0.01537769 1000 -0.01585687 -0.01581026 -0.01550753 -0.01532187 -0.01537769 1000
lala 2 1.2 0 first 9 1 38 5 7.85 0.379997968673706 1 1 -1 1 -0.01572667 -0.01577916 -0.01593556 1000 1000 1000 -0.01572667 -0.01577916 -0.01593556 1000 1000 1000 -0.017053 -0.01706878 -0.01713769 -0.01711247 -0.01688292 1000 -0.017053 -0.01706878 -0.01713769 -0.01711247 -0.01688292 1000
lala 1 1.2 0 second 0 1 39 4 2.64 0.0399982929229736 -1 0 -1 0 -0.01663987 -0.01686589 -0.01669909 -0.01667932 -0.01781329 1000 -0.01663987 -0.01686589 -0.01669909 -0.01667932 -0.01781329 1000 -0.01747356 -0.01694595 -0.01625771 -0.01624553 -0.01676912 1000 -0.01747356 -0.01694595 -0.01625771 -0.01624553 -0.01676912 1000
lala 3 1.2 0 second 2 1 40 5 3.3 0.579997777938843 -1 0 -1 1 -0.01869966 -0.01865174 -0.01879396 -0.01847388 -0.01808754 1000 -0.01869966 -0.01865174 -0.01879396 -0.01847388 -0.01808754 1000 -0.01828499 -0.0182874 -0.01828571 -0.01810095 -0.01829222 1000 -0.01828499 -0.0182874 -0.01828571 -0.01810095 -0.01829222 1000
lala 3 1.2 0 first 14 1 41 5 3.3 2.53999614715576 0 0 -1 1 -0.0206678 -0.02093494 -0.02100533 1000 1000 1000 -0.0206678 -0.02093494 -0.02100533 1000 1000 1000 -0.01096154 -0.01141548 -0.01153212 -0.01149378 -0.01146596 1000 -0.01096154 -0.01141548 -0.01153212 -0.01149378 -0.01146596 1000
lala 5 1.2 1 first 13 1 42 4 5.32 0.879997491836548 0 1 1 1 -0.01736918 -0.01767978 -0.01785756 1000 1000 1000 -0.01736918 -0.01767978 -0.01785756 1000 1000 1000 -0.01616498 -0.01617743 -0.01630169 -0.01647818 -0.01711619 1000 -0.01616498 -0.01617743 -0.01630169 -0.01647818 -0.01711619 1000
lala 4 1.2 1 second 14 1 43 5 4.5 0.99999737739563 0 0 1 1 -0.0189729 -0.01897475 -0.01891026 -0.01899377 -0.0191828 1000 -0.0189729 -0.01897475 -0.01891026 -0.01899377 -0.0191828 1000 -0.01883461 -0.01889304 -0.01888117 -0.01875355 -0.01851126 1000 -0.01883461 -0.01889304 -0.01888117 -0.01875355 -0.01851126 1000
lala 5 1.2 0 first 14 1 44 5 3.3 0.0999982357025146 0 0 -1 0 -0.01966254 -0.01949607 -0.01937268 1000 1000 1000 -0.01966254 -0.01949607 -0.01937268 1000 1000 1000 -0.0197394 -0.01948401 -0.01932336 -0.01946044 -0.01984025 1000 -0.0197394 -0.01948401 -0.01932336 -0.01946044 -0.01984025 1000
lala 4 1.2 0 second 7 1 45 4 4.12 0.779997587203979 1 1 -1 1 -0.01974811 -0.0198173 -0.01992919 -0.01963286 -0.01971377 1000 -0.01974811 -0.0198173 -0.01992919 -0.01963286 -0.01971377 1000 -0.01932026 -0.01932338 -0.01918601 -0.01891167 -0.01893558 1000 -0.01932026 -0.01932338 -0.01918601 -0.01891167 -0.01893558 1000
lala 2 1.2 0 first 6 1 46 4 3.84 0.339998006820679 1 0 -1 1 -0.01947875 -0.01954098 -0.01986261 1000 1000 1000 -0.01947875 -0.01954098 -0.01986261 1000 1000 1000 -0.02106881 -0.02077999 -0.02048682 -0.02090098 -0.02121744 1000 -0.02106881 -0.02077999 -0.02048682 -0.02090098 -0.02121744 1000
lala 3 1.2 1 first 6 1 47 4 5.04 0.0999982357025146 1 0 1 0 -0.02097228 -0.020433 -0.02004296 1000 1000 1000 -0.02097228 -0.020433 -0.02004296 1000 1000 1000 -0.02105512 -0.02121625 -0.02097579 -0.02111837 -0.02137513 1000 -0.02105512 -0.02121625 -0.02097579 -0.02111837 -0.02137513 1000
lala 3 1.2 0 first 1 1 48 4 5.32 0.39999794960022 -1 1 -1 1 -0.02180505 -0.02172806 -0.02175608 1000 1000 1000 -0.02180505 -0.02172806 -0.02175608 1000 1000 1000 -0.02184177 -0.02195501 -0.02203069 -0.02182982 -0.02188745 1000 -0.02184177 -0.02195501 -0.02203069 -0.02182982 -0.02188745 1000
lala 4 1.2 0 first 4 1 49 6 7.559999 0.859997510910034 -1 0 -1 1 -0.02264255 -0.02278901 -0.02277098 1000 1000 1000 -0.02264255 -0.02278901 -0.02277098 1000 1000 1000 -0.02230747 -0.02229322 -0.02240522 -0.02259775 -0.02266984 1000 -0.02230747 -0.02229322 -0.02240522 -0.02259775 -0.02266984 1000
lala 3 1.2 0 second 5 1 50 6 5.580001 0.419997930526733 -1 1 -1 1 -0.004427083 -0.00939832 -0.008478258 -0.01323036 -0.01895806 1000 -0.004427083 -0.00939832 -0.008478258 -0.01323036 -0.01895806 1000 -0.01924394 -0.01880767 -0.01843305 -0.01815674 -0.01864795 1000 -0.01924394 -0.01880767 -0.01843305 -0.01815674 -0.01864795 1000
lala 6 1.2 1 second 13 1 51 4 4.12 0.0999982357025146 0 1 1 0 -0.01947993 -0.01937041 -0.01953896 -0.02016429 -0.02017035 1000 -0.01947993 -0.01937041 -0.01953896 -0.02016429 -0.02017035 1000 -0.02011972 -0.019992 -0.01992801 -0.02006158 -0.02025385 1000 -0.02011972 -0.019992 -0.01992801 -0.02006158 -0.02025385 1000
lala 2 1.2 0 first 3 1 52 5 5.45 0.419997930526733 -1 1 -1 1 -0.02079238 -0.02076217 -0.02079387 1000 1000 1000 -0.02079238 -0.02076217 -0.02079387 1000 1000 1000 -0.02147909 -0.02149516 -0.02170823 -0.02171727 -0.02162057 1000 -0.02147909 -0.02149516 -0.02170823 -0.02171727 -0.02162057 1000
lala 5 1.2 1 first 7 1 53 4 5.32 0.319998025894165 1 1 1 0 -0.02196584 -0.02209088 -0.02207681 1000 1000 1000 -0.02196584 -0.02209088 -0.02207681 1000 1000 1000 -0.02291195 -0.02290767 -0.02278874 -0.02276817 -0.02289801 1000 -0.02291195 -0.02290767 -0.02278874 -0.02276817 -0.02289801 1000
lala 4 1.2 1 first 8 1 54 5 4.5 0.499997854232788 1 0 1 0 -0.02321515 -0.02328037 -0.02336372 1000 1000 1000 -0.02321515 -0.02328037 -0.02336372 1000 1000 1000 -0.02421676 -0.02374156 -0.02350643 -0.02387022 -0.02410498 1000 -0.02421676 -0.02374156 -0.02350643 -0.02387022 -0.02410498 1000
lala 4 1.2 0 second 5 1 55 6 6.780001 1.15999722480774 -1 1 -1 0 -0.02539293 -0.02540311 -0.02524065 -0.02518958 -0.02514559 1000 -0.02539293 -0.02540311 -0.02524065 -0.02518958 -0.02514559 1000 -0.02479277 -0.02485828 -0.02493608 -0.02513094 -0.02515149 1000 -0.02479277 -0.02485828 -0.02493608 -0.02513094 -0.02515149 1000
lala 1 1.2 0 first 10 1 56 6 3.96 0.459997892379761 1 0 -1 0 -0.02366243 -0.02073355 -0.01952977 1000 1000 1000 -0.02366243 -0.02073355 -0.01952977 1000 1000 1000 -0.02202427 -0.02224432 -0.02238932 -0.02213942 -0.02238728 1000 -0.02202427 -0.02224432 -0.02238932 -0.02213942 -0.02238728 1000
lala 4 1.2 0 first 16 1 57 6 5.16 0.339998006820679 0 0 -1 0 -0.02442606 -0.02493345 -0.02478397 1000 1000 1000 -0.02442606 -0.02493345 -0.02478397 1000 1000 1000 -0.02429923 -0.02415905 -0.02450359 -0.02491657 -0.02495204 1000 -0.02429923 -0.02415905 -0.02450359 -0.02491657 -0.02495204 1000
lala 5 1.2 1 second 4 1 58 6 8.759999 0.639997720718384 -1 0 1 1 -0.02378202 -0.02304107 -0.02254003 -0.0227093 -0.02296361 1000 -0.02378202 -0.02304107 -0.02254003 -0.0227093 -0.02296361 1000 -0.02198771 -0.02240649 -0.0226595 -0.02276901 -0.02289264 1000 -0.02198771 -0.02240649 -0.0226595 -0.02276901 -0.02289264 1000
lala 4 1.2 1 second 1 1 59 4 6.52 0.079998254776001 -1 1 1 1 -0.02404783 -0.02394124 -0.02394984 -0.02402423 -0.02399161 1000 -0.02404783 -0.02394124 -0.02394984 -0.02402423 -0.02399161 1000 -0.02396889 -0.02427415 -0.02427774 -0.02420435 -0.02423114 1000 -0.02396889 -0.02427415 -0.02427774 -0.02420435 -0.02423114 1000
lala 5 1.2 1 first 1 1 60 4 5.32 0.279998064041138 -1 1 1 1 -0.02455396 -0.02446745 -0.02455131 1000 1000 1000 -0.02455396 -0.02446745 -0.02455131 1000 1000 1000 -0.02457701 -0.02466626 -0.02479601 -0.02493418 -0.0247858 1000 -0.02457701 -0.02466626 -0.02479601 -0.02493418 -0.0247858 1000
lala 6 1.2 0 second 1 1 61 4 4.12 0.859997510910034 -1 1 -1 0 -0.02475884 -0.02444655 -0.02419504 -0.02417924 -0.02413802 1000 -0.02475884 -0.02444655 -0.02419504 -0.02417924 -0.02413802 1000 -0.02443717 -0.02451827 -0.02441443 -0.0248766 -0.0251923 1000 -0.02443717 -0.02451827 -0.02441443 -0.0248766 -0.0251923 1000
lala 5 1.2 0 first 16 1 62 6 6.36 0.39999794960022 0 0 -1 1 -0.02409982 -0.02039672 -0.01729289 1000 1000 1000 -0.02409982 -0.02039672 -0.01729289 1000 1000 1000 -0.01924232 -0.02000029 -0.02075754 -0.02113446 -0.02154233 1000 -0.01924232 -0.02000029 -0.02075754 -0.02113446 -0.02154233 1000
lala 6 1.2 1 first 14 1 63 5 4.5 0.979997396469116 0 0 1 1 -0.02415494 -0.02471871 -0.02501238 1000 1000 1000 -0.02415494 -0.02471871 -0.02501238 1000 1000 1000 -0.02362482 -0.02358781 -0.02384565 -0.02384587 -0.02364497 1000 -0.02362482 -0.02358781 -0.02384565 -0.02384587 -0.02364497 1000
lala 3 1.2 1 first 9 1 64 5 9.05 0.219998121261597 1 1 1 0 -0.02447741 -0.02441689 -0.02421546 1000 1000 1000 -0.02447741 -0.02441689 -0.02421546 1000 1000 1000 -0.02465468 -0.02485247 -0.02515452 -0.02511941 -0.02512829 1000 -0.02465468 -0.02485247 -0.02515452 -0.02511941 -0.02512829 1000
lala 5 1.2 0 second 5 1 65 6 7.98 1.67999696731567 -1 1 -1 1 -0.0226707 -0.02108791 -0.0202073 -0.01982879 -0.02015591 1000 -0.0226707 -0.02108791 -0.0202073 -0.01982879 -0.02015591 1000 -0.02155312 -0.02160498 -0.02153222 -0.0215237 -0.02168574 1000 -0.02155312 -0.02160498 -0.02153222 -0.0215237 -0.02168574 1000
lala 6 1.2 0 second 4 1 66 6 7.559999 0.299998044967651 -1 0 -1 1 -0.02363608 -0.0235693 -0.02358437 -0.02372603 -0.0238823 1000 -0.02363608 -0.0235693 -0.02358437 -0.02372603 -0.0238823 1000 -0.02429188 -0.02403655 -0.02370354 -0.02387448 -0.02391151 1000 -0.02429188 -0.02403655 -0.02370354 -0.02387448 -0.02391151 1000
lala 6 1.2 1 first 5 1 67 6 9.18 0.0599982738494873 -1 1 1 1 -0.02412782 -0.02418636 -0.02412777 1000 1000 1000 -0.02412782 -0.02418636 -0.02412777 1000 1000 1000 -0.02442077 -0.02472799 -0.0248815 -0.02489132 -0.02464297 1000 -0.02442077 -0.02472799 -0.0248815 -0.02489132 -0.02464297 1000
lala 5 1.2 0 first 8 1 68 5 3.3 0.61999773979187 1 0 -1 1 -0.02488617 -0.02469034 -0.02458235 1000 1000 1000 -0.02488617 -0.02469034 -0.02458235 1000 1000 1000 -0.024276 -0.02439955 -0.02449531 -0.02446736 -0.02437348 1000 -0.024276 -0.02439955 -0.02449531 -0.02446736 -0.02437348 1000
lala 4 1.2 1 second 9 1 69 5 7.85 0.179998159408569 1 1 1 0 -0.02421731 -0.02435417 -0.02387874 -0.02364853 -0.02387282 1000 -0.02421731 -0.02435417 -0.02387874 -0.02364853 -0.02387282 1000 -0.02423774 -0.02422422 -0.02393079 -0.02391169 -0.0241262 1000 -0.02423774 -0.02422422 -0.02393079 -0.02391169 -0.0241262 1000
lala 6 1.2 1 second 8 1 70 5 4.5 2.47999620437622 1 0 1 0 -0.02398607 -0.02408277 -0.02398361 -0.02380676 -0.02382554 1000 -0.02398607 -0.02408277 -0.02398361 -0.02380676 -0.02382554 1000 -0.02435274 -0.02431455 -0.02437326 -0.02449543 -0.02443009 1000 -0.02435274 -0.02431455 -0.02437326 -0.02449543 -0.02443009 1000
lala 7 1.2 1 second 1 1 71 4 5.32 0.819997549057007 -1 1 1 1 -0.02479086 -0.02485574 -0.02503709 -0.02508532 -0.0248117 1000 -0.02479086 -0.02485574 -0.02503709 -0.02508532 -0.0248117 1000 -0.0242453 -0.02383562 -0.02401424 -0.02440355 -0.02454899 1000 -0.0242453 -0.02383562 -0.02401424 -0.02440355 -0.02454899 1000
lala 5 1.2 1 first 11 1 72 6 5.580001 0.519997835159302 1 1 1 0 -0.02501412 -0.02493727 -0.02490457 1000 1000 1000 -0.02501412 -0.02493727 -0.02490457 1000 1000 1000 -0.02479179 -0.02496275 -0.02480751 -0.02466868 -0.02478488 1000 -0.02479179 -0.02496275 -0.02480751 -0.02466868 -0.02478488 1000
lala 3 1.2 1 second 3 1 73 5 6.65 0.539997816085815 -1 1 1 0 -0.02440706 -0.02441589 -0.02429586 -0.02425101 -0.02461658 1000 -0.02440706 -0.02441589 -0.02429586 -0.02425101 -0.02461658 1000 -0.02468121 -0.02450926 -0.02469862 -0.02492741 -0.02478976 1000 -0.02468121 -0.02450926 -0.02469862 -0.02492741 -0.02478976 1000
lala 4 1.2 1 second 3 1 74 5 5.45 0.159998178482056 -1 1 1 0 -0.02430566 -0.02447496 -0.02446208 -0.02459955 -0.02457022 1000 -0.02430566 -0.02447496 -0.02446208 -0.02459955 -0.02457022 1000 -0.0246416 -0.02441351 -0.02459917 -0.02472022 -0.0246172 1000 -0.0246416 -0.02441351 -0.02459917 -0.02472022 -0.0246172 1000
lala 3 1.2 1 first 12 1 75 4 5.04 0.0599982738494873 0 0 1 1 -0.0244835 -0.02456825 -0.02440583 1000 1000 1000 -0.0244835 -0.02456825 -0.02440583 1000 1000 1000 -0.0247763 -0.02446827 -0.02455251 -0.02479939 -0.02473343 1000 -0.0247763 -0.02446827 -0.02455251 -0.02479939 -0.02473343 1000
lala 6 1.2 1 first 7 1 76 4 4.12 0.299998044967651 1 1 1 1 -0.02460124 -0.02456142 -0.02493096 1000 1000 1000 -0.02460124 -0.02456142 -0.02493096 1000 1000 1000 -0.02434031 -0.02468065 -0.02490388 -0.02495327 -0.0250739 1000 -0.02434031 -0.02468065 -0.02490388 -0.02495327 -0.0250739 1000
lala 4 1.2 1 second 6 1 77 4 3.84 1.03999733924866 1 0 1 0 -0.02485108 -0.02494636 -0.0246076 -0.02446388 -0.02429254 1000 -0.02485108 -0.02494636 -0.0246076 -0.02446388 -0.02429254 1000 -0.02436032 -0.02432193 -0.02456664 -0.02478849 -0.02478672 1000 -0.02436032 -0.02432193 -0.02456664 -0.02478849 -0.02478672 1000
lala 4 1.2 0 first 12 1 78 4 3.84 0.539997816085815 0 0 -1 0 -0.02506263 -0.0255293 -0.02534555 1000 1000 1000 -0.02506263 -0.0255293 -0.02534555 1000 1000 1000 -0.02561571 -0.02540814 -0.02555672 -0.02549485 -0.02536728 1000 -0.02561571 -0.02540814 -0.02555672 -0.02549485 -0.02536728 1000
lala 5 1.2 0 first 6 1 79 4 2.64 0.01999831199646 1 0 -1 0 -0.02407388 -0.02254705 -0.01866018 1000 1000 1000 -0.02407388 -0.02254705 -0.01866018 1000 1000 1000 -0.0001883823 -0.0002816728 -0.0001602867 -0.000200655 -0.0002361019 1000 -0.0001883823 -0.0002816728 -0.0001602867 -0.000200655 -0.0002361019 1000
lala 5 1.2 0 first 3 1 80 5 4.25 0.219998121261597 -1 1 -1 0 -0.0005690188 -0.0005941201 -0.0005582421 1000 1000 1000 -0.0005690188 -0.0005941201 -0.0005582421 1000 1000 1000 -0.001808117 -0.002011299 -0.002213985 -0.002183601 -0.002077325 1000 -0.001808117 -0.002011299 -0.002213985 -0.002183601 -0.002077325 1000
lala 6 1.2 0 first 11 1 81 6 4.380001 0.739997625350952 1 1 -1 0 -0.002284216 -0.002176545 -0.002232668 1000 1000 1000 -0.002284216 -0.002176545 -0.002232668 1000 1000 1000 -0.002902752 -0.003120436 -0.002995739 -0.002897094 -0.002818294 1000 -0.002902752 -0.003120436 -0.002995739 -0.002897094 -0.002818294 1000
lala 7 1.2 1 first 11 1 82 6 5.580001 0.219998121261597 1 1 1 1 -0.002643313 -0.002702609 -0.002703497 1000 1000 1000 -0.002643313 -0.002702609 -0.002703497 1000 1000 1000 -0.004038215 -0.003619707 -0.003491884 -0.003349061 -0.003564613 1000 -0.004038215 -0.003619707 -0.003491884 -0.003349061 -0.003564613 1000
lala 7 1.2 0 first 5 1 83 6 7.98 1.37999701499939 -1 1 -1 0 -0.003187675 -0.003206823 -0.00330957 1000 1000 1000 -0.003187675 -0.003206823 -0.00330957 1000 1000 1000 -0.003945619 -0.003962288 -0.003784457 -0.00383957 -0.003949089 1000 -0.003945619 -0.003962288 -0.003784457 -0.00383957 -0.003949089 1000
lala 6 1.2 0 second 3 1 84 5 5.45 0.699997663497925 -1 1 -1 0 -0.01712239 -0.01844903 -0.0180747 -0.01750777 -0.01668808 1000 -0.01712239 -0.01844903 -0.0180747 -0.01750777 -0.01668808 1000 -0.01761892 -0.0175711 -0.01876155 -0.01964895 -0.01899514 1000 -0.01761892 -0.0175711 -0.01876155 -0.01964895 -0.01899514 1000
lala 2 1.2 1 second 17 1 85 6 6.780001 0.539997816085815 0 1 1 1 -0.02339109 -0.02318971 -0.02350704 -0.02366306 -0.02381917 1000 -0.02339109 -0.02318971 -0.02350704 -0.02366306 -0.02381917 1000 -0.02411781 -0.0241766 -0.02404814 -0.02395861 -0.02393096 1000 -0.02411781 -0.0241766 -0.02404814 -0.02395861 -0.02393096 1000
lala 8 1.2 1 first 1 1 86 4 4.12 0.459997892379761 -1 1 1 0 -0.02473299 -0.02486209 -0.02491705 1000 1000 1000 -0.02473299 -0.02486209 -0.02491705 1000 1000 1000 -0.02548914 -0.02551702 -0.02518607 -0.02539603 -0.02576324 1000 -0.02548914 -0.02551702 -0.02518607 -0.02539603 -0.02576324 1000
lala 9 1.2 0 first 1 1 87 4 2.92 0.119998216629028 -1 1 -1 0 -0.02483973 -0.02495466 -0.02494177 1000 1000 1000 -0.02483973 -0.02495466 -0.02494177 1000 1000 1000 -0.02563118 -0.02585181 -0.02568457 -0.02558012 -0.02542561 1000 -0.02563118 -0.02585181 -0.02568457 -0.02558012 -0.02542561 1000
lala 5 1.2 0 first 12 1 88 4 5.04 0.01999831199646 0 0 -1 1 -0.02482696 -0.02504041 -0.02526066 1000 1000 1000 -0.02482696 -0.02504041 -0.02526066 1000 1000 1000 -0.02420775 -0.02432623 -0.02459309 -0.0246876 -0.02442712 1000 -0.02420775 -0.02432623 -0.02459309 -0.0246876 -0.02442712 1000
lala 8 1.2 0 first 11 1 89 6 4.380001 0.419997930526733 1 1 -1 1 -0.02432643 -0.02440647 -0.02448841 1000 1000 1000 -0.02432643 -0.02440647 -0.02448841 1000 1000 1000 -0.02556623 -0.02535514 -0.02536967 -0.02565023 -0.02564021 1000 -0.02556623 -0.02535514 -0.02536967 -0.02565023 -0.02564021 1000
lala 8 1.2 1 second 5 1 90 6 9.18 1.13999724388123 -1 1 1 0 -0.02521374 -0.02488287 -0.02474407 -0.02481677 -0.02504084 1000 -0.02521374 -0.02488287 -0.02474407 -0.02481677 -0.02504084 1000 -0.0252163 -0.02495133 -0.02510859 -0.02523124 -0.02543208 1000 -0.0252163 -0.02495133 -0.02510859 -0.02523124 -0.02543208 1000
lala 6 1.2 1 second 6 1 91 4 3.84 2.19999647140503 1 0 1 1 0.0103709 0.01425151 0.01391118 0.01322878 0.01361252 1000 0.0103709 0.01425151 0.01391118 0.01322878 0.01361252 1000 0.01315313 0.0130681 0.01287365 0.01295536 0.01282475 1000 0.01315313 0.0130681 0.01287365 0.01295536 0.01282475 1000
lala 7 1.2 0 second 14 1 92 5 3.3 0.419997930526733 0 0 -1 1 0.00889464 0.008899582 0.008774276 0.008474874 0.008322207 1000 0.00889464 0.008899582 0.008774276 0.008474874 0.008322207 1000 0.008602555 0.008376644 0.00839081 0.008352791 0.008388512 1000 0.008602555 0.008376644 0.00839081 0.008352791 0.008388512 1000
lala 7 1.2 0 second 8 1 93 5 3.3 0.199998140335083 1 0 -1 1 0.008301972 0.008453159 0.008403924 0.008216573 0.008342775 1000 0.008301972 0.008453159 0.008403924 0.008216573 0.008342775 1000 0.007928355 0.008192929 0.008338483 0.008030625 0.008039589 1000 0.007928355 0.008192929 0.008338483 0.008030625 0.008039589 1000
lala 5 1.2 1 first 9 1 94 5 6.650001 0.0399982929229736 1 1 1 0 0.00751956 0.007498811 0.007520443 1000 1000 1000 0.00751956 0.007498811 0.007520443 1000 1000 1000 0.008626373 0.008869386 0.008400513 0.008083688 0.008029057 1000 0.008626373 0.008869386 0.008400513 0.008083688 0.008029057 1000
lala 7 1.2 0 first 6 1 95 4 2.64 1.91999673843384 1 0 -1 1 0.007435691 0.007385515 0.007304658 1000 1000 1000 0.007435691 0.007385515 0.007304658 1000 1000 1000 0.008303277 0.008428676 0.008826927 0.008883814 0.008432863 1000 0.008303277 0.008428676 0.008826927 0.008883814 0.008432863 1000
lala 2 1.2 1 second 10 1 96 6 5.16 0.459997892379761 1 0 1 0 0.007153408 0.007463114 0.007528882 0.007359505 0.00723843 1000 0.007153408 0.007463114 0.007528882 0.007359505 0.00723843 1000 0.006113603 0.006185033 0.006116492 0.006087206 0.006078132 1000 0.006113603 0.006185033 0.006116492 0.006087206 0.006078132 1000
lala 7 1.2 0 second 7 1 97 4 2.92 0.23999810218811 1 1 -1 1 0.005578769 0.00544614 0.005658106 0.005842712 0.006150472 1000 0.005578769 0.00544614 0.005658106 0.005842712 0.006150472 1000 0.005582612 0.005437088 0.005056909 0.004877409 0.005211284 1000 0.005582612 0.005437088 0.005056909 0.004877409 0.005211284 1000
lala 6 1.2 1 first 12 1 98 4 6.24 0.259998083114624 0 0 1 1 0.003799337 0.003718394 0.003589387 1000 1000 1000 0.003799337 0.003718394 0.003589387 1000 1000 1000 0.003236921 0.003450892 0.00360043 0.003406042 0.003301976 1000 0.003236921 0.003450892 0.00360043 0.003406042 0.003301976 1000
lala 2 1.2 0 first 0 1 99 4 3.84 1.37999701499939 -1 0 -1 1 0.002597724 0.002600853 0.002606092 1000 1000 1000 0.002597724 0.002600853 0.002606092 1000 1000 1000 0.00300794 0.00285517 0.002675442 0.003033266 0.00315222 1000 0.00300794 0.00285517 0.002675442 0.003033266 0.00315222 1000
lala 4 1.2 0 first 2 1 100 5 4.5 1.97999668121338 -1 0 -1 0 -0.0107095 -0.01063329 -0.0106377 -0.01019588 -0.009851221 -0.009784081 -0.0107095 -0.01063329 -0.0106377 -0.01019588 -0.009851221 -0.009784081 -0.0541479 -0.03678708 -0.01038843 -0.0007479449 -0.000713237 1000 -0.0541479 -0.03678708 -0.01038843 -0.0007479449 -0.000713237 1000
lala 8 1.2 1 second 8 1 101 5 4.5 0.219998121261597 1 0 1 0 0.0003629427 0.0009391571 0.0009190823 0.0007458354 0.0009710378 1000 0.0003629427 0.0009391571 0.0009190823 0.0007458354 0.0009710378 1000 -0.0003869604 -0.0002024245 0.000743938 0.001169332 0.0007230574 1000 -0.0003869604 -0.0002024245 0.000743938 0.001169332 0.0007230574 1000
lala 10 0.6 0 second 1 1 102 4 3.52 0.579997777938843 -1 1 -1 0 8.566651E-05 0.0001047405 0.000284179 0.0005636917 0.0003748024 1000 8.566651E-05 0.0001047405 0.000284179 0.0005636917 0.0003748024 1000 0.0008920573 0.0006300976 0.0006909306 0.0008278913 0.0008569282 1000 0.0008920573 0.0006300976 0.0006909306 0.0008278913 0.0008569282 1000
lala 9 1.2 0 first 11 1 103 6 5.580001 0.339998006820679 1 1 -1 0 -0.0007702786 -0.001116497 -0.001141273 1000 1000 1000 -0.0007702786 -0.001116497 -0.001141273 1000 1000 1000 -0.0005754258 -0.0006858409 -0.0002319365 4.216338E-05 -0.000136988 1000 -0.0005754258 -0.0006858409 -0.0002319365 4.216338E-05 -0.000136988 1000
lala 7 1.2 0 first 4 1 104 6 8.759999 0.0399982929229736 -1 0 -1 0 0.0001032095 0.0002787954 0.0004575451 1000 1000 1000 0.0001032095 0.0002787954 0.0004575451 1000 1000 1000 0.0006010311 0.0002376169 0.0002042849 0.0002991875 0.0005203845 1000 0.0006010311 0.0002376169 0.0002042849 0.0002991875 0.0005203845 1000
lala 3 1.2 1 first 0 1 105 4 5.04 0.39999794960022 -1 0 1 1 0.0007986146 0.0008659333 0.001126933 1000 1000 1000 0.0007986146 0.0008659333 0.001126933 1000 1000 1000 0.0006755023 0.001018453 0.001373793 0.001334453 0.001160883 1000 0.0006755023 0.001018453 0.001373793 0.001334453 0.001160883 1000
lala 9 1.2 0 second 5 1 106 6 7.98 0.339998006820679 -1 1 -1 0 0.002368167 0.0022079 0.002660143 0.002944079 0.002653307 1000 0.002368167 0.0022079 0.002660143 0.002944079 0.002653307 1000 0.002597572 0.002798931 0.002924873 0.002740681 0.002822479 1000 0.002597572 0.002798931 0.002924873 0.002740681 0.002822479 1000
lala 8 1.2 1 second 4 1 107 6 9.959999 0.639997720718384 -1 0 1 0 0.003865737 0.003719694 0.003713317 0.003947474 0.003937838 1000 0.003865737 0.003719694 0.003713317 0.003947474 0.003937838 1000 0.003018011 0.003352554 0.003571059 0.003298284 0.003468497 1000 0.003018011 0.003352554 0.003571059 0.003298284 0.003468497 1000
lala 7 1.2 1 first 12 1 108 4 5.04 0.539997816085815 0 0 1 1 0.004090003 0.004313284 0.004042272 1000 1000 1000 0.004090003 0.004313284 0.004042272 1000 1000 1000 0.00412734 0.00392145 0.003236493 0.003251998 0.003480111 1000 0.00412734 0.00392145 0.003236493 0.003251998 0.003480111 1000
lala 5 1.2 1 second 2 1 109 5 5.7 0.679997682571411 -1 0 1 1 0.004083096 0.003844401 0.003699427 0.003920434 0.003987485 1000 0.004083096 0.003844401 0.003699427 0.003920434 0.003987485 1000 0.003625323 0.003566323 0.003466004 0.003517398 0.003229675 1000 0.003625323 0.003566323 0.003466004 0.003517398 0.003229675 1000
lala 8 1.2 0 second 7 1 110 4 4.12 0.839997529983521 1 1 -1 1 0.003151865 0.003786596 0.004137404 0.003844492 0.003673164 1000 0.003151865 0.003786596 0.004137404 0.003844492 0.003673164 1000 0.003767247 0.003566096 0.003265296 0.003485894 0.003449565 1000 0.003767247 0.003566096 0.003265296 0.003485894 0.003449565 1000
lala 11 0.6 0 first 1 1 111 4 4.12 0.219998121261597 -1 1 -1 1 0.003690273 0.003495373 0.003735794 1000 1000 1000 0.003690273 0.003495373 0.003735794 1000 1000 1000 0.002679218 0.003083541 0.00337584 0.002884122 0.002717882 1000 0.002679218 0.003083541 0.00337584 0.002884122 0.002717882 1000
lala 7 1.2 0 first 13 1 112 4 2.92 1.41999697685242 0 1 -1 1 0.003257359 0.003155855 0.00346834 1000 1000 1000 0.003257359 0.003155855 0.00346834 1000 1000 1000 0.002559247 0.00257653 0.002505196 0.002595918 0.002520388 1000 0.002559247 0.00257653 0.002505196 0.002595918 0.002520388 1000
lala 10 1.2 1 second 11 1 113 6 6.780001 0.219998121261597 1 1 1 0 0.001410759 0.001133202 0.001033423 0.001184055 0.0008959543 1000 0.001410759 0.001133202 0.001033423 0.001184055 0.0008959543 1000 0.0005513885 0.0002411303 0.0005049595 0.0008269261 0.0008464492 1000 0.0005513885 0.0002411303 0.0005049595 0.0008269261 0.0008464492 1000
lala 7 1.2 1 second 3 1 114 5 6.65 0.159998178482056 -1 1 1 0 0.0011503 0.0008350958 0.001236488 0.001456533 0.001474084 1000 0.0011503 0.0008350958 0.001236488 0.001456533 0.001474084 1000 0.0006882308 0.001282291 0.00127454 0.001357021 0.001193689 1000 0.0006882308 0.001282291 0.00127454 0.001357021 0.001193689 1000
lala 6 1.2 1 first 9 1 115 5 5.450001 0.159998178482056 1 1 1 0 0.0015683 0.001660269 0.001514473 1000 1000 1000 0.0015683 0.001660269 0.001514473 1000 1000 1000 0.001540293 0.001842525 0.001782527 0.001473456 0.001697856 1000 0.001540293 0.001842525 0.001782527 0.001473456 0.001697856 1000
lala 8 1.2 0 second 12 1 116 4 3.84 0.499997854232788 0 0 -1 1 0.001766499 0.00178837 0.001792928 0.00196875 0.001651351 1000 0.001766499 0.00178837 0.001792928 0.00196875 0.001651351 1000 0.001699556 0.001429346 0.001568573 0.001985647 0.002184579 1000 0.001699556 0.001429346 0.001568573 0.001985647 0.002184579 1000
lala 8 1.2 0 first 13 1 117 4 4.12 0.639997720718384 0 1 -1 1 0.002683035 0.002781533 0.002476243 1000 1000 1000 0.002683035 0.002781533 0.002476243 1000 1000 1000 0.002450772 0.002742745 0.002893172 0.002839499 0.00278261 1000 0.002450772 0.002742745 0.002893172 0.002839499 0.00278261 1000
lala 10 0.6 1 second 5 1 118 6 8.580001 0.139998197555542 -1 1 1 0 0.003295113 0.003283984 0.003448174 0.002998401 0.002676345 1000 0.003295113 0.003283984 0.003448174 0.002998401 0.002676345 1000 0.002340922 0.002537708 0.002714534 0.002462185 0.002519122 1000 0.002340922 0.002537708 0.002714534 0.002462185 0.002519122 1000
lala 6 1.2 0 first 2 1 119 5 4.5 0.419997930526733 -1 0 -1 0 0.003030018 0.002780559 0.002765477 1000 1000 1000 0.003030018 0.002780559 0.002765477 1000 1000 1000 0.003402576 0.002672682 0.002817798 0.003124515 0.003000968 1000 0.003402576 0.002672682 0.002817798 0.003124515 0.003000968 1000
lala 11 0.3 0 first 5 1 120 6 8.280001 2.19999647140503 -1 1 -1 1 0.003281299 0.003608671 0.00353672 1000 1000 1000 0.003281299 0.003608671 0.00353672 1000 1000 1000 0.003370314 0.003143458 0.002771701 0.002839162 0.002769061 1000 0.003370314 0.003143458 0.002771701 0.002839162 0.002769061 1000
lala 8 1.2 1 second 14 1 121 5 4.5 0.279998064041138 0 0 1 1 0.002499506 0.003758865 0.003522341 0.002997864 0.003455157 1000 0.002499506 0.003758865 0.003522341 0.002997864 0.003455157 1000 0.004212251 0.004413777 0.004593643 0.004375064 0.004291871 1000 0.004212251 0.004413777 0.004593643 0.004375064 0.004291871 1000
lala 7 1.2 1 first 2 1 122 5 5.7 0.819997549057007 -1 0 1 1 0.003478156 0.003684598 0.003519877 1000 1000 1000 0.003478156 0.003684598 0.003519877 1000 1000 1000 0.00273691 0.003091731 0.002812614 0.002682271 0.002916944 1000 0.00273691 0.003091731 0.002812614 0.002682271 0.002916944 1000
lala 3 1.2 0 second 17 1 123 6 5.580001 0.879997491836548 0 1 -1 1 0.003033648 0.002873492 0.003413578 0.003784653 0.003125447 1000 0.003033648 0.002873492 0.003413578 0.003784653 0.003125447 1000 0.002429296 0.002527953 0.002459585 0.002633385 0.002727905 1000 0.002429296 0.002527953 0.002459585 0.002633385 0.002727905 1000
lala 8 1.2 1 second 3 1 124 5 5.45 0.459997892379761 -1 1 1 1 0.002960246 0.00291803 0.002729099 0.002584304 0.002624573 1000 0.002960246 0.00291803 0.002729099 0.002584304 0.002624573 1000 0.003386475 0.003063213 0.002916248 0.003067838 0.003082701 1000 0.003386475 0.003063213 0.002916248 0.003067838 0.003082701 1000
lala 3 1.2 1 second 10 1 125 6 3.96 1.45999693870544 1 0 1 0 0.003257462 0.003325148 0.003253966 0.003184943 0.002870457 1000 0.003257462 0.003325148 0.003253966 0.003184943 0.002870457 1000 0.002423961 0.002459806 0.002649326 0.002148587 0.001857624 1000 0.002423961 0.002459806 0.002649326 0.002148587 0.001857624 1000
lala 9 1.2 1 first 12 1 126 4 5.04 0.499997854232788 0 0 1 0 0.002717064 0.002729411 0.003149362 1000 1000 1000 0.002717064 0.002729411 0.003149362 1000 1000 1000 0.003022575 0.003222216 0.003535597 0.00325723 0.003159614 1000 0.003022575 0.003222216 0.003535597 0.00325723 0.003159614 1000
lala 11 0.6 1 second 11 1 127 6 6.180001 0.23999810218811 1 1 1 0 0.003669425 0.003273079 0.003026083 0.003356344 0.003197428 1000 0.003669425 0.003273079 0.003026083 0.003356344 0.003197428 1000 0.003438519 0.003502479 0.00332383 0.003320749 0.003448548 1000 0.003438519 0.003502479 0.00332383 0.003320749 0.003448548 1000
lala 7 1.2 1 second 9 1 128 5 4.250001 0.159998178482056 1 1 1 1 0.002778273 0.002143135 0.001805362 0.00237419 0.00260344 1000 0.002778273 0.002143135 0.001805362 0.00237419 0.00260344 1000 0.002155025 0.002398038 0.002228136 0.002193111 0.002511483 1000 0.002155025 0.002398038 0.002228136 0.002193111 0.002511483 1000
lala 12 0.6 0 second 1 1 129 4 4.72 0.359997987747192 -1 1 -1 1 0.002339776 0.002340586 0.002500033 0.002562248 0.002603601 1000 0.002339776 0.002340586 0.002500033 0.002562248 0.002603601 1000 0.002521928 0.002338874 0.001975207 0.001871438 0.001790726 1000 0.002521928 0.002338874 0.001975207 0.001871438 0.001790726 1000
lala 9 1.2 1 second 13 1 130 4 5.32 0.359997987747192 0 1 1 1 0.002008716 0.001463324 0.00152875 0.001801142 0.001813341 1000 0.002008716 0.001463324 0.00152875 0.001801142 0.001813341 1000 0.001856594 0.001820665 0.001733255 0.001569974 0.001398262 1000 0.001856594 0.001820665 0.001733255 0.001569974 0.001398262 1000
lala 4 1.2 0 first 17 1 131 6 6.780001 0.61999773979187 0 1 -1 1 0.001590746 0.001883731 0.002266053 1000 1000 1000 0.001590746 0.001883731 0.002266053 1000 1000 1000 0.003185653 0.002498331 0.002046932 0.002237479 0.002312364 1000 0.003185653 0.002498331 0.002046932 0.002237479 0.002312364 1000
lala 10 0.6 1 first 12 1 132 4 4.44 0.419997930526733 0 0 1 0 0.00279311 0.00275298 0.002965043 1000 1000 1000 0.00279311 0.00275298 0.002965043 1000 1000 1000 0.003636869 0.00351171 0.003411927 0.003614207 0.003279758 1000 0.003636869 0.00351171 0.003411927 0.003614207 0.003279758 1000
lala 4 1.2 0 second 10 1 133 6 2.76 0.01999831199646 1 0 -1 1 0.00311801 0.003352675 0.003315466 0.002994994 0.002905363 1000 0.00311801 0.003352675 0.003315466 0.002994994 0.002905363 1000 0.003627833 0.003531157 0.003455604 0.003535825 0.003496577 1000 0.003627833 0.003531157 0.003455604 0.003535825 0.003496577 1000
lala 9 1.2 1 second 8 1 134 5 3.3 0.159998178482056 1 0 1 1 0.003440028 0.003344711 0.003448852 0.003458429 0.003582531 1000 0.003440028 0.003344711 0.003448852 0.003458429 0.003582531 1000 0.003687116 0.003770366 0.003582285 0.00347712 0.003772319 1000 0.003687116 0.003770366 0.003582285 0.00347712 0.003772319 1000
lala 9 1.2 1 second 7 1 135 4 5.32 0.439997911453247 1 1 1 0 0.00283246 0.002667549 0.003066702 0.00321084 0.003040894 1000 0.00283246 0.002667549 0.003066702 0.00321084 0.003040894 1000 0.003308335 0.003288195 0.003345434 0.003601746 0.003708113 1000 0.003308335 0.003288195 0.003345434 0.003601746 0.003708113 1000
lala 9 1.2 1 second 4 1 136 6 8.759999 0.519997835159302 -1 0 1 0 0.003617368 0.00374951 0.003764298 0.003887865 0.003871794 1000 0.003617368 0.00374951 0.003764298 0.003887865 0.003871794 1000 0.004146235 0.003990466 0.004255418 0.004303314 0.004037827 1000 0.004146235 0.003990466 0.004255418 0.004303314 0.004037827 1000
lala 10 0.6 0 second 13 1 137 4 4.72 0.299998044967651 0 1 -1 1 0.004009703 0.003779363 0.003834511 0.004074404 0.003893945 1000 0.004009703 0.003779363 0.003834511 0.004074404 0.003893945 1000 0.00419682 0.004015376 0.004239684 0.004338852 0.004317279 1000 0.00419682 0.004015376 0.004239684 0.004338852 0.004317279 1000
lala 8 1.2 0 first 9 1 138 5 3.050001 1.91999673843384 1 1 -1 0 0.004716394 0.004757049 0.004603811 1000 1000 1000 0.004716394 0.004757049 0.004603811 1000 1000 1000 0.003303025 0.003236397 0.00337083 0.003344825 0.00350535 1000 0.003303025 0.003236397 0.00337083 0.003344825 0.00350535 1000
lala 8 1.2 0 second 2 1 139 5 4.5 0.179998159408569 -1 0 -1 0 0.00556933 0.005266454 0.004418816 0.002368402 0.002250975 1000 0.00556933 0.005266454 0.004418816 0.002368402 0.002250975 1000 -0.0008275779 -0.0007286219 -0.000783639 -0.001559177 -0.001773901 1000 -0.0008275779 -0.0007286219 -0.000783639 -0.001559177 -0.001773901 1000
lala 5 1.2 0 second 10 1 140 6 3.96 0.259998083114624 1 0 -1 1 -0.00430241 -0.005429803 -0.005637099 -0.005847502 -0.005291299 1000 -0.00430241 -0.005429803 -0.005637099 -0.005847502 -0.005291299 1000 -0.002810001 -0.001421276 -0.001446995 -0.001697807 -0.002456715 1000 -0.002810001 -0.001421276 -0.001446995 -0.001697807 -0.002456715 1000
lala 10 0.6 0 first 7 1 141 4 4.72 0.259998083114624 1 1 -1 0 -0.004335098 -0.003924738 -0.003368604 1000 1000 1000 -0.004335098 -0.003924738 -0.003368604 1000 1000 1000 -0.003308261 -0.003595782 -0.003373098 -0.00295245 -0.003187799 1000 -0.003308261 -0.003595782 -0.003373098 -0.00295245 -0.003187799 1000
lala 11 0.6 1 second 12 1 142 4 3.84 0.199998140335083 0 0 1 1 -0.004203477 -0.004136635 -0.003712145 -0.003798303 -0.003764867 1000 -0.004203477 -0.004136635 -0.003712145 -0.003798303 -0.003764867 1000 -0.003477091 -0.003196534 -0.003387261 -0.003449308 -0.003365288 1000 -0.003477091 -0.003196534 -0.003387261 -0.003449308 -0.003365288 1000
lala 9 1.2 0 first 3 1 143 5 4.25 0.779997587203979 -1 1 -1 1 -0.003487928 -0.003528376 -0.003362374 1000 1000 1000 -0.003487928 -0.003528376 -0.003362374 1000 1000 1000 -0.003335831 -0.003531507 -0.003574645 -0.003389767 -0.003506762 1000 -0.003335831 -0.003531507 -0.003574645 -0.003389767 -0.003506762 1000
lala 8 1.2 1 second 6 1 144 4 3.84 0.159998178482056 1 0 1 0 -0.003119749 -0.002832276 -0.003001059 -0.003057971 -0.003203567 1000 -0.003119749 -0.002832276 -0.003001059 -0.003057971 -0.003203567 1000 -0.00348167 -0.00322776 -0.002724382 -0.003188571 -0.003631018 1000 -0.00348167 -0.00322776 -0.002724382 -0.003188571 -0.003631018 1000
lala 10 1.2 0 second 8 1 145 5 2.1 0.559997797012329 1 0 -1 1 -0.003313559 -0.00329405 -0.003311863 -0.002863484 -0.002790895 1000 -0.003313559 -0.00329405 -0.003311863 -0.002863484 -0.002790895 1000 -0.002855183 -0.002864789 -0.003130019 -0.003013211 -0.002977672 1000 -0.002855183 -0.002864789 -0.003130019 -0.003013211 -0.002977672 1000
lala 9 1.2 0 first 14 1 146 5 3.3 0.01999831199646 0 0 -1 1 -0.003162231 -0.002981619 -0.002958154 1000 1000 1000 -0.003162231 -0.002981619 -0.002958154 1000 1000 1000 -0.003896114 -0.003709623 -0.003224098 -0.003134502 -0.003378078 1000 -0.003896114 -0.003709623 -0.003224098 -0.003134502 -0.003378078 1000
lala 6 1.2 1 second 16 1 147 6 7.559999 1.19999718666077 0 0 1 0 -0.003200039 -0.002926867 -0.002703542 -0.002953122 -0.002959447 1000 -0.003200039 -0.002926867 -0.002703542 -0.002953122 -0.002959447 1000 -0.004229675 -0.003986178 -0.003875164 -0.003745371 -0.003975878 1000 -0.004229675 -0.003986178 -0.003875164 -0.003745371 -0.003975878 1000
lala 4 1.2 0 second 0 1 148 4 3.84 1.05999732017517 -1 0 -1 1 -0.00299025 -0.003339526 -0.003189539 -0.003057158 -0.003242605 1000 -0.00299025 -0.003339526 -0.003189539 -0.003057158 -0.003242605 1000 -0.003308387 -0.003307216 -0.003020053 -0.00318034 -0.003371022 1000 -0.003308387 -0.003307216 -0.003020053 -0.00318034 -0.003371022 1000
lala 7 1.2 1 second 16 1 149 6 6.36 0.61999773979187 0 0 1 1 -0.002709802 -0.00259126 -0.002461856 -0.002063647 -0.00201625 1000 -0.002709802 -0.00259126 -0.002461856 -0.002063647 -0.00201625 1000 -0.002275012 -0.001970525 -0.002166227 -0.002280978 -0.002010505 1000 -0.002275012 -0.001970525 -0.002166227 -0.002280978 -0.002010505 1000
lala 12 0.6 0 first 12 1 150 4 3.24 2.09999656677246 0 0 -1 1 -0.002413095 -0.003083244 -0.003351659 -0.003066595 -0.002818359 -0.002493174 -0.002413095 -0.003083244 -0.003351659 -0.003066595 -0.002818359 -0.002493174 -0.004166459 -0.004039385 -0.003950072 -0.003932445 -0.003949629 1000 -0.004166459 -0.004039385 -0.003950072 -0.003932445 -0.003949629 1000
lala 10 0.6 1 first 14 1 151 5 3.9 0.199998140335083 0 0 1 1 -0.00551971 -0.00558838 -0.005723771 1000 1000 1000 -0.00551971 -0.00558838 -0.005723771 1000 1000 1000 -0.006167734 -0.005730009 -0.005180792 -0.005146287 -0.005800844 1000 -0.006167734 -0.005730009 -0.005180792 -0.005146287 -0.005800844 1000
lala 12 0.6 1 second 11 1 152 6 5.580001 0.219998121261597 1 1 1 0 -0.00595434 -0.006028983 -0.005784682 -0.005774298 -0.005889375 1000 -0.00595434 -0.006028983 -0.005784682 -0.005774298 -0.005889375 1000 -0.005894939 -0.005954168 -0.006104701 -0.006299815 -0.006229735 1000 -0.005894939 -0.005954168 -0.006104701 -0.006299815 -0.006229735 1000
lala 9 1.2 1 first 9 1 153 5 4.250001 1.3999969959259 1 1 1 0 -0.005917624 -0.005932912 -0.006057941 1000 1000 1000 -0.005917624 -0.005932912 -0.006057941 1000 1000 1000 -0.005480226 -0.005504018 -0.005201901 -0.005176186 -0.005450403 1000 -0.005480226 -0.005504018 -0.005201901 -0.005176186 -0.005450403 1000
lala 5 1.2 0 first 17 1 154 6 7.98 0.179998159408569 0 1 -1 0 -0.006555695 -0.005966428 -0.005624289 1000 1000 1000 -0.006555695 -0.005966428 -0.005624289 1000 1000 1000 -0.005878343 -0.006138056 -0.005799509 -0.005865391 -0.005630876 1000 -0.005878343 -0.006138056 -0.005799509 -0.005865391 -0.005630876 1000
lala 11 0.3 0 second 14 1 155 5 3.6 0.499997854232788 0 0 -1 0 -0.005770988 -0.005304259 -0.0047625 -0.003662098 -0.003602938 1000 -0.005770988 -0.005304259 -0.0047625 -0.003662098 -0.003602938 1000 -0.006394076 -0.005772527 -0.005711158 -0.006193921 -0.006653958 1000 -0.006394076 -0.005772527 -0.005711158 -0.006193921 -0.006653958 1000
lala 9 1.2 1 second 2 1 156 5 5.7 0.379997968673706 -1 0 1 1 -0.005327894 -0.005228682 -0.005594885 -0.00608241 -0.005977595 1000 -0.005327894 -0.005228682 -0.005594885 -0.00608241 -0.005977595 1000 -0.006270865 -0.005874784 -0.00570124 -0.00614776 -0.006219014 1000 -0.006270865 -0.005874784 -0.00570124 -0.00614776 -0.006219014 1000
lala 13 1.2 0 first 1 1 157 4 5.92 0.639997720718384 -1 1 -1 0 -0.006179336 -0.006300934 -0.006166027 1000 1000 1000 -0.006179336 -0.006300934 -0.006166027 1000 1000 1000 -0.005590624 -0.00549056 -0.005392932 -0.00525609 -0.005273643 1000 -0.005590624 -0.00549056 -0.005392932 -0.00525609 -0.005273643 1000
lala 13 0.6 1 second 11 1 158 6 4.980001 0.379997968673706 1 1 1 0 -0.005635895 -0.005571495 -0.005946203 -0.00604053 -0.006013018 1000 -0.005635895 -0.005571495 -0.005946203 -0.00604053 -0.006013018 1000 -0.006068787 -0.005447814 -0.005346227 -0.005073509 -0.004988939 1000 -0.006068787 -0.005447814 -0.005346227 -0.005073509 -0.004988939 1000
lala 12 0.15 1 first 14 1 159 5 3.75 1.03999733924866 0 0 1 1 -0.005858241 -0.005714604 -0.006019583 1000 1000 1000 -0.005858241 -0.005714604 -0.006019583 1000 1000 1000 -0.005320875 -0.005666566 -0.005838193 -0.005881681 -0.005915219 1000 -0.005320875 -0.005666566 -0.005838193 -0.005881681 -0.005915219 1000
lala 12 0.15 1 second 5 1 160 6 8.43 0.179998159408569 -1 1 1 1 -0.005126784 -0.005328305 -0.005269192 -0.004960735 -0.004994612 1000 -0.005126784 -0.005328305 -0.005269192 -0.004960735 -0.004994612 1000 -0.005687931 -0.005699569 -0.005768898 -0.005986409 -0.005814828 1000 -0.005687931 -0.005699569 -0.005768898 -0.005986409 -0.005814828 1000
lala 13 0.3 0 second 12 1 161 4 3.54 0.219998121261597 0 0 -1 1 -0.005758082 -0.005446847 -0.005180277 -0.005196453 -0.005391216 1000 -0.005758082 -0.005446847 -0.005180277 -0.005196453 -0.005391216 1000 -0.004771428 -0.004955821 -0.00497364 -0.004754269 -0.004794432 1000 -0.004771428 -0.004955821 -0.00497364 -0.004754269 -0.004794432 1000
lala 10 0.6 1 second 3 1 162 5 4.85 0.819997549057007 -1 1 1 0 -0.005814497 -0.005822825 -0.005601884 -0.005881365 -0.006010402 1000 -0.005814497 -0.005822825 -0.005601884 -0.005881365 -0.006010402 1000 -0.005508916 -0.005631408 -0.004985887 -0.004710034 -0.004869912 1000 -0.005508916 -0.005631408 -0.004985887 -0.004710034 -0.004869912 1000
lala 10 0.6 0 second 2 1 163 5 5.1 1.93999671936035 -1 0 -1 0 -0.006060241 -0.005625887 -0.005526367 -0.005640396 -0.005872625 1000 -0.006060241 -0.005625887 -0.005526367 -0.005640396 -0.005872625 1000 -0.005361692 -0.005112587 -0.005139015 -0.005171149 -0.005135397 1000 -0.005361692 -0.005112587 -0.005139015 -0.005171149 -0.005135397 1000
lala 11 0.3 0 first 2 1 164 5 5.4 1.0999972820282 -1 0 -1 0 -0.004719823 -0.004790224 -0.004823189 1000 1000 1000 -0.004719823 -0.004790224 -0.004823189 1000 1000 1000 -0.004828393 -0.004734011 -0.004306444 -0.004295384 -0.004217747 1000 -0.004828393 -0.004734011 -0.004306444 -0.004295384 -0.004217747 1000
lala 11 0.3 1 first 13 1 165 4 5.02 0.179998159408569 0 1 1 0 -0.004036184 -0.003863279 -0.003875156 1000 1000 1000 -0.004036184 -0.003863279 -0.003875156 1000 1000 1000 -0.004373763 -0.00452846 -0.004487285 -0.004251641 -0.00406117 1000 -0.004373763 -0.00452846 -0.004487285 -0.004251641 -0.00406117 1000
lala 11 0.3 0 second 7 1 166 4 5.02 0.719997644424438 1 1 -1 1 -0.003589045 -0.003614428 -0.003456751 -0.003487792 -0.003533999 1000 -0.003589045 -0.003614428 -0.003456751 -0.003487792 -0.003533999 1000 -0.003679108 -0.003600285 -0.003372675 -0.003162235 -0.003342145 1000 -0.003679108 -0.003600285 -0.003372675 -0.003162235 -0.003342145 1000
lala 8 1.2 1 second 16 1 167 6 5.16 0.459997892379761 0 0 1 0 -0.001875786 -0.001860324 -0.00188199 -0.0018447 -0.002094475 1000 -0.001875786 -0.001860324 -0.00188199 -0.0018447 -0.002094475 1000 -0.002685974 -0.002635357 -0.002328706 -0.002255587 -0.002141922 1000 -0.002685974 -0.002635357 -0.002328706 -0.002255587 -0.002141922 1000
lala 14 2.4 1 second 1 1 168 4 8.32 0.39999794960022 -1 1 1 1 -0.001989797 -0.001655696 -0.001418695 -0.001670046 -0.001808422 1000 -0.001989797 -0.001655696 -0.001418695 -0.001670046 -0.001808422 1000 -0.001966078 -0.001983269 -0.001100799 -0.001259196 -0.001790188 1000 -0.001966078 -0.001983269 -0.001100799 -0.001259196 -0.001790188 1000
lala 11 0.3 0 first 3 1 169 5 4.55 0.259998083114624 -1 1 -1 0 -0.001942526 -0.001720554 -0.00158184 1000 1000 1000 -0.001942526 -0.001720554 -0.00158184 1000 1000 1000 -0.001960235 -0.001812547 -0.001589674 -0.001506397 -0.001602152 1000 -0.001960235 -0.001812547 -0.001589674 -0.001506397 -0.001602152 1000
lala 4 1.2 1 second 15 1 170 5 5.450001 0.319998025894165 0 1 1 1 -0.0004536763 -0.0009492266 -0.00135004 -0.001085626 -0.0009934405 1000 -0.0004536763 -0.0009492266 -0.00135004 -0.001085626 -0.0009934405 1000 -0.001594582 -0.001631168 -0.001719021 -0.001812029 -0.001260809 1000 -0.001594582 -0.001631168 -0.001719021 -0.001812029 -0.001260809 1000
lala 12 0.3 0 first 2 1 171 5 5.7 0.819997549057007 -1 0 -1 0 -0.0009147611 -0.0008339935 -0.001196085 1000 1000 1000 -0.0009147611 -0.0008339935 -0.001196085 1000 1000 1000 -0.001779974 -0.001827104 -0.001623353 -0.001801294 -0.001560015 1000 -0.001779974 -0.001827104 -0.001623353 -0.001801294 -0.001560015 1000
lala 13 0.3 1 second 2 1 172 5 6 0.419997930526733 -1 0 1 1 -0.001216125 -0.0002591242 -0.0007693251 -0.001305257 -0.001321276 1000 -0.001216125 -0.0002591242 -0.0007693251 -0.001305257 -0.001321276 1000 -0.001975979 -0.001802175 -0.002036859 -0.002029838 -0.001929959 1000 -0.001975979 -0.001802175 -0.002036859 -0.002029838 -0.001929959 1000
lala 9 1.2 0 second 6 1 173 4 2.64 0.379997968673706 1 0 -1 1 -0.001007458 -0.0007326167 -0.0003921591 -0.0003261715 -0.0007617573 1000 -0.001007458 -0.0007326167 -0.0003921591 -0.0003261715 -0.0007617573 1000 -0.001408639 -0.001564667 -0.001717721 -0.001489259 -0.001449018 1000 -0.001408639 -0.001564667 -0.001717721 -0.001489259 -0.001449018 1000
lala 12 0.15 0 second 3 1 174 5 4.7 0.639997720718384 -1 1 -1 1 -0.001813277 -0.001547908 -0.001038656 -0.001293548 -0.001617383 1000 -0.001813277 -0.001547908 -0.001038656 -0.001293548 -0.001617383 1000 -0.002806605 -0.002579035 -0.002395053 -0.002576089 -0.002753578 1000 -0.002806605 -0.002579035 -0.002395053 -0.002576089 -0.002753578 1000
lala 10 1.2 0 first 4 1 175 6 7.559999 0.359997987747192 -1 0 -1 0 -0.002461922 -0.002199096 -0.001810835 1000 1000 1000 -0.002461922 -0.002199096 -0.001810835 1000 1000 1000 -0.00260554 -0.002124882 -0.001620762 -0.00149598 -0.001857625 1000 -0.00260554 -0.002124882 -0.001620762 -0.00149598 -0.001857625 1000
lala 13 0.075 0 first 14 1 176 5 3.675 0.139998197555542 0 0 -1 0 -0.001670632 -0.001627971 -0.001801332 1000 1000 1000 -0.001670632 -0.001627971 -0.001801332 1000 1000 1000 -0.001965611 -0.001935173 -0.001625291 -0.001553826 -0.00163342 1000 -0.001965611 -0.001935173 -0.001625291 -0.001553826 -0.00163342 1000
lala 14 0.15 0 second 2 1 177 5 5.85 1.13999724388123 -1 0 -1 1 -0.00174824 -0.001547511 -0.001857278 -0.001768012 -0.001815882 1000 -0.00174824 -0.001547511 -0.001857278 -0.001768012 -0.001815882 1000 -0.002191067 -0.002163214 -0.00217205 -0.002156448 -0.002247489 1000 -0.002191067 -0.002163214 -0.00217205 -0.002156448 -0.002247489 1000
lala 11 0.6 0 first 4 1 178 6 8.16 1.45999693870544 -1 0 -1 0 -0.001699605 -0.001650263 -0.001535625 1000 1000 1000 -0.001699605 -0.001650263 -0.001535625 1000 1000 1000 -0.001406947 -0.001647044 -0.001653782 -0.001910744 -0.002020487 1000 -0.001406947 -0.001647044 -0.001653782 -0.001910744 -0.002020487 1000
lala 9 1.2 0 first 16 1 179 6 3.96 0.959997415542603 0 0 -1 0 -0.001511755 -0.001306953 -0.001302387 1000 1000 1000 -0.001511755 -0.001306953 -0.001302387 1000 1000 1000 -0.002189273 -0.002188583 -0.002471338 -0.002324948 -0.002156737 1000 -0.002189273 -0.002188583 -0.002471338 -0.002324948 -0.002156737 1000
lala 10 0.6 1 second 6 1 180 4 3.24 0.0599982738494873 1 0 1 0 -0.001742208 -0.001636859 -0.001759333 -0.002022231 -0.002103498 1000 -0.001742208 -0.001636859 -0.001759333 -0.002022231 -0.002103498 1000 -0.001993306 -0.00156252 -0.001326144 -0.001612747 -0.001627933 1000 -0.001993306 -0.00156252 -0.001326144 -0.001612747 -0.001627933 1000
lala 6 1.2 0 first 10 1 181 6 5.16 0.919997453689575 1 0 -1 1 -0.001262724 -0.001259324 -0.001679011 1000 1000 1000 -0.001262724 -0.001259324 -0.001679011 1000 1000 1000 -0.00157718 -0.001760952 -0.001989717 -0.001721591 -0.001138079 1000 -0.00157718 -0.001760952 -0.001989717 -0.001721591 -0.001138079 1000
lala 14 1.2 0 first 11 1 182 6 3.780001 1.49999690055847 1 1 -1 1 -0.004443755 -0.003392829 -0.003156187 1000 1000 1000 -0.004443755 -0.003392829 -0.003156187 1000 1000 1000 -0.008092916 -0.01621789 -0.02213494 -0.02524387 -0.02610593 1000 -0.008092916 -0.01621789 -0.02213494 -0.02524387 -0.02610593 1000
lala 10 0.6 0 first 9 1 183 5 3.650001 2.05999660491943 1 1 -1 0 -0.02364206 -0.0213686 -0.02070755 1000 1000 1000 -0.02364206 -0.0213686 -0.02070755 1000 1000 1000 -0.02559443 -0.02544022 -0.02526417 -0.0251146 -0.02526655 1000 -0.02559443 -0.02544022 -0.02526417 -0.0251146 -0.02526655 1000
lala 10 0.6 0 first 16 1 184 6 4.56 0.359997987747192 0 0 -1 0 -0.02301249 -0.01836126 -0.01582505 1000 1000 1000 -0.02301249 -0.01836126 -0.01582505 1000 1000 1000 -0.02452578 -0.02508259 -0.02444466 -0.02372862 -0.0234211 1000 -0.02452578 -0.02508259 -0.02444466 -0.02372862 -0.0234211 1000
lala 15 1.2 1 second 1 1 185 4 7.12 0.61999773979187 -1 1 1 1 -0.02423067 -0.02326437 -0.02136704 -0.01982177 -0.01918471 1000 -0.02423067 -0.02326437 -0.02136704 -0.01982177 -0.01918471 1000 -0.01982741 -0.01997033 -0.02013363 -0.0201837 -0.02002545 1000 -0.01982741 -0.01997033 -0.02013363 -0.0201837 -0.02002545 1000
lala 12 0.6 1 first 4 1 186 6 8.76 0.539997816085815 -1 0 1 0 -0.02091653 -0.02075933 -0.02050229 1000 1000 1000 -0.02091653 -0.02075933 -0.02050229 1000 1000 1000 -0.02039385 -0.02033618 -0.02035392 -0.02042541 -0.02074079 1000 -0.02039385 -0.02033618 -0.02035392 -0.02042541 -0.02074079 1000
lala 11 0.3 0 second 6 1 187 4 2.94 0.459997892379761 1 0 -1 0 -0.0210658 -0.02097965 -0.02102678 -0.0209459 -0.02077691 1000 -0.0210658 -0.02097965 -0.02102678 -0.0209459 -0.02077691 1000 -0.01933641 -0.01975913 -0.02025767 -0.02028263 -0.02001315 1000 -0.01933641 -0.01975913 -0.02025767 -0.02028263 -0.02001315 1000
lala 12 0.15 0 second 6 1 188 4 3.09 0.559997797012329 1 0 -1 1 -0.02195841 -0.02149758 -0.02136305 -0.02155968 -0.02148246 1000 -0.02195841 -0.02149758 -0.02136305 -0.02155968 -0.02148246 1000 -0.02096959 -0.02092613 -0.02064009 -0.02050501 -0.02050983 1000 -0.02096959 -0.02092613 -0.02064009 -0.02050501 -0.02050983 1000
lala 5 1.2 0 first 15 1 189 5 4.250001 0.519997835159302 0 1 -1 0 -0.02187395 -0.02182011 -0.02179737 1000 1000 1000 -0.02187395 -0.02182011 -0.02179737 1000 1000 1000 -0.02099729 -0.02040877 -0.02012896 -0.02024392 -0.02043925 1000 -0.02099729 -0.02040877 -0.02012896 -0.02024392 -0.02043925 1000
lala 13 0.075 1 second 5 1 190 6 8.355 0.479997873306274 -1 1 1 0 -0.0214923 -0.02169737 -0.02186595 -0.02170786 -0.02163992 1000 -0.0214923 -0.02169737 -0.02186595 -0.02170786 -0.02163992 1000 -0.02235211 -0.0225276 -0.02278944 -0.02251902 -0.02212499 1000 -0.02235211 -0.0225276 -0.02278944 -0.02251902 -0.02212499 1000
lala 13 0.3 1 first 4 1 191 6 8.46 0.479997873306274 -1 0 1 0 -0.02327796 -0.02316914 -0.02348258 1000 1000 1000 -0.02327796 -0.02316914 -0.02348258 1000 1000 1000 -0.02346897 -0.02323526 -0.02311551 -0.02304897 -0.02325826 1000 -0.02346897 -0.02323526 -0.02311551 -0.02304897 -0.02325826 1000
lala 12 0.15 1 second 13 1 192 4 4.87 1.83999681472778 0 1 1 0 -0.02251171 -0.02255329 -0.02307722 -0.02396472 -0.02420442 1000 -0.02251171 -0.02255329 -0.02307722 -0.02396472 -0.02420442 1000 -0.02457194 -0.02497185 -0.02492516 -0.0248102 -0.02544085 1000 -0.02457194 -0.02497185 -0.02492516 -0.0248102 -0.02544085 1000
lala 15 0.6 0 second 11 1 193 6 4.380001 0.519997835159302 1 1 -1 0 -0.02088023 -0.0202899 -0.01988902 -0.01954518 -0.01912981 1000 -0.02088023 -0.0202899 -0.01988902 -0.01954518 -0.01912981 1000 -0.01744986 -0.01770744 -0.01766707 -0.01729933 -0.01733734 1000 -0.01744986 -0.01770744 -0.01766707 -0.01729933 -0.01733734 1000
lala 6 1.2 1 second 15 1 194 5 5.450001 0.219998121261597 0 1 1 1 -0.01981494 -0.01998209 -0.02034491 -0.02036494 -0.02035874 1000 -0.01981494 -0.01998209 -0.02034491 -0.02036494 -0.02035874 1000 -0.02066792 -0.02115732 -0.02123125 -0.02128276 -0.02124214 1000 -0.02066792 -0.02115732 -0.02123125 -0.02128276 -0.02124214 1000
lala 5 1.2 1 first 0 1 195 4 5.04 0.379997968673706 -1 0 1 1 -0.02173781 -0.02165067 -0.02147355 1000 1000 1000 -0.02173781 -0.02165067 -0.02147355 1000 1000 1000 -0.02549119 -0.02562411 -0.02563084 -0.02568685 -0.02577151 1000 -0.02549119 -0.02562411 -0.02563084 -0.02568685 -0.02577151 1000
lala 7 1.2 0 first 10 1 196 6 6.36 1.49999690055847 1 0 -1 0 -0.02507851 -0.02491554 -0.02438629 1000 1000 1000 -0.02507851 -0.02491554 -0.02438629 1000 1000 1000 -0.02238153 -0.02305148 -0.02313113 -0.02297139 -0.02273059 1000 -0.02238153 -0.02305148 -0.02313113 -0.02297139 -0.02273059 1000
lala 16 0.6 0 first 11 1 197 6 4.980001 0.259998083114624 1 1 -1 1 -0.0242027 -0.02413376 -0.02398192 1000 1000 1000 -0.0242027 -0.02413376 -0.02398192 1000 1000 1000 -0.02384006 -0.02351995 -0.02336756 -0.02355697 -0.02369211 1000 -0.02384006 -0.02351995 -0.02336756 -0.02355697 -0.02369211 1000
lala 8 1.2 1 second 10 1 198 6 7.559999 0.199998140335083 1 0 1 0 -0.02186636 -0.02122987 -0.0210293 -0.02100749 -0.02145338 1000 -0.02186636 -0.02122987 -0.0210293 -0.02100749 -0.02145338 1000 -0.02127794 -0.02080112 -0.01949227 -0.01904371 -0.01938706 1000 -0.02127794 -0.02080112 -0.01949227 -0.01904371 -0.01938706 1000
lala 15 0.075 0 first 2 1 199 5 5.925 0.279998064041138 -1 0 -1 0 -0.0206096 -0.02070664 -0.02075404 1000 1000 1000 -0.0206096 -0.02070664 -0.02075404 1000 1000 1000 -0.02158976 -0.02148696 -0.02113113 -0.020874 -0.02107771 1000 -0.02158976 -0.02148696 -0.02113113 -0.020874 -0.02107771 1000
lala 11 0.6 1 first 8 1 200 5 2.7 1.47999691963196 1 0 1 0 -0.02423991 -0.02401757 -0.0243044 -0.02472451 -0.02452789 -0.02428685 -0.02423991 -0.02401757 -0.0243044 -0.02472451 -0.02452789 -0.02428685 -0.02506768 -0.02431372 -0.02393457 -0.02441593 -0.02509981 1000 -0.02506768 -0.02431372 -0.02393457 -0.02441593 -0.02509981 1000
lala 14 0.075 1 first 5 1 201 6 8.280001 0.879997491836548 -1 1 1 0 -0.02424455 -0.02423858 -0.02383452 1000 1000 1000 -0.02424455 -0.02423858 -0.02383452 1000 1000 1000 -0.02379655 -0.02398225 -0.02417854 -0.02417421 -0.02403109 1000 -0.02379655 -0.02398225 -0.02417854 -0.02417421 -0.02403109 1000
lala 9 1.2 1 second 10 1 202 6 6.36 0.339998006820679 1 0 1 0 -0.023566 -0.02361525 -0.02358533 -0.02375853 -0.02378808 1000 -0.023566 -0.02361525 -0.02358533 -0.02375853 -0.02378808 1000 -0.02463841 -0.02458775 -0.02455876 -0.0248076 -0.02476547 1000 -0.02463841 -0.02458775 -0.02455876 -0.0248076 -0.02476547 1000
lala 17 0.6 1 first 11 1 203 6 5.580001 0.219998121261597 1 1 1 1 -0.02485719 -0.02474725 -0.02506835 1000 1000 1000 -0.02485719 -0.02474725 -0.02506835 1000 1000 1000 -0.0255534 -0.02543579 -0.02526534 -0.02558031 -0.02578089 1000 -0.0255534 -0.02543579 -0.02526534 -0.02558031 -0.02578089 1000
lala 15 0.075 1 second 5 1 204 6 8.205001 0.819997549057007 -1 1 1 1 -0.01958211 -0.01680027 -0.01539724 -0.01536568 -0.01597992 1000 -0.01958211 -0.01680027 -0.01539724 -0.01536568 -0.01597992 1000 -0.01630314 -0.01642444 -0.01676516 -0.01676827 -0.01664369 1000 -0.01630314 -0.01642444 -0.01676516 -0.01676827 -0.01664369 1000
lala 14 0.0375 1 first 14 1 205 5 3.7125 0.419997930526733 0 0 1 1 -0.01915398 -0.01915811 -0.01901825 1000 1000 1000 -0.01915398 -0.01915811 -0.01901825 1000 1000 1000 -0.02052591 -0.02065673 -0.02017619 -0.02004987 -0.02019572 1000 -0.02052591 -0.02065673 -0.02017619 -0.02004987 -0.02019572 1000
lala 11 0.6 1 second 16 1 206 6 5.16 0.419997930526733 0 0 1 1 -0.02165953 -0.02173477 -0.02130158 -0.02106132 -0.02124049 1000 -0.02165953 -0.02173477 -0.02130158 -0.02106132 -0.02124049 1000 -0.02129042 -0.0211795 -0.02083748 -0.02085862 -0.02116455 1000 -0.02129042 -0.0211795 -0.02083748 -0.02085862 -0.02116455 1000
lala 14 0.3 0 first 12 1 207 4 3.84 1.01999735832214 0 0 -1 0 -0.02122791 -0.02101626 -0.02103462 1000 1000 1000 -0.02122791 -0.02101626 -0.02103462 1000 1000 1000 -0.02072719 -0.02073959 -0.02066475 -0.02071432 -0.02065804 1000 -0.02072719 -0.02073959 -0.02066475 -0.02071432 -0.02065804 1000
lala 12 0.3 1 second 7 1 208 4 5.32 0.01999831199646 1 1 1 1 -0.02100394 -0.02105147 -0.02132218 -0.02133247 -0.02109497 1000 -0.02100394 -0.02105147 -0.02132218 -0.02133247 -0.02109497 1000 -0.02122197 -0.02101889 -0.02100437 -0.02098371 -0.0207231 1000 -0.02122197 -0.02101889 -0.02100437 -0.02098371 -0.0207231 1000
lala 7 1.2 0 first 15 1 209 5 4.250001 2.25999641418457 0 1 -1 0 -0.02066395 -0.02069253 -0.02068092 1000 1000 1000 -0.02066395 -0.02069253 -0.02068092 1000 1000 1000 -0.02020565 -0.02032671 -0.02038015 -0.02030358 -0.02033208 1000 -0.02020565 -0.02032671 -0.02038015 -0.02030358 -0.02033208 1000
lala 15 0.3 1 second 12 1 210 4 4.14 0.719997644424438 0 0 1 1 -0.02156416 -0.02144476 -0.02135007 -0.02137228 -0.02123445 1000 -0.02156416 -0.02144476 -0.02135007 -0.02137228 -0.02123445 1000 -0.02087214 -0.02038343 -0.02004046 -0.02006315 -0.02011108 1000 -0.02087214 -0.02038343 -0.02004046 -0.02006315 -0.02011108 1000
lala 16 0.15 1 first 12 1 211 4 3.99 0.699997663497925 0 0 1 1 -0.02097086 -0.02072373 -0.02085596 1000 1000 1000 -0.02097086 -0.02072373 -0.02085596 1000 1000 1000 -0.02150224 -0.02140582 -0.0212015 -0.02145125 -0.02150144 1000 -0.02150224 -0.02140582 -0.0212015 -0.02145125 -0.02150144 1000
lala 11 0.3 0 first 9 1 212 5 3.950001 1.19999718666077 1 1 -1 0 -0.02208343 -0.02198506 -0.02201025 1000 1000 1000 -0.02208343 -0.02198506 -0.02201025 1000 1000 1000 -0.02238103 -0.02257632 -0.02250814 -0.02249693 -0.02270305 1000 -0.02238103 -0.02257632 -0.02250814 -0.02249693 -0.02270305 1000
lala 16 0.15 1 second 5 1 213 6 8.055001 1.11999726295471 -1 1 1 0 -0.02281582 -0.02277822 -0.02315781 -0.02332159 -0.02317761 1000 -0.02281582 -0.02277822 -0.02315781 -0.02332159 -0.02317761 1000 -0.02307163 -0.02296856 -0.02304411 -0.02296475 -0.02284546 1000 -0.02307163 -0.02296856 -0.02304411 -0.02296475 -0.02284546 1000
lala 6 1.2 1 second 17 1 214 6 9.18 0.579997777938843 0 1 1 0 -0.02312433 -0.02327266 -0.0231768 -0.02305308 -0.02302396 1000 -0.02312433 -0.02327266 -0.0231768 -0.02305308 -0.02302396 1000 -0.02300152 -0.02313806 -0.02308389 -0.02293345 -0.0229458 1000 -0.02300152 -0.02313806 -0.02308389 -0.02293345 -0.0229458 1000
lala 7 1.2 1 second 17 1 215 6 7.98 2.01999664306641 0 1 1 0 -0.02250872 -0.02262476 -0.02253889 -0.02249666 -0.02258243 1000 -0.02250872 -0.02262476 -0.02253889 -0.02249666 -0.02258243 1000 -0.02199837 -0.02205314 -0.02189169 -0.02177232 -0.02172075 1000 -0.02199837 -0.02205314 -0.02189169 -0.02177232 -0.02172075 1000
lala 14 0.3 1 second 4 1 216 6 8.16 0.439997911453247 -1 0 1 0 -0.02157248 -0.02166253 -0.02166201 -0.02154403 -0.02177783 1000 -0.02157248 -0.02166253 -0.02166201 -0.02154403 -0.02177783 1000 -0.02115833 -0.02093736 -0.02121516 -0.02153393 -0.02149472 1000 -0.02115833 -0.02093736 -0.02121516 -0.02153393 -0.02149472 1000
lala 12 0.3 0 first 8 1 217 5 2.4 0.01999831199646 1 0 -1 0 -0.02147407 -0.02152503 -0.02146032 1000 1000 1000 -0.02147407 -0.02152503 -0.02146032 1000 1000 1000 -0.0211595 -0.02118209 -0.02102129 -0.02110756 -0.02141434 1000 -0.0211595 -0.02118209 -0.02102129 -0.02110756 -0.02141434 1000
lala 17 0.3 0 first 5 1 218 6 7.755001 0.219998121261597 -1 1 -1 1 -0.02184862 -0.02207238 -0.02195668 1000 1000 1000 -0.02184862 -0.02207238 -0.02195668 1000 1000 1000 -0.02157047 -0.02136403 -0.02126676 -0.02130868 -0.02107776 1000 -0.02157047 -0.02136403 -0.02126676 -0.02130868 -0.02107776 1000
lala 16 0.075 0 first 2 1 219 5 6 0.159998178482056 -1 0 -1 1 -0.02162093 -0.02196354 -0.02204719 1000 1000 1000 -0.02162093 -0.02196354 -0.02204719 1000 1000 1000 -0.02169544 -0.0214553 -0.02121514 -0.02143706 -0.02133419 1000 -0.02169544 -0.0214553 -0.02121514 -0.02143706 -0.02133419 1000
lala 17 0.075 1 second 2 1 220 5 6.075 1.11999726295471 -1 0 1 0 -0.02197224 -0.02220938 -0.02226301 -0.02218707 -0.02207763 1000 -0.02197224 -0.02220938 -0.02226301 -0.02218707 -0.02207763 1000 -0.02197921 -0.02192567 -0.02183866 -0.02207935 -0.02194142 1000 -0.02197921 -0.02192567 -0.02183866 -0.02207935 -0.02194142 1000
lala 12 0.3 0 first 16 1 221 6 4.86 0.459997892379761 0 0 -1 0 -0.02178562 -0.0218619 -0.02182269 1000 1000 1000 -0.02178562 -0.0218619 -0.02182269 1000 1000 1000 -0.02201 -0.02200561 -0.02217866 -0.02206352 -0.02184893 1000 -0.02201 -0.02200561 -0.02217866 -0.02206352 -0.02184893 1000
lala 8 1.2 0 first 17 1 222 6 6.780001 0.339998006820679 0 1 -1 1 -0.02189089 -0.02193525 -0.02216414 1000 1000 1000 -0.02189089 -0.02193525 -0.02216414 1000 1000 1000 -0.02167045 -0.02157387 -0.02165611 -0.02202079 -0.02227115 1000 -0.02167045 -0.02157387 -0.02165611 -0.02202079 -0.02227115 1000
lala 13 0.15 0 first 3 1 223 5 4.85 0.179998159408569 -1 1 -1 1 -0.02264034 -0.02261351 -0.02271643 1000 1000 1000 -0.02264034 -0.02261351 -0.02271643 1000 1000 1000 -0.02263357 -0.02267968 -0.02242408 -0.02247878 -0.02267469 1000 -0.02263357 -0.02267968 -0.02242408 -0.02247878 -0.02267469 1000
lala 9 1.2 1 first 17 1 224 6 7.98 0.01999831199646 0 1 1 0 -0.02301895 -0.02340095 -0.02365643 1000 1000 1000 -0.02301895 -0.02340095 -0.02365643 1000 1000 1000 -0.02309091 -0.02289355 -0.0228348 -0.02288611 -0.02300437 1000 -0.02309091 -0.02289355 -0.0228348 -0.02288611 -0.02300437 1000
lala 18 0.3 1 first 11 1 225 6 5.280001 0.339998006820679 1 1 1 0 -0.0232991 -0.02341318 -0.0235556 1000 1000 1000 -0.0232991 -0.02341318 -0.0235556 1000 1000 1000 -0.02346029 -0.02337942 -0.02311151 -0.02328663 -0.02334188 1000 -0.02346029 -0.02337942 -0.02311151 -0.02328663 -0.02334188 1000
lala 10 0.6 0 first 17 1 226 6 7.380001 2.49999618530273 0 1 -1 0 -0.02349673 -0.0236699 -0.02376041 1000 1000 1000 -0.02349673 -0.0236699 -0.02376041 1000 1000 1000 -0.02394113 -0.02410484 -0.02407514 -0.02401734 -0.02409833 1000 -0.02394113 -0.02410484 -0.02407514 -0.02401734 -0.02409833 1000
lala 15 0.01875 0 second 14 1 227 5 3.69375 0.699997663497925 0 0 -1 0 -0.02462758 -0.02439968 -0.02430779 -0.02442275 -0.02466807 1000 -0.02462758 -0.02439968 -0.02430779 -0.02442275 -0.02466807 1000 -0.02446315 -0.02461021 -0.0248084 -0.02503663 -0.0249533 1000 -0.02446315 -0.02461021 -0.0248084 -0.02503663 -0.0249533 1000
lala 13 0.15 0 first 8 1 228 5 2.55 0.159998178482056 1 0 -1 0 -0.02485195 -0.02494389 -0.02515946 1000 1000 1000 -0.02485195 -0.02494389 -0.02515946 1000 1000 1000 -0.02525059 -0.02521678 -0.02553089 -0.02565796 -0.02552979 1000 -0.02525059 -0.02521678 -0.02553089 -0.02565796 -0.02552979 1000
lala 11 0.3 1 first 17 1 229 6 7.680001 0.279998064041138 0 1 1 0 -0.0232089 -0.02070225 -0.01957387 1000 1000 1000 -0.0232089 -0.02070225 -0.01957387 1000 1000 1000 -0.01456136 -0.01450823 -0.01474639 -0.01477308 -0.01480023 1000 -0.01456136 -0.01450823 -0.01474639 -0.01477308 -0.01480023 1000
lala 6 1.2 1 first 0 1 230 4 3.84 0.379997968673706 -1 0 1 1 -0.0171419 -0.01680676 -0.01652729 1000 1000 1000 -0.0171419 -0.01680676 -0.01652729 1000 1000 1000 -0.01785274 -0.01795695 -0.01796805 -0.01811826 -0.01820484 1000 -0.01785274 -0.01795695 -0.01796805 -0.01811826 -0.01820484 1000
lala 17 0.15 0 first 12 1 231 4 3.84 0.259998083114624 0 0 -1 0 -0.01921558 -0.01950273 -0.01968749 1000 1000 1000 -0.01921558 -0.01950273 -0.01968749 1000 1000 1000 -0.01814145 -0.01798199 -0.0173365 -0.01721489 -0.01778513 1000 -0.01814145 -0.01798199 -0.0173365 -0.01721489 -0.01778513 1000
lala 8 1.2 1 first 15 1 232 5 5.450001 0.299998044967651 0 1 1 0 -0.02351557 -0.02507498 -0.02728349 1000 1000 1000 -0.02351557 -0.02507498 -0.02728349 1000 1000 1000 -0.03046618 -0.03079065 -0.03044488 -0.0312771 -0.03197693 1000 -0.03046618 -0.03079065 -0.03044488 -0.0312771 -0.03197693 1000
lala 16 1.2 1 second 1 1 233 4 5.92 0.459997892379761 -1 1 1 0 -0.01353319 -0.0131426 -0.01295777 -0.01291868 -0.01270917 1000 -0.01353319 -0.0131426 -0.01295777 -0.01291868 -0.01270917 1000 -0.01292319 -0.01256649 -0.0126678 -0.01291347 -0.01306891 1000 -0.01292319 -0.01256649 -0.0126678 -0.01291347 -0.01306891 1000
lala 14 0.15 0 first 3 1 234 5 5 0.579997777938843 -1 1 -1 1 -0.0129589 -0.01245652 -0.01256685 1000 1000 1000 -0.0129589 -0.01245652 -0.01256685 1000 1000 1000 -0.01275557 -0.01262857 -0.01239121 -0.01254895 -0.01293257 1000 -0.01275557 -0.01262857 -0.01239121 -0.01254895 -0.01293257 1000
lala 14 0.15 0 first 8 1 235 5 2.7 0.01999831199646 1 0 -1 1 -0.0132749 -0.01340026 -0.01357104 1000 1000 1000 -0.0132749 -0.01340026 -0.01357104 1000 1000 1000 -0.01443684 -0.01416617 -0.01404656 -0.0140928 -0.0140343 1000 -0.01443684 -0.01416617 -0.01404656 -0.0140928 -0.0140343 1000
lala 16 0.009375 0 first 14 1 236 5 3.703125 0.0999982357025146 0 0 -1 0 -0.0138692 -0.01391081 -0.013925 1000 1000 1000 -0.0138692 -0.01391081 -0.013925 1000 1000 1000 -0.01371926 -0.01359282 -0.01329263 -0.01388025 -0.01434347 1000 -0.01371926 -0.01359282 -0.01329263 -0.01388025 -0.01434347 1000
lala 18 0.15 0 second 5 1 237 6 7.905001 2.2999963760376 -1 1 -1 1 -0.01392983 -0.01358369 -0.01387348 -0.01393402 -0.014352 1000 -0.01392983 -0.01358369 -0.01387348 -0.01393402 -0.014352 1000 -0.01458206 -0.01472352 -0.01484061 -0.0148071 -0.01467373 1000 -0.01458206 -0.01472352 -0.01484061 -0.0148071 -0.01467373 1000
lala 18 0.0375 0 second 2 1 238 5 6.0375 0.599997758865356 -1 0 -1 1 -0.01421793 -0.01404282 -0.0143686 -0.01473472 -0.01468541 1000 -0.01421793 -0.01404282 -0.0143686 -0.01473472 -0.01468541 1000 -0.01422596 -0.01417009 -0.01417584 -0.01413588 -0.01403694 1000 -0.01422596 -0.01417009 -0.01417584 -0.01413588 -0.01403694 1000
lala 13 0.15 0 first 16 1 239 6 5.01 0.299998044967651 0 0 -1 0 -0.01353712 -0.01348499 -0.01367207 1000 1000 1000 -0.01353712 -0.01348499 -0.01367207 1000 1000 1000 -0.01464352 -0.0142834 -0.01407931 -0.01411421 -0.01391387 1000 -0.01464352 -0.0142834 -0.01407931 -0.01411421 -0.01391387 1000
lala 17 1.2 0 second 1 1 240 4 4.72 0.299998044967651 -1 1 -1 1 -0.01318029 -0.0136408 -0.01355794 -0.01345382 -0.01323848 1000 -0.01318029 -0.0136408 -0.01355794 -0.01345382 -0.01323848 1000 -0.01397272 -0.01379481 -0.01399166 -0.01419132 -0.01403318 1000 -0.01397272 -0.01379481 -0.01399166 -0.01419132 -0.01403318 1000
lala 9 1.2 1 second 15 1 241 5 4.250001 0.859997510910034 0 1 1 0 -0.01329462 -0.01308302 -0.01264783 -0.01229515 -0.01248096 1000 -0.01329462 -0.01308302 -0.01264783 -0.01229515 -0.01248096 1000 -0.01238109 -0.01269358 -0.01275348 -0.01245608 -0.01253511 1000 -0.01238109 -0.01269358 -0.01275348 -0.01245608 -0.01253511 1000
lala 17 0.009375 0 first 14 1 242 5 3.7125 0.319998025894165 0 0 -1 0 -0.01225821 -0.0119818 -0.01190558 1000 1000 1000 -0.01225821 -0.0119818 -0.01190558 1000 1000 1000 -0.01212916 -0.0122927 -0.01263244 -0.01225692 -0.01185138 1000 -0.01212916 -0.0122927 -0.01263244 -0.01225692 -0.01185138 1000
lala 10 1.2 1 second 15 1 243 5 3.050001 3.57999515533447 0 1 1 0 -0.01366201 -0.01311718 -0.01298864 -0.01298418 -0.01249589 1000 -0.01366201 -0.01311718 -0.01298864 -0.01298418 -0.01249589 1000 -0.01254511 -0.01275253 -0.01277067 -0.01265322 -0.012786 1000 -0.01254511 -0.01275253 -0.01277067 -0.01265322 -0.012786 1000
lala 15 0.15 0 second 8 1 244 5 2.85 0.379997968673706 1 0 -1 0 -0.01878032 -0.01596849 -0.01330701 -0.01224652 -0.01147584 1000 -0.01878032 -0.01596849 -0.01330701 -0.01224652 -0.01147584 1000 -0.01499294 -0.01778894 -0.01824878 -0.01631167 -0.01535907 1000 -0.01499294 -0.01778894 -0.01824878 -0.01631167 -0.01535907 1000
lala 18 0.075 0 first 12 1 245 4 3.915 0.839997529983521 0 0 -1 0 -0.01540985 -0.01534092 -0.01535199 1000 1000 1000 -0.01540985 -0.01534092 -0.01535199 1000 1000 1000 -0.01678941 -0.01703676 -0.01711129 -0.01704006 -0.01709777 1000 -0.01678941 -0.01703676 -0.01711129 -0.01704006 -0.01709777 1000
lala 7 1.2 0 first 0 1 246 4 2.64 0.0999982357025146 -1 0 -1 0 -0.01816919 -0.0180521 -0.01772969 1000 1000 1000 -0.01816919 -0.0180521 -0.01772969 1000 1000 1000 -0.01788968 -0.01726017 -0.01622199 -0.01607064 -0.01654469 1000 -0.01788968 -0.01726017 -0.01622199 -0.01607064 -0.01654469 1000
lala 15 0.3 0 second 3 1 247 5 5.3 0.899997472763062 -1 1 -1 1 -0.01558128 -0.0157123 -0.01589187 -0.01565041 -0.01564839 1000 -0.01558128 -0.0157123 -0.01589187 -0.01565041 -0.01564839 1000 -0.01607981 -0.01578052 -0.01593417 -0.0161002 -0.0161843 1000 -0.01607981 -0.01578052 -0.01593417 -0.0161002 -0.0161843 1000
lala 19 0.15 1 first 5 1 248 6 8.055001 0.319998025894165 -1 1 1 0 -0.01506412 -0.01529179 -0.01509602 1000 1000 1000 -0.01506412 -0.01529179 -0.01509602 1000 1000 1000 -0.01436175 -0.01466979 -0.01479682 -0.0148877 -0.01474403 1000 -0.01436175 -0.01466979 -0.01479682 -0.0148877 -0.01474403 1000
lala 13 0.15 0 first 7 1 249 4 5.17 0.679997682571411 1 1 -1 1 -0.01518613 -0.01544173 -0.01529079 1000 1000 1000 -0.01518613 -0.01544173 -0.01529079 1000 1000 1000 -0.01441053 -0.01418057 -0.01416721 -0.0141644 -0.01451643 1000 -0.01441053 -0.01418057 -0.01416721 -0.0141644 -0.01451643 1000
lala 19 0.01875 1 second 2 1 250 5 6.05625 2.13999652862549 -1 0 1 1 0.004775104 0.005120045 0.00517513 0.004745573 0.004450829 1000 0.004775104 0.005120045 0.00517513 0.004745573 0.004450829 1000 0.002594668 0.002315225 0.001345064 0.0008168738 0.0004920511 1000 0.002594668 0.002315225 0.001345064 0.0008168738 0.0004920511 1000
lala 14 0.15 0 second 16 1 251 6 5.16 0.939997434616089 0 0 -1 0 -0.0004965861 -0.0002339597 -0.0001769702 -0.0004311072 -0.0005805123 1000 -0.0004965861 -0.0002339597 -0.0001769702 -0.0004311072 -0.0005805123 1000 0.0002580338 -0.0001310431 0.0001245953 0.0004451672 0.0002562763 1000 0.0002580338 -0.0001310431 0.0001245953 0.0004451672 0.0002562763 1000
lala 19 0.075 1 second 12 1 252 4 3.99 0.939997434616089 0 0 1 0 -0.001661034 -0.001416985 -0.001375515 -0.001317083 -0.00148241 1000 -0.001661034 -0.001416985 -0.001375515 -0.001317083 -0.00148241 1000 -0.001590655 -0.001759544 -0.001729344 -0.001490679 -0.001611228 1000 -0.001590655 -0.001759544 -0.001729344 -0.001490679 -0.001611228 1000
lala 19 0.3 1 second 11 1 253 6 4.98 0.339998006820679 1 1 1 1 -0.001848678 -0.001599056 -0.001504675 -0.001442671 -0.001533334 1000 -0.001848678 -0.001599056 -0.001504675 -0.001442671 -0.001533334 1000 -0.001246916 -0.001620241 -0.002005499 -0.001680637 -0.001530258 1000 -0.001246916 -0.001620241 -0.002005499 -0.001680637 -0.001530258 1000
lala 20 0.0375 0 first 12 1 254 4 3.9525 0.819997549057007 0 0 -1 1 -0.001428741 -0.001327794 -0.00111869 1000 1000 1000 -0.001428741 -0.001327794 -0.00111869 1000 1000 1000 -0.001169809 -0.001053175 -0.0009028727 -0.00103622 -0.0008257755 1000 -0.001169809 -0.001053175 -0.0009028727 -0.00103622 -0.0008257755 1000
lala 20 0.075 1 second 5 1 255 6 7.980001 0.39999794960022 -1 1 1 1 -0.00230218 -0.002236424 -0.002060885 -0.001949482 -0.002211542 1000 -0.00230218 -0.002236424 -0.002060885 -0.001949482 -0.002211542 1000 -0.002248528 -0.002038361 -0.002433853 -0.002839609 -0.003142135 1000 -0.002248528 -0.002038361 -0.002433853 -0.002839609 -0.003142135 1000
lala 12 0.15 1 second 17 1 256 6 7.530001 0.179998159408569 0 1 1 1 -0.001721754 -0.001867033 -0.002027402 -0.002069425 -0.001529307 1000 -0.001721754 -0.001867033 -0.002027402 -0.002069425 -0.001529307 1000 -0.002498254 -0.002585578 -0.002310119 -0.002700091 -0.0029829 1000 -0.002498254 -0.002585578 -0.002310119 -0.002700091 -0.0029829 1000
lala 21 0.075 1 second 5 1 257 6 7.905002 0.199998140335083 -1 1 1 0 -0.003111254 -0.003327596 -0.003092748 -0.002992996 -0.00323075 1000 -0.003111254 -0.003327596 -0.003092748 -0.002992996 -0.00323075 1000 -0.00326557 -0.003855524 -0.004109901 -0.00454709 -0.004399762 1000 -0.00326557 -0.003855524 -0.004109901 -0.00454709 -0.004399762 1000
lala 12 0.3 1 second 9 1 258 5 4.250001 0.01999831199646 1 1 1 0 -0.00541538 -0.005189413 -0.005147109 -0.005136362 -0.005194587 1000 -0.00541538 -0.005189413 -0.005147109 -0.005136362 -0.005194587 1000 -0.009073492 -0.008949147 -0.008926505 -0.008885028 -0.008508837 1000 -0.009073492 -0.008949147 -0.008926505 -0.008885028 -0.008508837 1000
lala 21 0.01875 1 second 12 1 259 4 3.97125 1.05999732017517 0 0 1 1 -0.01015581 -0.01035907 -0.01022045 -0.01006557 -0.01004667 1000 -0.01015581 -0.01035907 -0.01022045 -0.01006557 -0.01004667 1000 -0.01033126 -0.01000783 -0.009683742 -0.009257961 -0.009251585 1000 -0.01033126 -0.01000783 -0.009683742 -0.009257961 -0.009251585 1000
lala 20 0.3 0 first 11 1 260 6 4.68 0.39999794960022 1 1 -1 1 -0.01075 -0.01090978 -0.01096375 1000 1000 1000 -0.01075 -0.01090978 -0.01096375 1000 1000 1000 -0.01085186 -0.01041393 -0.01042414 -0.01048768 -0.01055286 1000 -0.01085186 -0.01041393 -0.01042414 -0.01048768 -0.01055286 1000
lala 22 0.075 1 second 5 1 261 6 7.830002 0.339998006820679 -1 1 1 1 -0.01093446 -0.01072249 -0.01051817 -0.01030815 -0.01046261 1000 -0.01093446 -0.01072249 -0.01051817 -0.01030815 -0.01046261 1000 -0.01107431 -0.01138627 -0.01113322 -0.01091246 -0.01118268 1000 -0.01107431 -0.01138627 -0.01113322 -0.01091246 -0.01118268 1000
lala 20 0.009375 1 second 2 1 262 5 6.046875 0.379997968673706 -1 0 1 1 -0.01192975 -0.01198745 -0.01202077 -0.01188265 -0.0119831 1000 -0.01192975 -0.01198745 -0.01202077 -0.01188265 -0.0119831 1000 -0.01238962 -0.01247398 -0.01212753 -0.01221387 -0.0121359 1000 -0.01238962 -0.01247398 -0.01212753 -0.01221387 -0.0121359 1000
lala 23 0.15 0 first 5 1 263 6 7.680002 1.17999720573425 -1 1 -1 0 -0.01337553 -0.01353037 -0.01319646 1000 1000 1000 -0.01337553 -0.01353037 -0.01319646 1000 1000 1000 4.297945E-05 0.005674707 0.006283784 0.008428198 0.007749264 1000 4.297945E-05 0.005674707 0.006283784 0.008428198 0.007749264 1000
lala 15 0.15 1 second 16 1 264 6 5.31 3.21999549865723 0 0 1 1 0.006235331 0.006662771 0.006749865 0.006011839 0.005256103 1000 0.006235331 0.006662771 0.006749865 0.006011839 0.005256103 1000 -0.005656134 -0.008148927 -0.01017158 -0.0157611 -0.02354213 1000 -0.005656134 -0.008148927 -0.01017158 -0.0157611 -0.02354213 1000
lala 16 0.3 0 second 8 1 265 5 3.15 0.39999794960022 1 0 -1 1 -0.01099067 -0.01102134 -0.01061672 -0.01027124 -0.01018404 1000 -0.01099067 -0.01102134 -0.01061672 -0.01027124 -0.01018404 1000 -0.009721315 -0.009935273 -0.009609748 -0.009420233 -0.009528631 1000 -0.009721315 -0.009935273 -0.009609748 -0.009420233 -0.009528631 1000
lala 13 0.15 1 first 13 1 266 4 4.72 0.61999773979187 0 1 1 1 -0.009785653 -0.009943598 -0.00993509 1000 1000 1000 -0.009785653 -0.009943598 -0.00993509 1000 1000 1000 -0.01039464 -0.0108539 -0.01116908 -0.01104872 -0.01062303 1000 -0.01039464 -0.0108539 -0.01116908 -0.01104872 -0.01062303 1000
lala 17 0.6 0 first 8 1 267 5 3.75 0.39999794960022 1 0 -1 1 -0.01145968 -0.01151485 -0.01135808 1000 1000 1000 -0.01145968 -0.01151485 -0.01135808 1000 1000 1000 -0.01026592 -0.009999976 -0.01002607 -0.01009236 -0.01002911 1000 -0.01026592 -0.009999976 -0.01002607 -0.01009236 -0.01002911 1000
lala 18 1.2 1 first 8 1 268 5 4.95 0.299998044967651 1 0 1 0 -0.009582994 -0.009604416 -0.00969425 1000 1000 1000 -0.009582994 -0.009604416 -0.00969425 1000 1000 1000 -0.01015702 -0.01018774 -0.01019773 -0.0100411 -0.0101688 1000 -0.01015702 -0.01018774 -0.01019773 -0.0100411 -0.0101688 1000
lala 13 0.15 0 first 9 1 269 5 4.100001 0.439997911453247 1 1 -1 1 -0.009748602 -0.009810366 -0.009715998 1000 1000 1000 -0.009748602 -0.009810366 -0.009715998 1000 1000 1000 -0.009905029 -0.009779345 -0.009816445 -0.009914872 -0.009943488 1000 -0.009905029 -0.009779345 -0.009816445 -0.009914872 -0.009943488 1000
lala 21 0.009375 1 first 2 1 270 5 6.0375 1.25999712944031 -1 0 1 1 -0.009145574 -0.009152727 -0.009246734 1000 1000 1000 -0.009145574 -0.009152727 -0.009246734 1000 1000 1000 -0.00922036 -0.009421676 -0.009555657 -0.009493686 -0.009381301 1000 -0.00922036 -0.009421676 -0.009555657 -0.009493686 -0.009381301 1000
lala 8 1.2 0 first 0 1 271 4 3.84 0.319998025894165 -1 0 -1 0 -0.009790083 -0.009643731 -0.009726308 1000 1000 1000 -0.009790083 -0.009643731 -0.009726308 1000 1000 1000 -0.0089303 -0.008970353 -0.009049543 -0.008891508 -0.008771351 1000 -0.0089303 -0.008970353 -0.009049543 -0.008891508 -0.008771351 1000
lala 19 0.6 1 first 8 1 272 5 4.35 0.459997892379761 1 0 1 1 -0.009060056 -0.009205588 -0.009271836 1000 1000 1000 -0.009060056 -0.009205588 -0.009271836 1000 1000 1000 -0.009648757 -0.01017926 -0.009545824 -0.009331354 -0.009320437 1000 -0.009648757 -0.01017926 -0.009545824 -0.009331354 -0.009320437 1000
lala 11 2.4 0 first 15 1 273 5 1.65 0.499997854232788 0 1 -1 1 -0.009314176 -0.009210275 -0.009072401 1000 1000 1000 -0.009314176 -0.009210275 -0.009072401 1000 1000 1000 -0.008570609 -0.008711181 -0.008622327 -0.008461944 -0.008658795 1000 -0.008570609 -0.008711181 -0.008622327 -0.008461944 -0.008658795 1000
lala 13 0.15 0 first 6 1 274 4 3.24 1.19999718666077 1 0 -1 0 -0.008978834 -0.009286123 -0.009412212 1000 1000 1000 -0.008978834 -0.009286123 -0.009412212 1000 1000 1000 -0.008575665 -0.008848883 -0.008785063 -0.00855073 -0.008549871 1000 -0.008575665 -0.008848883 -0.008785063 -0.00855073 -0.008549871 1000
lala 14 0.075 0 second 7 1 275 4 5.245 0.359997987747192 1 1 -1 0 -0.007797859 -0.007587819 -0.007671982 -0.007609032 -0.007523244 1000 -0.007797859 -0.007587819 -0.007671982 -0.007609032 -0.007523244 1000 -0.007473707 -0.007333457 -0.007390233 -0.007759373 -0.007747025 1000 -0.007473707 -0.007333457 -0.007390233 -0.007759373 -0.007747025 1000
lala 15 0.075 1 first 7 1 276 4 5.32 0.299998044967651 1 1 1 1 -0.008218339 -0.008275516 -0.008301808 1000 1000 1000 -0.008218339 -0.008275516 -0.008301808 1000 1000 1000 -0.008048772 -0.007446151 -0.007391794 -0.007747427 -0.007760271 1000 -0.008048772 -0.007446151 -0.007391794 -0.007747427 -0.007760271 1000
lala 20 0.6 1 first 8 1 277 5 3.75 0.719997644424438 1 0 1 0 -0.008546173 -0.008792519 -0.008527937 1000 1000 1000 -0.008546173 -0.008792519 -0.008527937 1000 1000 1000 -0.00816171 -0.008036468 -0.008112302 -0.00755173 -0.007779861 1000 -0.00816171 -0.008036468 -0.008112302 -0.00755173 -0.007779861 1000
lala 13 0.15 1 second 17 1 278 6 7.380001 0.319998025894165 0 1 1 1 -0.008350918 -0.00782396 -0.007513104 -0.007367637 -0.007669027 1000 -0.008350918 -0.00782396 -0.007513104 -0.007367637 -0.007669027 1000 -0.006882572 -0.007000919 -0.007423446 -0.007580081 -0.007216316 1000 -0.006882572 -0.007000919 -0.007423446 -0.007580081 -0.007216316 1000
lala 21 0.6 0 second 8 1 279 5 3.15 0.299998044967651 1 0 -1 0 -0.007498624 -0.007521685 -0.007548159 -0.007662529 -0.007534835 1000 -0.007498624 -0.007521685 -0.007548159 -0.007662529 -0.007534835 1000 -0.006771777 -0.006521002 -0.006522835 -0.006280045 -0.006676666 1000 -0.006771777 -0.006521002 -0.006522835 -0.006280045 -0.006676666 1000
lala 16 0.6 1 second 3 1 280 5 5.9 0.759997606277466 -1 1 1 0 -0.007818502 -0.007672607 -0.007517296 -0.007518775 -0.007553511 1000 -0.007818502 -0.007672607 -0.007517296 -0.007518775 -0.007553511 1000 -0.007953471 -0.007644898 -0.00771759 -0.007136637 -0.007184891 1000 -0.007953471 -0.007644898 -0.00771759 -0.007136637 -0.007184891 1000
lala 22 0.009375 1 second 12 1 281 4 3.961875 1.51999688148499 0 0 1 1 -0.00810564 -0.00771205 -0.007831752 -0.007523765 -0.007306263 1000 -0.00810564 -0.00771205 -0.007831752 -0.007523765 -0.007306263 1000 -0.008148237 -0.00827569 -0.008708224 -0.008797646 -0.009575663 1000 -0.008148237 -0.00827569 -0.008708224 -0.008797646 -0.009575663 1000
lala 17 0.3 0 first 3 1 282 5 5.6 0.719997644424438 -1 1 -1 0 -0.01353715 -0.01338478 -0.01363314 1000 1000 1000 -0.01353715 -0.01338478 -0.01363314 1000 1000 1000 -0.01389652 -0.01387006 -0.01427964 -0.01469901 -0.01445345 1000 -0.01389652 -0.01387006 -0.01427964 -0.01469901 -0.01445345 1000
lala 18 0.6 0 second 1 1 283 4 5.32 0.599997758865356 -1 1 -1 0 -0.01474364 -0.01427332 -0.01416175 -0.01429411 -0.01418259 1000 -0.01474364 -0.01427332 -0.01416175 -0.01429411 -0.01418259 1000 -0.01472856 -0.01474639 -0.0146834 -0.01443167 -0.0145832 1000 -0.01472856 -0.01474639 -0.0146834 -0.01443167 -0.0145832 1000
lala 14 0.15 1 second 13 1 284 4 4.57 0.459997892379761 0 1 1 0 -0.01411239 -0.01398945 -0.01407008 -0.01414766 -0.01453245 1000 -0.01411239 -0.01398945 -0.01407008 -0.01414766 -0.01453245 1000 -0.0148104 -0.01489163 -0.01477608 -0.01458514 -0.01461863 1000 -0.0148104 -0.01489163 -0.01477608 -0.01458514 -0.01461863 1000
lala 16 0.075 1 second 16 1 285 6 5.235 0.0999982357025146 0 0 1 1 -0.01433924 -0.01452489 -0.01464338 -0.01466385 -0.0144172 1000 -0.01433924 -0.01452489 -0.01464338 -0.01466385 -0.0144172 1000 -0.0154453 -0.01516654 -0.01499462 -0.01522536 -0.01516206 1000 -0.0154453 -0.01516654 -0.01499462 -0.01522536 -0.01516206 1000
lala 16 0.0375 1 first 7 1 286 4 5.2825 0.319998025894165 1 1 1 0 -0.01432332 -0.01428604 -0.01450105 1000 1000 1000 -0.01432332 -0.01428604 -0.01450105 1000 1000 1000 -0.0140822 -0.01414181 -0.0143828 -0.01430121 -0.01426157 1000 -0.0140822 -0.01414181 -0.0143828 -0.01430121 -0.01426157 1000
lala 14 0.15 0 first 17 1 287 6 7.23 0.819997549057007 0 1 -1 0 -0.01458238 -0.01446545 -0.01455938 1000 1000 1000 -0.01458238 -0.01446545 -0.01455938 1000 1000 1000 -0.01474193 -0.01465519 -0.01435431 -0.01479278 -0.01495232 1000 -0.01474193 -0.01465519 -0.01435431 -0.01479278 -0.01495232 1000
lala 17 0.0375 1 first 7 1 288 4 5.245 0.519997835159302 1 1 1 1 -0.0149173 -0.01470289 -0.0142012 1000 1000 1000 -0.0149173 -0.01470289 -0.0142012 1000 1000 1000 -0.01366338 -0.01390437 -0.01441947 -0.01401108 -0.01374444 1000 -0.01366338 -0.01390437 -0.01441947 -0.01401108 -0.01374444 1000
lala 18 0.15 0 first 3 1 289 5 5.75 0.219998121261597 -1 1 -1 0 -0.01420598 -0.0143775 -0.01399226 1000 1000 1000 -0.01420598 -0.0143775 -0.01399226 1000 1000 1000 -0.01498522 -0.01510561 -0.0151087 -0.01485984 -0.01465337 1000 -0.01498522 -0.01510561 -0.0151087 -0.01485984 -0.01465337 1000
lala 12 1.2 0 first 15 1 290 5 2.85 0.01999831199646 0 1 -1 1 -0.0145462 -0.01478314 -0.01469362 1000 1000 1000 -0.0145462 -0.01478314 -0.01469362 1000 1000 1000 -0.01550241 -0.01539541 -0.01475952 -0.01489074 -0.01517059 1000 -0.01550241 -0.01539541 -0.01475952 -0.01489074 -0.01517059 1000
lala 14 0.15 0 second 6 1 291 4 3.39 0.579997777938843 1 0 -1 1 -0.01505613 -0.01449875 -0.01459426 -0.01438236 -0.01448333 1000 -0.01505613 -0.01449875 -0.01459426 -0.01438236 -0.01448333 1000 -0.01521662 -0.01525061 -0.01536421 -0.0156197 -0.0153363 1000 -0.01521662 -0.01525061 -0.01536421 -0.0156197 -0.0153363 1000
lala 18 0.0375 0 first 7 1 292 4 5.2075 1.13999724388123 1 1 -1 1 -0.01572326 -0.01575367 -0.0158972 1000 1000 1000 -0.01572326 -0.01575367 -0.0158972 1000 1000 1000 -0.01600373 -0.01617621 -0.01613203 -0.01652132 -0.01626302 1000 -0.01600373 -0.01617621 -0.01613203 -0.01652132 -0.01626302 1000
lala 24 0.075 1 second 5 1 293 6 7.755002 0.23999810218811 -1 1 1 0 -0.01658978 -0.01673017 -0.01643935 -0.0162505 -0.01641457 1000 -0.01658978 -0.01673017 -0.01643935 -0.0162505 -0.01641457 1000 -0.01738141 -0.01753963 -0.01748102 -0.01740879 -0.01721115 1000 -0.01738141 -0.01753963 -0.01748102 -0.01740879 -0.01721115 1000
lala 22 0.009375 0 first 2 1 294 5 6.028125 0.179998159408569 -1 0 -1 0 -0.01734034 -0.01711048 -0.01685956 1000 1000 1000 -0.01734034 -0.01711048 -0.01685956 1000 1000 1000 -0.01675196 -0.01603734 -0.01668769 -0.01700912 -0.01770783 1000 -0.01675196 -0.01603734 -0.01668769 -0.01700912 -0.01770783 1000
lala 15 0.3 0 first 4 1 295 6 7.86 0.599997758865356 -1 0 -1 1 -0.0183851 -0.01865897 -0.01895458 1000 1000 1000 -0.0183851 -0.01865897 -0.01895458 1000 1000 1000 -0.01951996 -0.0194571 -0.01963713 -0.01952275 -0.01953894 1000 -0.01951996 -0.0194571 -0.01963713 -0.01952275 -0.01953894 1000
lala 25 0.0375 1 second 5 1 296 6 7.717502 0.319998025894165 -1 1 1 0 -0.02045344 -0.02058677 -0.02073691 -0.02042712 -0.02061993 1000 -0.02045344 -0.02058677 -0.02073691 -0.02042712 -0.02061993 1000 -0.0210086 -0.02081644 -0.02102313 -0.02105515 -0.0210058 1000 -0.0210086 -0.02081644 -0.02102313 -0.02105515 -0.0210058 1000
lala 14 0.075 0 second 9 1 297 5 4.175001 0.579997777938843 1 1 -1 0 -0.02121072 -0.0212479 -0.02091039 -0.02108906 -0.02100665 1000 -0.02121072 -0.0212479 -0.02091039 -0.02108906 -0.02100665 1000 -0.02062815 -0.02075996 -0.02126473 -0.02113487 -0.02118037 1000 -0.02062815 -0.02075996 -0.02126473 -0.02113487 -0.02118037 1000
lala 15 0.3 1 second 6 1 298 4 3.69 0.419997930526733 1 0 1 1 -0.02167888 -0.02162176 -0.0217117 -0.0218676 -0.02174422 1000 -0.02167888 -0.02162176 -0.0217117 -0.0218676 -0.02174422 1000 -0.02181704 -0.02209154 -0.02195289 -0.02204192 -0.02247906 1000 -0.02181704 -0.02209154 -0.02195289 -0.02204192 -0.02247906 1000
lala 19 0.01875 1 first 7 1 299 4 5.22625 0.299998044967651 1 1 1 1 -0.0221601 -0.0219116 -0.02174287 1000 1000 1000 -0.0221601 -0.0219116 -0.02174287 1000 1000 1000 -0.01734201 -0.01757337 -0.01763558 -0.01763799 -0.01747463 1000 -0.01734201 -0.01757337 -0.01763558 -0.01763799 -0.01747463 1000
lala 23 0.009375 0 first 12 1 300 4 3.9525 0.01999831199646 0 0 -1 0 -0.01136863 -0.0001724348 0.005004295 0.003715104 -0.0006898005 -0.003677061 -0.01136863 -0.0001724348 0.005004295 0.003715104 -0.0006898005 -0.003677061 -0.003454101 -0.003458042 -0.003433204 -0.003069684 -0.002651194 1000 -0.003454101 -0.003458042 -0.003433204 -0.003069684 -0.002651194 1000
lala 9 1.2 1 second 0 1 301 4 5.04 0.0999982357025146 -1 0 1 1 -0.003200766 -0.003209011 -0.003148939 -0.002576077 -0.002639486 1000 -0.003200766 -0.003209011 -0.003148939 -0.002576077 -0.002639486 1000 -0.003100246 -0.003417906 -0.003506341 -0.003314232 -0.003311211 1000 -0.003100246 -0.003417906 -0.003506341 -0.003314232 -0.003311211 1000
lala 26 0.0375 1 first 5 1 302 6 7.680002 0.139998197555542 -1 1 1 1 -0.003825385 -0.004047464 -0.004048239 1000 1000 1000 -0.003825385 -0.004047464 -0.004048239 1000 1000 1000 -0.005453634 -0.005604132 -0.005576729 -0.00550624 -0.005442125 1000 -0.005453634 -0.005604132 -0.005576729 -0.00550624 -0.005442125 1000
lala 10 0.6 0 second 0 1 303 4 4.44 0.279998064041138 -1 0 -1 1 -0.005764938 -0.005760463 -0.005769297 -0.005985753 -0.005821736 1000 -0.005764938 -0.005760463 -0.005769297 -0.005985753 -0.005821736 1000 -0.005743315 -0.005946935 -0.006116268 -0.005927195 -0.005938857 1000 -0.005743315 -0.005946935 -0.006116268 -0.005927195 -0.005938857 1000
lala 20 0.009375 1 first 7 1 304 4 5.216875 0.479997873306274 1 1 1 0 -0.006854341 -0.006863887 -0.007069347 1000 1000 1000 -0.006854341 -0.006863887 -0.007069347 1000 1000 1000 -0.006755121 -0.006936289 -0.007043157 -0.006919444 -0.006893432 1000 -0.006755121 -0.006936289 -0.007043157 -0.006919444 -0.006893432 1000
lala 24 0.0046875 1 second 12 1 305 4 3.957188 1.07999730110168 0 0 1 1 -0.007909198 -0.007915429 -0.007984948 -0.008012115 -0.007846842 1000 -0.007909198 -0.007915429 -0.007984948 -0.008012115 -0.007846842 1000 -0.008115541 -0.008168644 -0.008107108 -0.007978007 -0.008237566 1000 -0.008115541 -0.008168644 -0.008107108 -0.007978007 -0.008237566 1000
lala 23 0.0046875 1 second 2 1 306 5 6.032812 0.199998140335083 -1 0 1 1 -0.009216331 -0.009117509 -0.008886589 -0.008775966 -0.008932287 1000 -0.009216331 -0.009117509 -0.008886589 -0.008775966 -0.008932287 1000 -0.009621743 -0.009834347 -0.009732598 -0.00981839 -0.01015892 1000 -0.009621743 -0.009834347 -0.009732598 -0.00981839 -0.01015892 1000
lala 15 0.075 0 second 9 1 307 5 4.25 1.31999707221985 1 1 -1 0 -0.01068321 -0.01064657 -0.0108325 -0.01082336 -0.01061354 1000 -0.01068321 -0.01064657 -0.0108325 -0.01082336 -0.01061354 1000 -0.01448399 -0.01482909 -0.01487042 -0.01487814 -0.01485837 1000 -0.01448399 -0.01482909 -0.01487042 -0.01487814 -0.01485837 1000
lala 15 0.075 1 first 17 1 308 6 7.305 0.699997663497925 0 1 1 1 -0.01516407 -0.01503709 -0.01480996 1000 1000 1000 -0.01516407 -0.01503709 -0.01480996 1000 1000 1000 -0.0142322 -0.01434384 -0.01440819 -0.01438593 -0.01449036 1000 -0.0142322 -0.01434384 -0.01440819 -0.01438593 -0.01449036 1000
lala 17 0.075 1 second 16 1 309 6 5.16 0.159998178482056 0 0 1 1 -0.01486349 -0.01475725 -0.01486604 -0.0149053 -0.01490825 1000 -0.01486349 -0.01475725 -0.01486604 -0.0149053 -0.01490825 1000 -0.01470024 -0.01467668 -0.01485504 -0.01497639 -0.01489857 1000 -0.01470024 -0.01467668 -0.01485504 -0.01497639 -0.01489857 1000
lala 16 0.075 0 second 9 1 310 5 4.325 0.779997587203979 1 1 -1 1 -0.01551434 -0.01596093 -0.01579272 -0.01545208 -0.01525261 1000 -0.01551434 -0.01596093 -0.01579272 -0.01545208 -0.01525261 1000 -0.01502298 -0.0147923 -0.0147328 -0.01514198 -0.01537324 1000 -0.01502298 -0.0147923 -0.0147328 -0.01514198 -0.01537324 1000
lala 10 1.2 1 second 10 1 311 6 5.16 0.0999982357025146 1 0 1 0 -0.01603248 -0.01621016 -0.01589128 -0.01553252 -0.01560609 1000 -0.01603248 -0.01621016 -0.01589128 -0.01553252 -0.01560609 1000 -0.01540274 -0.01547994 -0.01581995 -0.01581482 -0.01580802 1000 -0.01540274 -0.01547994 -0.01581995 -0.01581482 -0.01580802 1000
lala 11 2.4 0 first 10 1 312 6 2.76 0.139998197555542 1 0 -1 0 -0.01644026 -0.01644488 -0.0167029 1000 1000 1000 -0.01644026 -0.01644488 -0.0167029 1000 1000 1000 -0.01583723 -0.01571191 -0.01542394 -0.01553467 -0.01564774 1000 -0.01583723 -0.01571191 -0.01542394 -0.01553467 -0.01564774 1000
lala 21 0.15 1 first 11 1 313 6 4.83 0.519997835159302 1 1 1 1 -0.01671454 -0.01684403 -0.01679239 1000 1000 1000 -0.01671454 -0.01684403 -0.01679239 1000 1000 1000 -0.0165396 -0.01628942 -0.01598312 -0.01573939 -0.0160886 1000 -0.0165396 -0.01628942 -0.01598312 -0.01573939 -0.0160886 1000
lala 12 1.2 1 first 10 1 314 6 3.96 0.419997930526733 1 0 1 0 -0.01758373 -0.01722986 -0.01734288 1000 1000 1000 -0.01758373 -0.01722986 -0.01734288 1000 1000 1000 -0.01646808 -0.0168743 -0.01678006 -0.01657946 -0.01667191 1000 -0.01646808 -0.0168743 -0.01678006 -0.01657946 -0.01667191 1000
lala 25 0.00234375 1 first 12 1 315 4 3.954844 2.2999963760376 0 0 1 1 -0.01729691 -0.01739533 -0.01752914 1000 1000 1000 -0.01729691 -0.01739533 -0.01752914 1000 1000 1000 -0.01644831 -0.01652597 -0.01663654 -0.01707842 -0.0168294 1000 -0.01644831 -0.01652597 -0.01663654 -0.01707842 -0.0168294 1000
lala 19 0.6 1 first 1 1 316 4 5.92 0.159998178482056 -1 1 1 1 -0.01866812 -0.018458 -0.01816374 1000 1000 1000 -0.01866812 -0.018458 -0.01816374 1000 1000 1000 -0.01866116 -0.01849895 -0.01851018 -0.01822729 -0.0186513 1000 -0.01866116 -0.01849895 -0.01851018 -0.01822729 -0.0186513 1000
