subject PestNr Step_Size_OnTrial Pest_Faster Pest_Interval Condition block trial velH velH_Pest Reaction_Time velH_Subject Start_Above Response_MotionEstimation RightOrLeftxRotations_first0 xRotations_first1 xRotations_first2 xRotations_first3 xRotations_first4 xRotations_first5 yRotations_first0 yRotations_first1 yRotations_first2 yRotations_first3 yRotations_first4 yRotations_first5 xRotations_second0 xRotations_second1 xRotations_second2 xRotations_second3 xRotations_second4 xRotations_second5 yRotations_second0 yRotations_second1 yRotations_second2 yRotations_second3 yRotations_second4 yRotations_second5
lala 1 1.2 1 second 0 1 1 3 3.99 3.81999492645264 0 1 1 1 0.005961629 0.002721509 -0.004510986 -0.00330282 9.013902E-05 1000 -0.001001485 0.001368412 0.004651624 0.006225945 0.005608612 1000 -0.001256511 0.0003941369 0.001589583 0.001514582 0.001201487 1000 0.0188251 0.01442488 0.001589583 0.01338667 0.01331903 1000
lala 2 1.2 0 second 0 1 2 3 2.79 2.69999599456787 0 1 -1 1 -0.005720346 -0.005315788 -0.005672403 -0.005921076 -0.006231856 1000 0.01230078 0.01196954 0.01264473 0.01320092 0.0131958 1000 -0.006737481 -0.007102766 -0.007210163 -0.007537185 -0.007843249 1000 0.01274537 0.01278903 -0.007210163 0.01295865 0.01278962 1000
lala 3 1.2 1 first 0 1 3 3 3.99 2.57999610900879 0 1 1 0 -0.009814939 -0.01582173 -0.02093118 -0.02144562 -0.02407732 1000 0.01433945 0.0156488 0.01904439 0.01961785 0.01727634 1000 -0.0204882 -0.01876375 -0.02019689 -0.02024515 -0.01914164 1000 0.01265918 0.009327277 -0.02019689 0.009352003 0.009067608 1000
lala 4 1.2 0 second 0 1 4 3 2.79 2.7399959564209 0 1 -1 1 -0.02019785 -0.02014733 -0.01955251 -0.01945221 -0.01975542 1000 0.00932023 0.00902198 0.009018107 0.009453559 0.009209356 1000 -0.02063591 -0.02082176 -0.02056831 -0.02075589 -0.02104746 1000 0.009081852 0.009340892 -0.02056831 0.009952271 0.01050048 1000
lala 5 0.6 1 second 0 1 5 3 3.39 0.519997835159302 0 1 1 1 -0.006567609 -0.006873415 -0.006876389 -0.006694485 -0.006866788 1000 -0.001717834 -0.002257019 -0.002573961 -0.002918812 -0.002529019 1000 -0.007216519 -0.007189017 -0.007465661 -0.007770204 -0.008047662 1000 -0.003678634 -0.00383092 -0.007465661 -0.003029925 -0.003276102 1000
lala 6 0.3 1 second 0 1 6 3 3.09 0.659997701644897 0 1 1 1 -0.01136325 -0.01114292 -0.01124531 -0.01154043 -0.01168462 1000 -0.003971613 -0.004174627 -0.004151868 -0.003974452 -0.004409751 1000 -0.01252654 -0.01285698 -0.01277975 -0.01315708 -0.01309569 1000 -0.004393917 -0.004102043 -0.01277975 -0.003494538 -0.003532224 1000
lala 7 0.3 0 second 0 1 7 3 2.79 0.079998254776001 0 1 -1 1 -0.01356497 -0.01370708 -0.01358965 -0.01391839 -0.01383203 1000 -0.002492575 -0.002226745 -0.002491751 -0.002220414 -0.002518676 1000 -0.01381195 -0.01389059 -0.01397304 -0.01409478 -0.01395799 1000 -0.002920314 -0.002804652 -0.01397304 -0.00220415 -0.001873118 1000
lala 8 0.15 1 first 0 1 8 3 2.940001 0.61999773979187 0 1 1 0 -0.01443092 -0.01467118 -0.01467452 -0.01445853 -0.01451986 1000 -0.002010929 -0.001921263 -0.0018764 -0.002120788 -0.002230094 1000 -0.01422069 -0.01417159 -0.01434445 -0.01434182 -0.01437705 1000 -0.002493998 -0.003011883 -0.01434445 -0.002713878 -0.002802527 1000
lala 9 0.075 0 first 0 1 9 3 2.865 0.279998064041138 0 1 -1 1 -0.01555613 -0.01552432 -0.01570414 -0.01600486 -0.01585275 1000 -0.00315983 -0.003283795 -0.003139974 -0.0030464 -0.003370457 1000 -0.01614438 -0.01592365 -0.01583624 -0.0161673 -0.01644517 1000 -0.00341218 -0.00341067 -0.01583624 -0.003550739 -0.003741767 1000
lala 10 0.0375 0 first 0 1 10 3 2.9025 1.11999726295471 0 1 -1 0 -0.00151201 -0.00233241 -0.003057075 -0.003184025 -0.003450378 1000 -0.003887228 -0.003436151 -0.002968689 -0.003645967 -0.003296072 1000 -0.005449354 -0.005916222 -0.005930979 -0.005902454 -0.005736372 1000 -0.004099258 -0.004486025 -0.005930979 -0.005208284 -0.005417658 1000
lala 11 0.0375 0 first 0 1 11 3 2.94 0.459997892379761 0 1 -1 0 -0.01172385 -0.01149427 -0.01170991 -0.01152833 -0.0115251 1000 -0.005736574 -0.006250052 -0.006303226 -0.005929721 -0.006313849 1000 -0.01126743 -0.01104044 -0.0108973 -0.01103982 -0.01095777 1000 -0.006049428 -0.005579135 -0.0108973 -0.005466739 -0.005689471 1000
lala 12 0.0375 0 first 0 1 12 3 2.9775 0.419997930526733 0 1 -1 0 -0.01209655 -0.01187205 -0.0119103 -0.01221177 -0.01210733 1000 -0.005100718 -0.005509924 -0.00552002 -0.005670166 -0.005916087 1000 -0.01185259 -0.01217768 -0.01207107 -0.01223414 -0.01251701 1000 -0.007034801 -0.006858747 -0.01207107 -0.007055871 -0.006942456 1000
lala 13 0.075 0 second 0 1 13 3 3.0525 3.85999488830566 0 1 -1 0 -0.0127328 -0.0124581 -0.01263814 -0.01298667 -0.01279675 1000 -0.005063644 -0.005514894 -0.005316442 -0.005390257 -0.005595472 1000 -0.0130935 -0.01336101 -0.01384696 -0.01378641 -0.01335415 1000 -0.00525065 -0.00554803 -0.01384696 -0.005333115 -0.005520523 1000
lala 14 0.15 1 second 0 1 14 3 3.2025 0.0399982929229736 0 1 1 0 -0.01266816 -0.01301778 -0.01316896 -0.01328584 -0.01347742 1000 -0.01012236 -0.01017624 -0.009950593 -0.01007404 -0.009816673 1000 -0.01381946 -0.01419409 -0.01411152 -0.01392747 -0.01393865 1000 -0.009966477 -0.009859474 -0.01411152 -0.01033979 -0.01012308 1000
lala 15 0.075 1 second 0 1 15 3 3.1275 0.499997854232788 0 1 1 1 -0.003720357 -0.004312918 -0.004021365 -0.00401185 -0.003917832 1000 -0.0005460788 -0.0001050141 4.648873E-05 0.0004314356 -0.0001436197 1000 -0.005166968 -0.005372219 -0.005631805 -0.005562239 -0.005664902 1000 -0.0002588569 -0.0005288657 -0.005631805 -5.465329E-05 0.0002922645 1000
lala 16 0.075 1 first 0 1 16 3 3.0525 1.05999732017517 0 1 1 1 -0.008747753 -0.008844194 -0.009240428 -0.009521648 -0.009448667 1000 4.61849E-06 -0.0001525992 -0.0001629479 -0.0002502617 -0.0004334454 1000 -0.01032841 -0.01050483 -0.01010066 -0.01020825 -0.009050282 1000 -0.001380466 -0.002997671 -0.01010066 -0.008208296 -0.004867819 1000
lala 17 0.075 0 first 0 1 17 3 2.9775 0.519997835159302 0 1 -1 1 -0.01284953 -0.01274503 -0.01302512 -0.01324743 -0.01300632 1000 -0.002867202 -0.003298837 -0.002888788 -0.002893337 -0.002953577 1000 -0.01322993 -0.01315728 -0.01312604 -0.01333812 -0.01337102 1000 -0.002987042 -0.003246207 -0.01312604 -0.003247539 -0.003146147 1000
lala 18 0.0375 1 second 0 1 18 3 3.015 0.579997777938843 0 1 1 0 -0.0141856 -0.01404228 -0.01375333 -0.01352333 -0.01367902 1000 -0.002791741 -0.003134802 -0.002759472 -0.002902743 -0.003144546 1000 -0.01392003 -0.01390187 -0.01429011 -0.01426143 -0.01392281 1000 -0.003221013 -0.003194399 -0.01429011 -0.003636682 -0.003995186 1000
lala 19 0.01875 1 first 0 1 19 3 2.99625 0.579997777938843 0 1 1 1 -0.01554811 -0.0151252 -0.01532992 -0.01553606 -0.01548386 1000 -0.005903217 -0.006074361 -0.006128672 -0.005889351 -0.006136643 1000 -0.01499574 -0.01452777 -0.01458409 -0.01497744 -0.01489497 1000 -0.006368848 -0.006419074 -0.01458409 -0.006053043 -0.006205471 1000
lala 20 0.01875 1 second 0 1 20 3 2.9775 0.319998025894165 0 1 1 1 -0.01734805 -0.0173864 -0.01760498 -0.01753969 -0.01695799 1000 -0.006113942 -0.005966144 -0.006188678 -0.005832247 -0.006011053 1000 -0.01844179 -0.01813403 -0.01824332 -0.01854721 -0.01840032 1000 -0.005880133 -0.006072137 -0.01824332 -0.006217374 -0.006680882 1000
lala 21 0.01875 0 first 0 1 21 3 2.95875 0.419997930526733 0 1 -1 1 -0.01933288 -0.01930073 -0.01881283 -0.01869796 -0.01901831 1000 -0.004208051 -0.004109068 -0.003941794 -0.004072138 -0.003806072 1000 -0.01898025 -0.019533 -0.01976415 -0.01994802 -0.01943479 1000 -0.004597508 -0.004399572 -0.01976415 -0.00440694 -0.004672534 1000
lala 22 0.009375 1 first 0 1 22 3 2.968125 0.339998006820679 0 1 1 1 -0.01994323 -0.02016293 -0.02014524 -0.01987069 -0.01978255 1000 -0.004454024 -0.004354986 -0.004456682 -0.004334387 -0.004439789 1000 -0.02031048 -0.02048342 -0.02012142 -0.02040505 -0.02059197 1000 -0.00499616 -0.004837703 -0.02012142 -0.004730049 -0.004729055 1000
lala 23 0.0046875 1 first 0 1 23 3 2.963438 0.359997987747192 0 1 1 0 -0.02033146 -0.01997001 -0.01975493 -0.01973215 -0.02006496 1000 -0.003813711 -0.003845605 -0.003912198 -0.003721392 -0.004109337 1000 -0.02075605 -0.02098314 -0.02076702 -0.02065871 -0.02065378 1000 -0.004692791 -0.004811344 -0.02076702 -0.004757575 -0.005250649 1000
lala 24 0.0046875 1 first 0 1 24 3 2.95875 0.299998044967651 0 1 1 1 -0.02139735 -0.02131075 -0.02117044 -0.02152797 -0.02157802 1000 -0.003681261 -0.004077989 -0.003209109 -0.003551777 -0.00331094 1000 -0.02272157 -0.0237056 -0.02350436 -0.02310227 -0.02300354 1000 -0.003837405 -0.003730196 -0.02350436 -0.003644715 -0.003895269 1000
lala 25 0.0046875 0 first 0 1 25 3 2.954063 0.459997892379761 0 1 -1 0 -0.02064241 -0.02071824 -0.02127885 -0.02105813 -0.02109859 1000 -0.002813399 -0.003210514 -0.003096127 -0.003339341 -0.002994868 1000 -0.0219809 -0.02216386 -0.02235086 -0.02207919 -0.02250687 1000 -0.003931378 -0.00397659 -0.02235086 -0.003809372 -0.003017206 1000
lala 26 0.00234375 1 second 0 1 26 3 2.956406 0.419997930526733 0 1 1 1 -0.02014518 -0.01995595 -0.02042301 -0.02048925 -0.02089944 1000 -0.001360027 -0.001892068 -0.001430497 -0.001971946 -0.002211817 1000 -0.02143671 -0.02182805 -0.02125662 -0.02115177 -0.0211612 1000 -0.002858959 -0.00227956 -0.02125662 -0.002197353 -0.00183577 1000
