subject PestNr Step_Size_OnTrial Pest_Faster Pest_Interval Condition block trial velH velH_Pest Reaction_Time velH_Subject Start_Above Response_MotionEstimation RightOrLeftxRotations_first0 xRotations_first1 xRotations_first2 xRotations_first3 xRotations_first4 xRotations_first5 yRotations_first0 yRotations_first1 yRotations_first2 yRotations_first3 yRotations_first4 yRotations_first5 xRotations_second0 xRotations_second1 xRotations_second2 xRotations_second3 xRotations_second4 xRotations_second5 yRotations_second0 yRotations_second1 yRotations_second2 yRotations_second3 yRotations_second4 yRotations_second5
lala 1 1.2 1 second 13 1 1 4 5.32 3.31999540328979 0 1 1 0 -0.0149539 -0.01459115 -0.0139842 -0.01294294 -0.01283139 1000 -0.0149539 -0.01459115 -0.0139842 -0.01294294 -0.01283139 1000 -0.0131934 -0.01314493 -0.01323713 -0.01402203 -0.01376245 1000 -0.0131934 -0.01314493 -0.01323713 -0.01402203 -0.01376245 1000
lala 1 1.2 0 second 10 1 2 6 3.96 1.65999698638916 1 0 -1 0 -0.02230849 -0.02245943 -0.02224081 -0.02199096 -0.02193739 1000 -0.02230849 -0.02245943 -0.02224081 -0.02199096 -0.02193739 1000 -0.02223312 -0.02240027 -0.02206715 -0.02241837 -0.02240679 1000 -0.02223312 -0.02240027 -0.02206715 -0.02241837 -0.02240679 1000
lala 1 1.2 1 second 12 1 3 4 2.64 3.31999540328979 0 0 1 1 -0.02098268 -0.01500744 -0.01303704 -0.01341345 -0.01398 1000 -0.02098268 -0.01500744 -0.01303704 -0.01341345 -0.01398 1000 -0.01648802 -0.01647748 -0.01638255 -0.01649479 -0.01650166 1000 -0.01648802 -0.01647748 -0.01638255 -0.01649479 -0.01650166 1000
lala 1 1.2 1 second 1 1 4 4 5.32 1.81999683380127 -1 1 1 1 -0.02092256 -0.02113602 -0.02084448 -0.02098013 -0.02098929 1000 -0.02092256 -0.02113602 -0.02084448 -0.02098013 -0.02098929 1000 -0.02126501 -0.02119436 -0.02103145 -0.02113291 -0.02113825 1000 -0.02126501 -0.02119436 -0.02103145 -0.02113291 -0.02113825 1000
lala 2 1.2 1 second 1 1 5 4 4.12 0.719997644424438 -1 1 1 0 -0.0211149 -0.02121855 -0.02109207 -0.02080792 -0.02139278 1000 -0.0211149 -0.02121855 -0.02109207 -0.02080792 -0.02139278 1000 -0.02228036 -0.02213348 -0.02202248 -0.02195145 -0.022072 1000 -0.02228036 -0.02213348 -0.02202248 -0.02195145 -0.022072 1000
lala 1 1.2 1 second 8 1 6 5 3.3 1.25999712944031 1 0 1 1 -0.02054271 -0.02012206 -0.01947569 -0.01914356 -0.0190472 1000 -0.02054271 -0.02012206 -0.01947569 -0.01914356 -0.0190472 1000 -0.02009599 -0.019908 -0.02012593 -0.02013874 -0.01986248 1000 -0.02009599 -0.019908 -0.02012593 -0.02013874 -0.01986248 1000
lala 1 1.2 1 second 3 1 7 5 6.65 2.03999662399292 -1 1 1 1 -0.02042977 -0.02008338 -0.01989954 -0.01984243 -0.01984548 1000 -0.02042977 -0.02008338 -0.01989954 -0.01984243 -0.01984548 1000 -0.0206556 -0.02083066 -0.02076885 -0.02052171 -0.02041301 1000 -0.0206556 -0.02083066 -0.02076885 -0.02052171 -0.02041301 1000
lala 1 1.2 1 first 11 1 8 6 7.98 0.959997415542603 1 1 1 1 -0.02010021 -0.02065668 -0.02044552 1000 1000 1000 -0.02010021 -0.02065668 -0.02044552 1000 1000 1000 -0.02064867 -0.02070643 -0.02052538 -0.02039382 -0.02006852 1000 -0.02064867 -0.02070643 -0.02052538 -0.02039382 -0.02006852 1000
lala 2 1.2 1 second 3 1 9 5 5.45 1.15999722480774 -1 1 1 1 -0.02081855 -0.02101701 -0.0207373 -0.02102075 -0.02089127 1000 -0.02081855 -0.02101701 -0.0207373 -0.02102075 -0.02089127 1000 -0.02066621 -0.02045985 -0.02056003 -0.0205693 -0.02019948 1000 -0.02066621 -0.02045985 -0.02056003 -0.0205693 -0.02019948 1000
lala 1 1.2 0 first 6 1 10 4 2.64 0.459997892379761 1 0 -1 1 -0.02020965 -0.02090203 -0.0212503 1000 1000 1000 -0.02020965 -0.02090203 -0.0212503 1000 1000 1000 -0.02132002 -0.02133229 -0.02096669 -0.02098741 -0.021428 1000 -0.02132002 -0.02133229 -0.02096669 -0.02098741 -0.021428 1000
lala 2 1.2 1 first 6 1 11 4 3.84 2.63999605178833 1 0 1 0 -0.02146011 -0.02175625 -0.02187787 1000 1000 1000 -0.02146011 -0.02175625 -0.02187787 1000 1000 1000 -0.02161146 -0.004139365 0.0005551936 -0.00185329 -0.001722843 1000 -0.02161146 -0.004139365 0.0005551936 -0.00185329 -0.001722843 1000
lala 1 1.2 1 first 5 1 12 6 7.98 2.01999664306641 -1 1 1 1 -0.02125424 -0.02123708 -0.02211962 1000 1000 1000 -0.02125424 -0.02123708 -0.02211962 1000 1000 1000 -0.02123015 -0.02067788 -0.02066476 -0.02055047 -0.0204091 1000 -0.02123015 -0.02067788 -0.02066476 -0.02055047 -0.0204091 1000
lala 3 1.2 1 first 3 1 13 5 4.25 3.39999532699585 -1 1 1 1 -0.02335149 -0.02355281 -0.02383326 1000 1000 1000 -0.02335149 -0.02355281 -0.02383326 1000 1000 1000 -0.02370026 -0.02362659 -0.02313644 -0.02283625 -0.02254168 1000 -0.02370026 -0.02362659 -0.02313644 -0.02283625 -0.02254168 1000
lala 2 1.2 0 second 12 1 14 4 1.44 0.759997606277466 0 0 -1 0 -0.02495296 -0.02486535 -0.02481188 -0.02502049 -0.02473198 1000 -0.02495296 -0.02486535 -0.02481188 -0.02502049 -0.02473198 1000 -0.02453106 -0.02441949 -0.02451624 -0.02441777 -0.0246233 1000 -0.02453106 -0.02441949 -0.02451624 -0.02441777 -0.0246233 1000
lala 3 1.2 0 second 1 1 15 4 2.92 1.13999724388123 -1 1 -1 1 -0.02429116 -0.02429117 -0.02413815 -0.02416658 -0.02398464 1000 -0.02429116 -0.02429117 -0.02413815 -0.02416658 -0.02398464 1000 -0.02467188 -0.02477376 -0.02446673 -0.02448899 -0.02462552 1000 -0.02467188 -0.02477376 -0.02446673 -0.02448899 -0.02462552 1000
lala 2 1.2 1 first 10 1 16 6 5.16 0.679997682571411 1 0 1 1 -0.02427236 -0.02474382 -0.02519782 1000 1000 1000 -0.02427236 -0.02474382 -0.02519782 1000 1000 1000 -0.02500192 -0.02439239 -0.02409069 -0.02396911 -0.0239623 1000 -0.02500192 -0.02439239 -0.02409069 -0.02396911 -0.0239623 1000
lala 1 1.2 0 first 0 1 17 4 2.64 1.05999732017517 -1 0 -1 0 -0.0238941 -0.02405991 -0.02419143 1000 1000 1000 -0.0238941 -0.02405991 -0.02419143 1000 1000 1000 -0.0232307 -0.02316092 -0.02290306 -0.02291428 -0.02332801 1000 -0.0232307 -0.02316092 -0.02290306 -0.02291428 -0.02332801 1000
lala 1 1.2 0 second 4 1 18 6 3.96 1.61999702453613 -1 0 -1 0 -0.02417787 -0.02387465 -0.02377106 -0.02344583 -0.023064 1000 -0.02417787 -0.02387465 -0.02377106 -0.02344583 -0.023064 1000 -0.02349772 -0.0235846 -0.02350719 -0.02348617 -0.02334806 1000 -0.02349772 -0.0235846 -0.02350719 -0.02348617 -0.02334806 1000
lala 2 1.2 1 second 4 1 19 6 5.16 0.359997987747192 -1 0 1 0 -0.02319185 -0.02280191 -0.02290697 -0.02259781 -0.02171562 1000 -0.02319185 -0.02280191 -0.02290697 -0.02259781 -0.02171562 1000 -0.02119361 -0.02136251 -0.02142397 -0.02170547 -0.02166325 1000 -0.02119361 -0.02136251 -0.02142397 -0.02170547 -0.02166325 1000
lala 2 1.2 1 first 13 1 20 4 4.12 1.69999694824219 0 1 1 1 -0.02128509 -0.02122025 -0.02118027 1000 1000 1000 -0.02128509 -0.02122025 -0.02118027 1000 1000 1000 -0.02008298 -0.01992854 -0.01993268 -0.01993329 -0.01945312 1000 -0.02008298 -0.01992854 -0.01993268 -0.01993329 -0.01945312 1000
lala 1 1.2 1 second 7 1 21 4 5.32 0.459997892379761 1 1 1 0 -0.01912273 -0.01941009 -0.01949816 -0.01907005 -0.01922802 1000 -0.01912273 -0.01941009 -0.01949816 -0.01907005 -0.01922802 1000 -0.01889987 -0.01890594 -0.01893265 -0.01884655 -0.01851395 1000 -0.01889987 -0.01890594 -0.01893265 -0.01884655 -0.01851395 1000
lala 3 1.2 0 second 6 1 22 4 2.64 0.359997987747192 1 0 -1 0 -0.0176887 -0.01766101 -0.01767378 -0.01761927 -0.01761614 1000 -0.0176887 -0.01766101 -0.01767378 -0.01761927 -0.01761614 1000 -0.01744964 -0.01758462 -0.01783172 -0.01755812 -0.01723912 1000 -0.01744964 -0.01758462 -0.01783172 -0.01755812 -0.01723912 1000
lala 1 1.2 0 second 16 1 23 6 3.96 1.61999702453613 0 0 -1 0 -0.01664496 -0.01678234 -0.01643332 -0.0163435 -0.01628103 1000 -0.01664496 -0.01678234 -0.01643332 -0.0163435 -0.01628103 1000 -0.01589697 -0.01605326 -0.01607367 -0.01573152 -0.01590713 1000 -0.01589697 -0.01605326 -0.01607367 -0.01573152 -0.01590713 1000
lala 3 1.2 1 first 10 1 24 6 3.96 0.199998140335083 1 0 1 0 -0.01599066 -0.01596236 -0.01612752 1000 1000 1000 -0.01599066 -0.01596236 -0.01612752 1000 1000 1000 -0.01589695 -0.01576364 -0.01567372 -0.01570585 -0.01526928 1000 -0.01589695 -0.01576364 -0.01567372 -0.01570585 -0.01526928 1000
lala 3 1.2 0 second 13 1 25 4 2.92 0.539997816085815 0 1 -1 0 -0.01534096 -0.01529893 -0.01544741 -0.01549982 -0.01532575 1000 -0.01534096 -0.01529893 -0.01544741 -0.01549982 -0.01532575 1000 -0.01438869 -0.01470721 -0.01449754 -0.01456051 -0.01470373 1000 -0.01438869 -0.01470721 -0.01449754 -0.01456051 -0.01470373 1000
lala 4 1.2 1 first 1 1 26 4 4.12 0.579997777938843 -1 1 1 1 -0.01409656 -0.01377161 -0.01369798 1000 1000 1000 -0.01409656 -0.01377161 -0.01369798 1000 1000 1000 -0.01265789 -0.01256099 -0.01243603 -0.0124378 -0.01241706 1000 -0.01265789 -0.01256099 -0.01243603 -0.0124378 -0.01241706 1000
lala 2 1.2 1 second 16 1 27 6 5.16 0.659997701644897 0 0 1 0 -0.01194349 -0.01193282 -0.01167333 -0.01164678 -0.01182318 1000 -0.01194349 -0.01193282 -0.01167333 -0.01164678 -0.01182318 1000 -0.01145067 -0.01151633 -0.01163752 -0.01171728 -0.01174338 1000 -0.01145067 -0.01151633 -0.01163752 -0.01171728 -0.01174338 1000
lala 2 1.2 0 second 8 1 28 5 2.1 0.459997892379761 1 0 -1 1 -0.01230583 -0.0125719 -0.01229876 -0.01240879 -0.01228806 1000 -0.01230583 -0.0125719 -0.01229876 -0.01240879 -0.01228806 1000 -0.01227112 -0.01202951 -0.01211345 -0.01220793 -0.01185885 1000 -0.01227112 -0.01202951 -0.01211345 -0.01220793 -0.01185885 1000
lala 4 1.2 0 second 6 1 29 4 3.84 1.37999701499939 1 0 -1 1 -0.01281147 -0.01229703 -0.01216989 -0.01184221 -0.01203683 1000 -0.01281147 -0.01229703 -0.01216989 -0.01184221 -0.01203683 1000 -0.01240593 -0.01232154 -0.01248706 -0.0125362 -0.01220701 1000 -0.01240593 -0.01232154 -0.01248706 -0.0125362 -0.01220701 1000
lala 2 1.2 1 second 5 1 30 6 6.780001 0.259998083114624 -1 1 1 0 -0.01256707 -0.01264477 -0.01274667 -0.01266811 -0.01284175 1000 -0.01256707 -0.01264477 -0.01274667 -0.01266811 -0.01284175 1000 -0.01296398 -0.01295359 -0.01305664 -0.01325379 -0.01320075 1000 -0.01296398 -0.01295359 -0.01305664 -0.01325379 -0.01320075 1000
lala 5 1.2 1 second 6 1 31 4 5.04 0.359997987747192 1 0 1 1 -0.01333998 -0.01309257 -0.01299982 -0.01286628 -0.01273764 1000 -0.01333998 -0.01309257 -0.01299982 -0.01286628 -0.01273764 1000 -0.01282406 -0.01299441 -0.01297408 -0.01251077 -0.01240932 1000 -0.01282406 -0.01299441 -0.01297408 -0.01251077 -0.01240932 1000
lala 3 1.2 1 first 8 1 32 5 3.3 1.23999714851379 1 0 1 1 -0.01268735 -0.01307395 -0.0128587 1000 1000 1000 -0.01268735 -0.01307395 -0.0128587 1000 1000 1000 -0.01323179 -0.01305014 -0.01315313 -0.01319495 -0.01333619 1000 -0.01323179 -0.01305014 -0.01315313 -0.01319495 -0.01333619 1000
lala 1 1.2 0 first 14 1 33 5 3.3 0.159998178482056 0 0 -1 1 -0.01315136 -0.01348433 -0.01339053 1000 1000 1000 -0.01315136 -0.01348433 -0.01339053 1000 1000 1000 -0.01362447 -0.01343352 -0.013308 -0.01306429 -0.01289035 1000 -0.01362447 -0.01343352 -0.013308 -0.01306429 -0.01289035 1000
lala 4 1.2 0 second 10 1 34 6 2.76 0.519997835159302 1 0 -1 1 -0.01325376 -0.01300847 -0.01303297 -0.0131732 -0.0127743 1000 -0.01325376 -0.01300847 -0.01303297 -0.0131732 -0.0127743 1000 -0.01224504 -0.01249975 -0.01244786 -0.01260274 -0.01257158 1000 -0.01224504 -0.01249975 -0.01244786 -0.01260274 -0.01257158 1000
lala 4 1.2 0 second 3 1 35 5 3.05 0.499997854232788 -1 1 -1 1 -0.01295451 -0.01265489 -0.01306584 -0.01270444 -0.01224069 1000 -0.01295451 -0.01265489 -0.01306584 -0.01270444 -0.01224069 1000 -0.0117658 -0.01173921 -0.01189885 -0.01192218 -0.0121077 1000 -0.0117658 -0.01173921 -0.01189885 -0.01192218 -0.0121077 1000
lala 5 1.2 1 first 10 1 36 6 3.96 2.77999591827393 1 0 1 1 -0.01177423 -0.01200096 -0.01214532 1000 1000 1000 -0.01177423 -0.01200096 -0.01214532 1000 1000 1000 -0.01111751 -0.01147879 -0.01145396 -0.0117807 -0.01213308 1000 -0.01111751 -0.01147879 -0.01145396 -0.0117807 -0.01213308 1000
lala 3 1.2 0 second 12 1 37 4 2.64 0.479997873306274 0 0 -1 0 -0.0109588 -0.01066337 -0.01072469 -0.01087333 -0.01107696 1000 -0.0109588 -0.01066337 -0.01072469 -0.01087333 -0.01107696 1000 -0.01088556 -0.011153 -0.0109521 -0.01033137 -0.01028514 1000 -0.01088556 -0.011153 -0.0109521 -0.01033137 -0.01028514 1000
lala 4 1.2 1 first 8 1 38 5 2.1 0.359997987747192 1 0 1 0 -0.0119205 -0.01161096 -0.01169172 1000 1000 1000 -0.0119205 -0.01161096 -0.01169172 1000 1000 1000 -0.01159709 -0.01180799 -0.01151071 -0.01109108 -0.01107809 1000 -0.01159709 -0.01180799 -0.01151071 -0.01109108 -0.01107809 1000
lala 1 1.2 1 first 17 1 39 6 7.98 0.159998178482056 0 1 1 0 -0.01145262 -0.01170413 -0.01164819 1000 1000 1000 -0.01145262 -0.01170413 -0.01164819 1000 1000 1000 -0.01170784 -0.01166386 -0.01145399 -0.01134751 -0.01132546 1000 -0.01170784 -0.01166386 -0.01145399 -0.01134751 -0.01132546 1000
lala 2 1.2 1 first 11 1 40 6 6.780001 0.319998025894165 1 1 1 1 -0.0106005 -0.01051031 -0.01035761 1000 1000 1000 -0.0106005 -0.01051031 -0.01035761 1000 1000 1000 -0.009742288 -0.01000797 -0.009844941 -0.01002053 -0.01024249 1000 -0.009742288 -0.01000797 -0.009844941 -0.01002053 -0.01024249 1000
lala 2 1.2 0 first 0 1 41 4 3.84 1.37999701499939 -1 0 -1 1 -0.01035647 -0.01016531 -0.01000788 1000 1000 1000 -0.01035647 -0.01016531 -0.01000788 1000 1000 1000 -0.009357834 -0.009445744 -0.009420643 -0.009513484 -0.009415478 1000 -0.009357834 -0.009445744 -0.009420643 -0.009513484 -0.009415478 1000
lala 4 1.2 1 first 13 1 42 4 4.12 1.59999680519104 0 1 1 1 -0.009904486 -0.00978407 -0.009230733 1000 1000 1000 -0.009904486 -0.00978407 -0.009230733 1000 1000 1000 -0.01148223 -0.01152296 -0.01148165 -0.01131911 -0.01224742 1000 -0.01148223 -0.01152296 -0.01148165 -0.01131911 -0.01224742 1000
lala 5 1.2 1 first 3 1 43 5 4.25 0.479997873306274 -1 1 1 1 0.005959971 0.00377271 0.002518683 1000 1000 1000 0.005959971 0.00377271 0.002518683 1000 1000 1000 -0.0156338 -0.01594865 -0.01591932 -0.01627418 -0.01621443 1000 -0.0156338 -0.01594865 -0.01591932 -0.01627418 -0.01621443 1000
lala 6 1.2 0 second 6 1 44 4 3.84 1.77999687194824 1 0 -1 0 -0.0188433 -0.0191917 -0.01920181 -0.01897577 -0.01909812 1000 -0.0188433 -0.0191917 -0.01920181 -0.01897577 -0.01909812 1000 -0.01910174 -0.01951914 -0.01917561 -0.01921657 -0.0192537 1000 -0.01910174 -0.01951914 -0.01917561 -0.01921657 -0.0192537 1000
lala 3 1.2 1 first 11 1 45 6 5.580001 0.079998254776001 1 1 1 1 -0.01889928 -0.01913236 -0.01899534 1000 1000 1000 -0.01889928 -0.01913236 -0.01899534 1000 1000 1000 -0.01870983 -0.01874617 -0.01889369 -0.01901586 -0.01891454 1000 -0.01870983 -0.01874617 -0.01889369 -0.01901586 -0.01891454 1000
lala 3 1.2 0 second 16 1 46 6 3.96 0.439997911453247 0 0 -1 1 -0.01740556 -0.01717217 -0.0171139 -0.01717268 -0.01692761 1000 -0.01740556 -0.01717217 -0.0171139 -0.01717268 -0.01692761 1000 -0.01749641 -0.01738815 -0.01763214 -0.0173983 -0.01740226 1000 -0.01749641 -0.01738815 -0.01763214 -0.0173983 -0.01740226 1000
lala 5 1.2 1 first 8 1 47 5 1.65 0.139998197555542 1 0 1 1 -0.01838007 -0.01824712 -0.01832529 1000 1000 1000 -0.01838007 -0.01824712 -0.01832529 1000 1000 1000 -0.01732639 -0.01719405 -0.01750539 -0.01782513 -0.01780364 1000 -0.01732639 -0.01719405 -0.01750539 -0.01782513 -0.01780364 1000
lala 4 1.2 1 first 16 1 48 6 5.16 0.379997968673706 0 0 1 0 -0.01766167 -0.01761864 -0.01788829 1000 1000 1000 -0.01766167 -0.01761864 -0.01788829 1000 1000 1000 -0.01803084 -0.01800382 -0.01770108 -0.01741791 -0.01728391 1000 -0.01803084 -0.01800382 -0.01770108 -0.01741791 -0.01728391 1000
lala 2 1.2 0 second 14 1 49 5 4.5 1.43999695777893 0 0 -1 1 -0.01739844 -0.01720461 -0.01714128 -0.01692117 -0.01705366 1000 -0.01739844 -0.01720461 -0.01714128 -0.01692117 -0.01705366 1000 -0.01651872 -0.01625637 -0.01590835 -0.01602094 -0.01612688 1000 -0.01651872 -0.01625637 -0.01590835 -0.01602094 -0.01612688 1000
lala 3 1.2 1 second 14 1 50 5 5.7 0.659997701644897 0 0 1 0 -0.01263469 -0.01261192 -0.01268019 -0.0127682 -0.01248612 1000 -0.01263469 -0.01261192 -0.01268019 -0.0127682 -0.01248612 1000 -0.01127465 -0.01104663 -0.01078227 -0.01108503 -0.01120395 1000 -0.01127465 -0.01104663 -0.01078227 -0.01108503 -0.01120395 1000
lala 1 1.2 1 second 9 1 51 5 6.65 1.91999673843384 1 1 1 0 -0.009803409 -0.00974767 -0.00931443 -0.009534392 -0.009782389 1000 -0.009803409 -0.00974767 -0.00931443 -0.009534392 -0.009782389 1000 -0.01002658 -0.009946743 -0.009864476 -0.009817034 -0.009719324 1000 -0.01002658 -0.009946743 -0.009864476 -0.009817034 -0.009719324 1000
lala 1 1.2 0 second 2 1 52 5 3.3 0.459997892379761 -1 0 -1 1 -0.008749573 -0.008672259 -0.008701573 -0.008784969 -0.009086383 1000 -0.008749573 -0.008672259 -0.008701573 -0.008784969 -0.009086383 1000 -0.008779395 -0.008496443 -0.008253312 -0.007798442 -0.008000169 1000 -0.008779395 -0.008496443 -0.008253312 -0.007798442 -0.008000169 1000
lala 4 1.2 0 second 14 1 53 5 4.5 1.27999711036682 0 0 -1 0 -0.008693834 -0.008784723 -0.008440916 -0.00852063 -0.008565944 1000 -0.008693834 -0.008784723 -0.008440916 -0.00852063 -0.008565944 1000 -0.008564024 -0.008529193 -0.008596108 -0.008934773 -0.008474978 1000 -0.008564024 -0.008529193 -0.008596108 -0.008934773 -0.008474978 1000
lala 2 1.2 1 first 2 1 54 5 4.5 1.3999969959259 -1 0 1 1 -0.008572893 -0.00831281 -0.008658229 1000 1000 1000 -0.008572893 -0.00831281 -0.008658229 1000 1000 1000 -0.007797501 -0.00723652 -0.007396422 -0.006794158 -0.00691521 1000 -0.007797501 -0.00723652 -0.007396422 -0.006794158 -0.00691521 1000
lala 5 1.2 0 second 1 1 55 4 2.92 0.259998083114624 -1 1 -1 1 -0.007442163 -0.007284067 -0.007375638 -0.007461649 -0.007542509 1000 -0.007442163 -0.007284067 -0.007375638 -0.007461649 -0.007542509 1000 -0.006277395 -0.006579841 -0.006316606 -0.006293955 -0.006648183 1000 -0.006277395 -0.006579841 -0.006316606 -0.006293955 -0.006648183 1000
lala 6 1.2 1 second 3 1 56 5 3.05 1.33999705314636 -1 1 1 0 -0.007690663 -0.007508629 -0.007136499 -0.007460089 -0.007383566 1000 -0.007690663 -0.007508629 -0.007136499 -0.007460089 -0.007383566 1000 -0.006998652 -0.007107751 -0.007024774 -0.006992094 -0.007368877 1000 -0.006998652 -0.007107751 -0.007024774 -0.006992094 -0.007368877 1000
lala 6 1.2 0 second 10 1 57 6 2.76 1.0999972820282 1 0 -1 0 -0.01393865 -0.01268893 -0.01048587 -0.01426966 -0.01921642 1000 -0.01393865 -0.01268893 -0.01048587 -0.01426966 -0.01921642 1000 -0.0292765 -0.01941291 -0.008485668 -0.004497096 -0.005541192 1000 -0.0292765 -0.01941291 -0.008485668 -0.004497096 -0.005541192 1000
lala 3 1.2 1 first 4 1 58 6 3.96 2.03999662399292 -1 0 1 0 -0.01415599 -0.00921857 -0.006164189 1000 1000 1000 -0.01415599 -0.00921857 -0.006164189 1000 1000 1000 -0.0107823 -0.01034985 -0.01015455 -0.01040387 -0.01021065 1000 -0.0107823 -0.01034985 -0.01015455 -0.01040387 -0.01021065 1000
lala 1 1.2 1 second 15 1 59 5 6.65 0.39999794960022 0 1 1 0 -0.01105439 -0.01034647 -0.009894189 -0.009371525 -0.009260791 1000 -0.01105439 -0.01034647 -0.009894189 -0.009371525 -0.009260791 1000 -0.007438292 -0.007211427 -0.006566285 -0.006292877 -0.006074398 1000 -0.007438292 -0.007211427 -0.006566285 -0.006292877 -0.006074398 1000
lala 7 1.2 0 first 3 1 60 5 1.85 1.79999685287476 -1 1 -1 0 -0.006600102 -0.006698876 -0.006210194 1000 1000 1000 -0.006600102 -0.006698876 -0.006210194 1000 1000 1000 -0.00498175 -0.00470971 -0.004836269 -0.004610622 -0.004291231 1000 -0.00498175 -0.00470971 -0.004836269 -0.004610622 -0.004291231 1000
lala 7 1.2 1 second 10 1 61 6 3.96 0.459997892379761 1 0 1 1 -0.004476499 -0.004248876 -0.004411614 -0.004550271 -0.004521458 1000 -0.004476499 -0.004248876 -0.004411614 -0.004550271 -0.004521458 1000 -0.003396224 -0.003255721 -0.003254088 -0.003596541 -0.003521411 1000 -0.003396224 -0.003255721 -0.003254088 -0.003596541 -0.003521411 1000
lala 2 1.2 1 first 17 1 62 6 6.780001 0.259998083114624 0 1 1 0 -0.003044685 -0.00310069 -0.002816207 1000 1000 1000 -0.003044685 -0.00310069 -0.002816207 1000 1000 1000 -0.0018879 -0.001453392 -0.001550007 -0.001474865 -0.001826982 1000 -0.0018879 -0.001453392 -0.001550007 -0.001474865 -0.001826982 1000
lala 3 1.2 1 first 0 1 63 4 5.04 0.639997720718384 -1 0 1 0 -0.0008633063 -0.0008902276 -0.0007593801 1000 1000 1000 -0.0008633063 -0.0008902276 -0.0007593801 1000 1000 1000 -0.001050173 -0.0009281314 -0.0004306671 -0.0002206614 9.283013E-06 1000 -0.001050173 -0.0009281314 -0.0004306671 -0.0002206614 9.283013E-06 1000
lala 4 1.2 0 second 4 1 64 6 2.76 0.359997987747192 -1 0 -1 1 8.060552E-05 -0.0001692359 -0.0003924775 -0.0001748864 -0.0002181799 1000 8.060552E-05 -0.0001692359 -0.0003924775 -0.0001748864 -0.0002181799 1000 -0.0005482048 -0.0004246462 -4.11569E-05 0.0006022986 0.0009778599 1000 -0.0005482048 -0.0004246462 -4.11569E-05 0.0006022986 0.0009778599 1000
lala 3 1.2 0 second 2 1 65 5 3.3 1.95999670028687 -1 0 -1 0 -0.00024978 -9.743373E-05 0.0002034194 4.13603E-05 -6.618447E-05 1000 -0.00024978 -9.743373E-05 0.0002034194 4.13603E-05 -6.618447E-05 1000 -0.0005642756 -0.0009297661 -0.0007549384 -0.0003609467 0.0001935774 1000 -0.0005642756 -0.0009297661 -0.0007549384 -0.0003609467 0.0001935774 1000
lala 6 1.2 0 second 8 1 66 5 1.65 0.719997644424438 1 0 -1 1 -3.599651E-05 -5.75815E-05 0.0002947424 0.000939807 0.001400039 1000 -3.599651E-05 -5.75815E-05 0.0002947424 0.000939807 0.001400039 1000 0.001162897 0.0006347931 0.000807941 0.000957681 0.001044234 1000 0.001162897 0.0006347931 0.000807941 0.000957681 0.001044234 1000
lala 6 1.2 0 first 1 1 67 4 4.12 2.51999616622925 -1 1 -1 1 0.00176342 0.001675023 0.001744055 1000 1000 1000 0.00176342 0.001675023 0.001744055 1000 1000 1000 -0.008453133 -0.007929771 -0.01345934 -0.006270946 -0.005379586 1000 -0.008453133 -0.007929771 -0.01345934 -0.006270946 -0.005379586 1000
lala 2 1.2 1 first 15 1 68 5 5.45 0.0599982738494873 0 1 1 0 -0.003308102 -0.003374508 -0.003631143 1000 1000 1000 -0.003308102 -0.003374508 -0.003631143 1000 1000 1000 -0.003268512 -0.002841276 -0.002708607 -0.002827979 -0.002697917 1000 -0.003268512 -0.002841276 -0.002708607 -0.002827979 -0.002697917 1000
lala 2 1.2 1 first 9 1 69 5 5.45 0.159998178482056 1 1 1 1 -0.002367051 -0.002063488 -0.001844108 1000 1000 1000 -0.002367051 -0.002063488 -0.001844108 1000 1000 1000 -0.001324485 -0.0009115701 -0.001106245 -0.001093384 -0.0006957978 1000 -0.001324485 -0.0009115701 -0.001106245 -0.001093384 -0.0006957978 1000
lala 4 1.2 1 first 0 1 70 4 3.84 0.879997491836548 -1 0 1 0 -0.001309757 -0.0009563785 -0.001100263 1000 1000 1000 -0.001309757 -0.0009563785 -0.001100263 1000 1000 1000 0.0006897818 0.0009622027 0.0005126955 0.0002129085 -0.0001515515 1000 0.0006897818 0.0009622027 0.0005126955 0.0002129085 -0.0001515515 1000
lala 4 1.2 1 first 2 1 71 5 4.5 1.3999969959259 -1 0 1 1 -4.465925E-05 -4.965652E-05 -0.0001140299 1000 1000 1000 -4.465925E-05 -4.965652E-05 -0.0001140299 1000 1000 1000 0.001579374 0.0005318494 0.0008549955 0.0009411768 0.0008729668 1000 0.001579374 0.0005318494 0.0008549955 0.0009411768 0.0008729668 1000
lala 8 1.2 1 first 3 1 72 5 3.05 0.899997472763062 -1 1 1 1 -8.98719E-05 0.0002264151 0.0005528552 1000 1000 1000 -8.98719E-05 0.0002264151 0.0005528552 1000 1000 1000 0.0001173374 7.159509E-06 0.0001119093 -7.495628E-05 6.024315E-05 1000 0.0001173374 7.159509E-06 0.0001119093 -7.495628E-05 6.024315E-05 1000
lala 7 1.2 1 first 1 1 73 4 5.32 0.379997968673706 -1 1 1 0 -0.0007264515 -0.0004743228 0.0002583896 1000 1000 1000 -0.0007264515 -0.0004743228 0.0002583896 1000 1000 1000 0.0004606036 0.0005565067 0.0002447271 0.0004369214 0.0001724324 1000 0.0004606036 0.0005565067 0.0002447271 0.0004369214 0.0001724324 1000
lala 5 1.2 1 second 16 1 74 6 3.96 0.979997396469116 0 0 1 0 -0.0001575556 6.622022E-05 -0.0001064595 0.0001279566 0.0001448701 1000 -0.0001575556 6.622022E-05 -0.0001064595 0.0001279566 0.0001448701 1000 -0.002174005 -0.005473192 -0.01650535 -0.02905496 -0.03587176 1000 -0.002174005 -0.005473192 -0.01650535 -0.02905496 -0.03587176 1000
lala 5 1.2 0 second 13 1 75 4 2.92 0.459997892379761 0 1 -1 1 -0.01590172 -0.01622542 -0.01716069 -0.01761283 -0.02043363 1000 -0.01590172 -0.01622542 -0.01716069 -0.01761283 -0.02043363 1000 -0.02513927 -0.02712573 -0.02964967 -0.03450138 -0.0369494 1000 -0.02513927 -0.02712573 -0.02964967 -0.03450138 -0.0369494 1000
lala 2 1.2 1 first 7 1 76 4 4.12 0.0999982357025146 1 1 1 1 -0.0222028 -0.01388115 -0.009953004 1000 1000 1000 -0.0222028 -0.01388115 -0.009953004 1000 1000 1000 -0.009848396 -0.009712045 -0.009052391 -0.009246944 -0.008789473 1000 -0.009848396 -0.009712045 -0.009052391 -0.009246944 -0.008789473 1000
lala 6 1.2 1 second 13 1 77 4 4.12 0.939997434616089 0 1 1 0 -0.009110165 -0.008784099 -0.008777703 -0.008750809 -0.008794702 1000 -0.009110165 -0.008784099 -0.008777703 -0.008750809 -0.008794702 1000 -0.006156615 -0.005815483 -0.00510197 -0.004304752 -0.004334171 1000 -0.006156615 -0.005815483 -0.00510197 -0.004304752 -0.004334171 1000
lala 5 1.2 1 second 4 1 78 6 3.96 1.8599967956543 -1 0 1 1 -0.00652898 -0.006542773 -0.006530504 -0.006556228 -0.006407603 1000 -0.00652898 -0.006542773 -0.006530504 -0.006556228 -0.006407603 1000 -0.006568634 -0.006776689 -0.006871061 -0.006746159 -0.006756489 1000 -0.006568634 -0.006776689 -0.006871061 -0.006746159 -0.006756489 1000
lala 3 1.2 1 first 5 1 79 6 5.580001 0.23999810218811 -1 1 1 1 -0.007050025 -0.006677414 -0.00716094 1000 1000 1000 -0.007050025 -0.006677414 -0.00716094 1000 1000 1000 -0.007471733 -0.007589263 -0.007220633 -0.006535168 -0.006603694 1000 -0.007471733 -0.007589263 -0.007220633 -0.006535168 -0.006603694 1000
lala 4 1.2 1 first 11 1 80 6 4.380001 0.23999810218811 1 1 1 0 -0.007344263 -0.007534414 -0.007145499 1000 1000 1000 -0.007344263 -0.007534414 -0.007145499 1000 1000 1000 -0.006563076 -0.006545588 -0.006512023 -0.006384694 -0.006275312 1000 -0.006563076 -0.006545588 -0.006512023 -0.006384694 -0.006275312 1000
lala 7 1.2 0 second 13 1 81 4 2.92 0.439997911453247 0 1 -1 0 -0.006373937 -0.006038519 -0.005945699 -0.006284327 -0.006322242 1000 -0.006373937 -0.006038519 -0.005945699 -0.006284327 -0.006322242 1000 -0.005813078 -0.005885834 -0.005666701 -0.005652475 -0.005729898 1000 -0.005813078 -0.005885834 -0.005666701 -0.005652475 -0.005729898 1000
lala 4 1.2 1 first 12 1 82 4 3.84 0.119998216629028 0 0 1 0 -0.005872722 -0.006027631 -0.006241615 1000 1000 1000 -0.005872722 -0.006027631 -0.006241615 1000 1000 1000 -0.00581266 -0.005620907 -0.005270155 -0.004809428 -0.004920734 1000 -0.00581266 -0.005620907 -0.005270155 -0.004809428 -0.004920734 1000
lala 8 1.2 1 second 13 1 83 4 4.12 0.379997968673706 0 1 1 0 -0.005534853 -0.00552986 -0.005616985 -0.005487524 -0.005540634 1000 -0.005534853 -0.00552986 -0.005616985 -0.005487524 -0.005540634 1000 -0.003834817 -0.004006042 -0.004009375 -0.004007835 -0.003851505 1000 -0.003834817 -0.004006042 -0.004009375 -0.004007835 -0.003851505 1000
lala 9 1.2 1 second 3 1 84 5 1.85 3.7599949836731 -1 1 1 1 -0.004578744 -0.004271727 -0.004516145 -0.004214553 -0.003865701 1000 -0.004578744 -0.004271727 -0.004516145 -0.004214553 -0.003865701 1000 -0.003706376 -0.003365621 -0.00364292 -0.003717701 -0.003457422 1000 -0.003706376 -0.003365621 -0.00364292 -0.003717701 -0.003457422 1000
lala 6 1.2 0 second 4 1 85 6 2.76 0.739997625350952 -1 0 -1 0 -0.005401931 -0.005737054 -0.006018705 -0.006032703 -0.006230077 1000 -0.005401931 -0.005737054 -0.006018705 -0.006032703 -0.006230077 1000 -0.007091268 -0.007361159 -0.007405174 -0.007013182 -0.006277617 1000 -0.007091268 -0.007361159 -0.007405174 -0.007013182 -0.006277617 1000
lala 3 1.2 1 first 17 1 86 6 5.580001 0.379997968673706 0 1 1 1 -0.007201555 -0.00746801 -0.007408636 1000 1000 1000 -0.007201555 -0.00746801 -0.007408636 1000 1000 1000 -0.008802767 -0.008556929 -0.008128994 -0.007943115 -0.008042431 1000 -0.008802767 -0.008556929 -0.008128994 -0.007943115 -0.008042431 1000
lala 5 1.2 0 first 12 1 87 4 2.64 0.299998044967651 0 0 -1 1 -0.009048113 -0.008984738 -0.009051503 1000 1000 1000 -0.009048113 -0.008984738 -0.009051503 1000 1000 1000 -0.00960512 -0.009659295 -0.009441799 -0.00934882 -0.009637703 1000 -0.00960512 -0.009659295 -0.009441799 -0.00934882 -0.009637703 1000
lala 9 1.2 1 first 13 1 88 4 2.92 1.15999722480774 0 1 1 0 -0.00915361 -0.009917689 -0.009723854 1000 1000 1000 -0.00915361 -0.009917689 -0.009723854 1000 1000 1000 -0.01015864 -0.01009547 -0.01003834 -0.009926217 -0.00965711 1000 -0.01015864 -0.01009547 -0.01003834 -0.009926217 -0.00965711 1000
lala 6 1.2 1 second 12 1 89 4 3.84 0.579997777938843 0 0 1 1 -0.009736133 -0.00995046 -0.0096297 -0.009031365 -0.009185444 1000 -0.009736133 -0.00995046 -0.0096297 -0.009031365 -0.009185444 1000 -0.009529017 -0.009602289 -0.009375291 -0.009120245 -0.009322595 1000 -0.009529017 -0.009602289 -0.009375291 -0.009120245 -0.009322595 1000
lala 8 1.2 0 second 10 1 90 6 2.76 0.39999794960022 1 0 -1 0 -0.009198045 -0.008863972 -0.008908961 -0.008916843 -0.008956351 1000 -0.009198045 -0.008863972 -0.008908961 -0.008916843 -0.008956351 1000 -0.009045166 -0.009019366 -0.008511398 -0.008528784 -0.008796982 1000 -0.009045166 -0.009019366 -0.008511398 -0.008528784 -0.008796982 1000
lala 5 1.2 1 first 0 1 91 4 2.64 1.3999969959259 -1 0 1 1 -0.00791549 -0.008215281 -0.008020327 1000 1000 1000 -0.00791549 -0.008215281 -0.008020327 1000 1000 1000 -0.008535942 -0.00863547 -0.008899635 -0.008783989 -0.008718806 1000 -0.008535942 -0.00863547 -0.008899635 -0.008783989 -0.008718806 1000
lala 9 1.2 1 second 10 1 92 6 3.96 1.15999722480774 1 0 1 1 -0.008647345 -0.008672113 -0.008508814 -0.00838635 -0.008590682 1000 -0.008647345 -0.008672113 -0.008508814 -0.00838635 -0.008590682 1000 -0.008422439 -0.008602199 -0.008452502 -0.00841944 -0.00853662 1000 -0.008422439 -0.008602199 -0.008452502 -0.00841944 -0.00853662 1000
lala 7 1.2 1 first 8 1 93 5 2.85 2.13999652862549 1 0 1 1 -0.008932528 -0.009127462 -0.009037206 1000 1000 1000 -0.008932528 -0.009127462 -0.009037206 1000 1000 1000 -0.009772736 -0.01010221 -0.01027741 -0.009803751 -0.009307221 1000 -0.009772736 -0.01010221 -0.01027741 -0.009803751 -0.009307221 1000
lala 8 1.2 1 second 1 1 94 4 4.12 0.719997644424438 -1 1 1 0 -0.01051494 -0.01033264 -0.009923508 -0.01003123 -0.009810458 1000 -0.01051494 -0.01033264 -0.009923508 -0.01003123 -0.009810458 1000 -0.01080224 -0.01085916 -0.01089295 -0.0107211 -0.0107725 1000 -0.01080224 -0.01085916 -0.01089295 -0.0107211 -0.0107725 1000
lala 6 1.2 0 first 0 1 95 4 1.44 0.259998083114624 -1 0 -1 0 -0.01046807 -0.01066339 -0.01074469 1000 1000 1000 -0.01046807 -0.01066339 -0.01074469 1000 1000 1000 -0.01039974 -0.01032048 -0.01059118 -0.01063349 -0.01060884 1000 -0.01039974 -0.01032048 -0.01059118 -0.01063349 -0.01060884 1000
lala 5 1.2 1 first 14 1 96 5 5.7 0.199998140335083 0 0 1 1 -0.01065682 -0.01050493 -0.01012486 1000 1000 1000 -0.01065682 -0.01050493 -0.01012486 1000 1000 1000 -0.009880445 -0.009822547 -0.009558642 -0.009635307 -0.009942749 1000 -0.009880445 -0.009822547 -0.009558642 -0.009635307 -0.009942749 1000
lala 4 1.2 0 first 5 1 97 6 4.380001 1.99999666213989 -1 1 -1 0 -0.01029947 -0.01035478 -0.01008163 1000 1000 1000 -0.01029947 -0.01035478 -0.01008163 1000 1000 1000 -0.009810029 -0.009679059 -0.00933248 -0.009072792 -0.008926182 1000 -0.009810029 -0.009679059 -0.00933248 -0.009072792 -0.008926182 1000
lala 10 1.2 0 first 13 1 98 4 1.72 1.89999675750732 0 1 -1 1 -0.01067806 -0.01050768 -0.01032306 1000 1000 1000 -0.01067806 -0.01050768 -0.01032306 1000 1000 1000 -0.01061265 -0.01035081 -0.01033879 -0.01057442 -0.01051783 1000 -0.01061265 -0.01035081 -0.01033879 -0.01057442 -0.01051783 1000
lala 7 1.2 1 second 6 1 99 4 5.04 0.219998121261597 1 0 1 0 -0.01050644 -0.01013009 -0.01009306 -0.009967412 -0.009588013 1000 -0.01050644 -0.01013009 -0.01009306 -0.009967412 -0.009588013 1000 -0.0114456 -0.0114423 -0.01159598 -0.0117846 -0.01202307 1000 -0.0114456 -0.0114423 -0.01159598 -0.0117846 -0.01202307 1000
lala 7 1.2 1 first 12 1 100 4 2.64 1.23999714851379 0 0 1 0 -0.01278228 -0.01306957 -0.01298439 -0.01302764 -0.01326923 -0.01316444 -0.01278228 -0.01306957 -0.01298439 -0.01302764 -0.01326923 -0.01316444 -0.04539829 -0.04170137 -0.03882146 -0.02592222 -0.01022957 1000 -0.04539829 -0.04170137 -0.03882146 -0.02592222 -0.01022957 1000
lala 9 1.2 0 second 1 1 101 4 2.92 0.419997930526733 -1 1 -1 0 -0.0238103 -0.02283491 -0.02186236 -0.02120124 -0.02024362 1000 -0.0238103 -0.02283491 -0.02186236 -0.02120124 -0.02024362 1000 -0.02149982 -0.02115063 -0.02087359 -0.02075594 -0.02091257 1000 -0.02149982 -0.02115063 -0.02087359 -0.02075594 -0.02091257 1000
lala 3 1.2 1 second 9 1 102 5 4.25 1.31999707221985 1 1 1 1 -0.02315084 -0.02313216 -0.02332212 -0.02328953 -0.02341875 1000 -0.02315084 -0.02313216 -0.02332212 -0.02328953 -0.02341875 1000 -0.02395258 -0.02362504 -0.02353714 -0.02366221 -0.02341564 1000 -0.02395258 -0.02362504 -0.02353714 -0.02366221 -0.02341564 1000
lala 3 1.2 0 second 7 1 103 4 2.92 0.379997968673706 1 1 -1 1 -0.02255677 -0.02274544 -0.02276691 -0.02271195 -0.02270269 1000 -0.02255677 -0.02274544 -0.02276691 -0.02271195 -0.02270269 1000 -0.02251003 -0.02226851 -0.0218928 -0.02189225 -0.02190223 1000 -0.02251003 -0.02226851 -0.0218928 -0.02189225 -0.02190223 1000
lala 8 1.2 0 second 8 1 104 5 1.65 1.0999972820282 1 0 -1 1 -0.02250209 -0.02277815 -0.02280819 -0.02266555 -0.02270133 1000 -0.02250209 -0.02277815 -0.02280819 -0.02266555 -0.02270133 1000 -0.02295181 -0.02300345 -0.02288065 -0.02261494 -0.02235548 1000 -0.02295181 -0.02300345 -0.02288065 -0.02261494 -0.02235548 1000
lala 3 1.2 1 second 15 1 105 5 4.25 0.179998159408569 0 1 1 0 -0.02346739 -0.02341858 -0.02347154 -0.02324566 -0.02308564 1000 -0.02346739 -0.02341858 -0.02347154 -0.02324566 -0.02308564 1000 -0.02234465 -0.02221175 -0.02240914 -0.02248761 -0.02210498 1000 -0.02234465 -0.02221175 -0.02240914 -0.02248761 -0.02210498 1000
lala 6 1.2 1 first 14 1 106 5 4.5 0.479997873306274 0 0 1 0 -0.0228769 -0.02266143 -0.02277332 1000 1000 1000 -0.0228769 -0.02266143 -0.02277332 1000 1000 1000 -0.02228798 -0.02162122 -0.02142933 -0.02197229 -0.02209423 1000 -0.02228798 -0.02162122 -0.02142933 -0.02197229 -0.02209423 1000
lala 5 1.2 0 first 2 1 107 5 3.3 1.77999687194824 -1 0 -1 0 -0.02088948 -0.02104565 -0.02132412 1000 1000 1000 -0.02088948 -0.02104565 -0.02132412 1000 1000 1000 -0.02185862 -0.02136494 -0.0214225 -0.02146912 -0.02154626 1000 -0.02185862 -0.02136494 -0.0214225 -0.02146912 -0.02154626 1000
lala 4 1.2 1 first 9 1 108 5 3.05 1.43999695777893 1 1 1 1 -0.02215976 -0.02193072 -0.02185272 1000 1000 1000 -0.02215976 -0.02193072 -0.02185272 1000 1000 1000 -0.02182917 -0.02150985 -0.02186011 -0.02359912 -0.0236099 1000 -0.02182917 -0.02150985 -0.02186011 -0.02359912 -0.0236099 1000
lala 5 1.2 0 first 9 1 109 5 1.85 0.23999810218811 1 1 -1 1 -0.01874516 -0.01686187 -0.01695512 1000 1000 1000 -0.01874516 -0.01686187 -0.01695512 1000 1000 1000 -0.01624124 -0.0164313 -0.01639296 -0.01648133 -0.01669129 1000 -0.01624124 -0.0164313 -0.01639296 -0.01648133 -0.01669129 1000
lala 4 1.2 1 first 7 1 110 4 4.12 0.119998216629028 1 1 1 1 -0.01694769 -0.01732065 -0.01689135 1000 1000 1000 -0.01694769 -0.01732065 -0.01689135 1000 1000 1000 -0.01858089 -0.01846215 -0.018294 -0.01832866 -0.01854604 1000 -0.01858089 -0.01846215 -0.018294 -0.01832866 -0.01854604 1000
lala 7 1.2 1 first 4 1 111 6 3.96 1.27999711036682 -1 0 1 0 -0.01988348 -0.01977532 -0.0193079 1000 1000 1000 -0.01988348 -0.01977532 -0.0193079 1000 1000 1000 -0.01842723 -0.01803414 -0.01801711 -0.01805902 -0.01794676 1000 -0.01842723 -0.01803414 -0.01801711 -0.01805902 -0.01794676 1000
lala 7 1.2 1 first 0 1 112 4 2.64 1.63999700546265 -1 0 1 1 -0.01825532 -0.01795974 -0.01763943 1000 1000 1000 -0.01825532 -0.01795974 -0.01763943 1000 1000 1000 -0.01742241 -0.01740088 -0.01764156 -0.0177921 -0.01776332 1000 -0.01742241 -0.01740088 -0.01764156 -0.0177921 -0.01776332 1000
lala 11 0.6 0 second 13 1 113 4 2.32 0.359997987747192 0 1 -1 0 -0.01770041 -0.01760003 -0.01766966 -0.01803861 -0.01798453 1000 -0.01770041 -0.01760003 -0.01766966 -0.01803861 -0.01798453 1000 -0.0175313 -0.01761936 -0.01737048 -0.01746777 -0.01726459 1000 -0.0175313 -0.01761936 -0.01737048 -0.01746777 -0.01726459 1000
lala 6 1.2 0 second 9 1 114 5 3.05 0.519997835159302 1 1 -1 1 -0.01688844 -0.0168431 -0.01659836 -0.01650323 -0.01666448 1000 -0.01688844 -0.0168431 -0.01659836 -0.01650323 -0.01666448 1000 -0.01703051 -0.01700837 -0.01700089 -0.01682751 -0.01700872 1000 -0.01703051 -0.01700837 -0.01700089 -0.01682751 -0.01700872 1000
lala 10 1.2 0 second 3 1 115 5 1.65 0.739997625350952 -1 1 -1 0 -0.01793155 -0.01792475 -0.01694343 -0.01618434 -0.01603705 1000 -0.01793155 -0.01792475 -0.01694343 -0.01618434 -0.01603705 1000 -0.01652595 -0.01684025 -0.01641693 -0.01630864 -0.01609609 1000 -0.01652595 -0.01684025 -0.01641693 -0.01630864 -0.01609609 1000
lala 6 1.2 1 first 16 1 116 6 2.76 1.79999685287476 0 0 1 0 -0.01685742 -0.01684671 -0.0169173 1000 1000 1000 -0.01685742 -0.01684671 -0.0169173 1000 1000 1000 -0.01686034 -0.01698661 -0.01679339 -0.01641538 -0.01632232 1000 -0.01686034 -0.01698661 -0.01679339 -0.01641538 -0.01632232 1000
lala 7 1.2 1 first 9 1 117 5 4.25 0.159998178482056 1 1 1 0 -0.01619295 -0.01602267 -0.01630002 1000 1000 1000 -0.01619295 -0.01602267 -0.01630002 1000 1000 1000 -0.01716116 -0.01684692 -0.01698283 -0.01718007 -0.01719114 1000 -0.01716116 -0.01684692 -0.01698283 -0.01718007 -0.01719114 1000
lala 7 1.2 1 second 14 1 118 5 3.3 0.599997758865356 0 0 1 0 -0.01669654 -0.01447649 -0.01411779 -0.0139278 -0.01391567 1000 -0.01669654 -0.01447649 -0.01411779 -0.0139278 -0.01391567 1000 -0.01425467 -0.01449984 -0.01478655 -0.0141505 -0.01409415 1000 -0.01425467 -0.01449984 -0.01478655 -0.0141505 -0.01409415 1000
lala 10 0.6 1 second 1 1 119 4 3.52 0.0999982357025146 -1 1 1 0 -0.01567994 -0.01485722 -0.01448034 -0.01497088 -0.01498987 1000 -0.01567994 -0.01485722 -0.01448034 -0.01497088 -0.01498987 1000 -0.01593282 -0.01559651 -0.01525645 -0.01497722 -0.01528135 1000 -0.01593282 -0.01559651 -0.01525645 -0.01497722 -0.01528135 1000
lala 8 1.2 1 second 6 1 120 4 3.84 0.23999810218811 1 0 1 1 -0.01603447 -0.01617397 -0.01606223 -0.0161833 -0.0164478 1000 -0.01603447 -0.01617397 -0.01606223 -0.0161833 -0.0164478 1000 -0.01571481 -0.0157579 -0.01577547 -0.01556304 -0.01551192 1000 -0.01571481 -0.0157579 -0.01577547 -0.01556304 -0.01551192 1000
lala 9 1.2 0 first 8 1 121 5 2.85 1.27999711036682 1 0 -1 1 -0.01572265 -0.01584527 -0.01606816 1000 1000 1000 -0.01572265 -0.01584527 -0.01606816 1000 1000 1000 -0.01558008 -0.01603978 -0.01637529 -0.01597734 -0.0159045 1000 -0.01558008 -0.01603978 -0.01637529 -0.01597734 -0.0159045 1000
lala 8 1.2 0 second 12 1 122 4 1.44 0.499997854232788 0 0 -1 1 -0.01648954 -0.01685072 -0.01676163 -0.01659796 -0.01624564 1000 -0.01648954 -0.01685072 -0.01676163 -0.01659796 -0.01624564 1000 -0.01624911 -0.01658304 -0.0166235 -0.01706689 -0.01707557 1000 -0.01624911 -0.01658304 -0.0166235 -0.01706689 -0.01707557 1000
lala 8 1.2 0 second 4 1 123 6 2.76 1.07999730110168 -1 0 -1 1 -0.0169634 -0.0171091 -0.01701728 -0.01704128 -0.01716788 1000 -0.0169634 -0.0171091 -0.01701728 -0.01704128 -0.01716788 1000 -0.0165199 -0.01653042 -0.016856 -0.01670728 -0.01703218 1000 -0.0165199 -0.01653042 -0.016856 -0.01670728 -0.01703218 1000
lala 10 1.2 1 second 8 1 124 5 4.05 0.299998044967651 1 0 1 1 -0.01622069 -0.01631652 -0.01614291 -0.01623065 -0.01578752 1000 -0.01622069 -0.01631652 -0.01614291 -0.01623065 -0.01578752 1000 -0.01605579 -0.01605823 -0.0164147 -0.01693155 -0.0162411 1000 -0.01605579 -0.01605823 -0.0164147 -0.01693155 -0.0162411 1000
lala 8 1.2 0 second 14 1 125 5 2.1 0.199998140335083 0 0 -1 0 -0.01657594 -0.01598001 -0.01548132 -0.01584307 -0.01607208 1000 -0.01657594 -0.01598001 -0.01548132 -0.01584307 -0.01607208 1000 -0.01533319 -0.01534318 -0.01546891 -0.0155036 -0.01548275 1000 -0.01533319 -0.01534318 -0.01546891 -0.0155036 -0.01548275 1000
lala 9 1.2 1 second 12 1 126 4 2.64 0.799997568130493 0 0 1 0 -0.01633753 -0.01655481 -0.01638044 -0.01637445 -0.01654475 1000 -0.01633753 -0.01655481 -0.01638044 -0.01637445 -0.01654475 1000 -0.01586401 -0.01570463 -0.01544785 -0.0153028 -0.01543134 1000 -0.01586401 -0.01570463 -0.01544785 -0.0153028 -0.01543134 1000
lala 5 1.2 1 first 5 1 127 6 5.580001 1.37999701499939 -1 1 1 0 -0.01700874 -0.01679463 -0.01717479 1000 1000 1000 -0.01700874 -0.01679463 -0.01717479 1000 1000 1000 -0.0165035 -0.01657531 -0.01638741 -0.01615406 -0.01664966 1000 -0.0165035 -0.01657531 -0.01638741 -0.01615406 -0.01664966 1000
lala 10 0.6 0 second 10 1 128 6 3.36 1.79999685287476 1 0 -1 1 -0.01735822 -0.01813186 -0.01870069 -0.01883263 -0.01895551 1000 -0.01735822 -0.01813186 -0.01870069 -0.01883263 -0.01895551 1000 -0.01998269 -0.02010574 -0.01850088 -0.0191369 -0.01903167 1000 -0.01998269 -0.02010574 -0.01850088 -0.0191369 -0.01903167 1000
lala 8 1.2 0 second 0 1 129 4 1.44 0.699997663497925 -1 0 -1 1 -0.02120352 -0.02149163 -0.02091071 -0.02087232 -0.02083058 1000 -0.02120352 -0.02149163 -0.02091071 -0.02087232 -0.02083058 1000 -0.02237176 -0.02265195 -0.02268656 -0.02275551 -0.02272901 1000 -0.02237176 -0.02265195 -0.02268656 -0.02275551 -0.02272901 1000
lala 12 0.6 1 first 13 1 130 4 2.92 0.739997625350952 0 1 1 1 -0.02510329 -0.02541553 -0.02549744 1000 1000 1000 -0.02510329 -0.02541553 -0.02549744 1000 1000 1000 -0.02363048 -0.02400987 -0.02454061 -0.02440709 -0.02436625 1000 -0.02363048 -0.02400987 -0.02454061 -0.02440709 -0.02436625 1000
lala 9 1.2 1 first 14 1 131 5 3.3 0.779997587203979 0 0 1 1 -0.02473656 -0.02491469 -0.02498695 1000 1000 1000 -0.02473656 -0.02491469 -0.02498695 1000 1000 1000 -0.02414609 -0.0234652 -0.02323698 -0.02344449 -0.02318712 1000 -0.02414609 -0.0234652 -0.02323698 -0.02344449 -0.02318712 1000
lala 11 0.3 1 second 1 1 132 4 3.22 0.439997911453247 -1 1 1 0 -0.02324794 -0.0232369 -0.02297714 -0.0227678 -0.02281672 1000 -0.02324794 -0.0232369 -0.02297714 -0.0227678 -0.02281672 1000 -0.02369596 -0.02367691 -0.02363814 -0.02346883 -0.02327798 1000 -0.02369596 -0.02367691 -0.02363814 -0.02346883 -0.02327798 1000
lala 9 1.2 1 second 6 1 133 4 2.64 0.339998006820679 1 0 1 1 -0.02362199 -0.02322025 -0.02285383 -0.02265806 -0.02237432 1000 -0.02362199 -0.02322025 -0.02285383 -0.02265806 -0.02237432 1000 -0.02357113 -0.02364694 -0.02340274 -0.0234175 -0.02349369 1000 -0.02357113 -0.02364694 -0.02340274 -0.0234175 -0.02349369 1000
lala 5 1.2 1 first 11 1 134 6 3.180001 0.419997930526733 1 1 1 1 -0.02387142 -0.02371523 -0.02321042 1000 1000 1000 -0.02387142 -0.02371523 -0.02321042 1000 1000 1000 -0.02285301 -0.02309877 -0.02317095 -0.02326345 -0.02322025 1000 -0.02285301 -0.02309877 -0.02317095 -0.02326345 -0.02322025 1000
lala 10 0.6 0 second 12 1 135 4 2.04 0.699997663497925 0 0 -1 0 -0.02243144 -0.02238274 -0.02216787 -0.02208691 -0.02234898 1000 -0.02243144 -0.02238274 -0.02216787 -0.02208691 -0.02234898 1000 -0.02166146 -0.02198776 -0.02231402 -0.02226366 -0.02230926 1000 -0.02166146 -0.02198776 -0.02231402 -0.02226366 -0.02230926 1000
lala 5 1.2 0 first 7 1 136 4 2.92 0.819997549057007 1 1 -1 1 -0.02230399 -0.02245053 -0.02271036 1000 1000 1000 -0.02230399 -0.02245053 -0.02271036 1000 1000 1000 -0.0184352 -0.01957708 -0.01973911 -0.01967864 -0.01860058 1000 -0.0184352 -0.01957708 -0.01973911 -0.01967864 -0.01860058 1000
lala 12 0.3 1 first 1 1 137 4 2.92 0.199998140335083 -1 1 1 1 -0.02106864 -0.02109541 -0.02091338 1000 1000 1000 -0.02106864 -0.02109541 -0.02091338 1000 1000 1000 -0.02256875 -0.02237578 -0.02267538 -0.02272217 -0.02273003 1000 -0.02256875 -0.02237578 -0.02267538 -0.02272217 -0.02273003 1000
lala 11 0.3 1 first 12 1 138 4 2.34 0.839997529983521 0 0 1 0 -0.02490844 -0.02532713 -0.02516173 1000 1000 1000 -0.02490844 -0.02532713 -0.02516173 1000 1000 1000 -0.01991685 -0.01997951 -0.01978363 -0.01965732 -0.01993171 1000 -0.01991685 -0.01997951 -0.01978363 -0.01965732 -0.01993171 1000
lala 6 1.2 0 first 11 1 139 6 1.980001 0.439997911453247 1 1 -1 0 -0.02231463 -0.02246851 -0.02214873 1000 1000 1000 -0.02231463 -0.02246851 -0.02214873 1000 1000 1000 -0.02246238 -0.0221764 -0.0217742 -0.02139423 -0.02151374 1000 -0.02246238 -0.0221764 -0.0217742 -0.02139423 -0.02151374 1000
lala 4 1.2 1 first 15 1 140 5 3.05 1.05999732017517 0 1 1 1 -0.02278784 -0.02296351 -0.02307826 1000 1000 1000 -0.02278784 -0.02296351 -0.02307826 1000 1000 1000 -0.02343408 -0.0233143 -0.02300352 -0.02289174 -0.02284413 1000 -0.02343408 -0.0233143 -0.02300352 -0.02289174 -0.02284413 1000
lala 11 0.3 1 first 10 1 141 6 3.66 0.459997892379761 1 0 1 1 -0.02302502 -0.02311933 -0.02269037 1000 1000 1000 -0.02302502 -0.02311933 -0.02269037 1000 1000 1000 -0.02223861 -0.02223164 -0.02225032 -0.02187313 -0.02182188 1000 -0.02223861 -0.02223164 -0.02225032 -0.02187313 -0.02182188 1000
lala 11 0.6 0 first 3 1 142 5 2.25 0.599997758865356 -1 1 -1 1 -0.02368429 -0.02372471 -0.0238178 1000 1000 1000 -0.02368429 -0.02372471 -0.0238178 1000 1000 1000 -0.02206588 -0.0217319 -0.02165809 -0.02143887 -0.02140678 1000 -0.02206588 -0.0217319 -0.02165809 -0.02143887 -0.02140678 1000
lala 10 2.4 0 first 6 1 143 4 1.32 0.339998006820679 1 0 -1 1 -0.02331037 -0.02341581 -0.02344455 1000 1000 1000 -0.02331037 -0.02341581 -0.02344455 1000 1000 1000 -0.02274365 -0.02247998 -0.02271541 -0.02257476 -0.0223434 1000 -0.02274365 -0.02247998 -0.02271541 -0.02257476 -0.0223434 1000
lala 9 1.2 1 first 0 1 144 4 2.64 0.319998025894165 -1 0 1 1 -0.02316289 -0.02339585 -0.02377519 1000 1000 1000 -0.02316289 -0.02339585 -0.02377519 1000 1000 1000 -0.0240165 -0.02384427 -0.0234014 -0.02327977 -0.02359761 1000 -0.0240165 -0.02384427 -0.0234014 -0.02327977 -0.02359761 1000
lala 6 1.2 1 first 5 1 145 6 4.380001 0.259998083114624 -1 1 1 0 -0.02355759 -0.02362895 -0.02383176 1000 1000 1000 -0.02355759 -0.02362895 -0.02383176 1000 1000 1000 -0.02448156 -0.02403535 -0.02383885 -0.0237234 -0.02343938 1000 -0.02448156 -0.02403535 -0.02383885 -0.0237234 -0.02343938 1000
lala 13 0.3 1 first 13 1 146 4 2.62 1.33999705314636 0 1 1 0 -0.02416118 -0.02369383 -0.02321125 1000 1000 1000 -0.02416118 -0.02369383 -0.02321125 1000 1000 1000 -0.0238659 -0.02379625 -0.02392327 -0.0235654 -0.02349377 1000 -0.0238659 -0.02379625 -0.02392327 -0.0235654 -0.02349377 1000
lala 11 0.6 1 second 8 1 147 5 3.45 0.679997682571411 1 0 1 0 -0.02529182 -0.0254929 -0.02560028 -0.02547537 -0.02554203 1000 -0.02529182 -0.0254929 -0.02560028 -0.02547537 -0.02554203 1000 -0.01150996 -0.00982926 -0.01127132 -0.01237057 -0.01239333 1000 -0.01150996 -0.00982926 -0.01127132 -0.01237057 -0.01239333 1000
lala 7 1.2 0 first 11 1 148 6 3.180001 0.259998083114624 1 1 -1 1 -0.01428889 -0.01445581 -0.01466762 1000 1000 1000 -0.01428889 -0.01445581 -0.01466762 1000 1000 1000 -0.0164399 -0.01613451 -0.01606915 -0.01635286 -0.01625879 1000 -0.0164399 -0.01613451 -0.01606915 -0.01635286 -0.01625879 1000
lala 7 1.2 0 first 16 1 149 6 1.98 0.0999982357025146 0 0 -1 1 -0.01660413 -0.01649087 -0.01659428 1000 1000 1000 -0.01660413 -0.01649087 -0.01659428 1000 1000 1000 -0.01707723 -0.01667099 -0.01654409 -0.01667618 -0.01698467 1000 -0.01707723 -0.01667099 -0.01654409 -0.01667618 -0.01698467 1000
lala 8 1.2 0 first 16 1 150 6 3.18 2.47999620437622 0 0 -1 1 -0.0210239 -0.0206244 -0.02081276 -0.021101 -0.02052812 -0.0203442 -0.0210239 -0.0206244 -0.02081276 -0.021101 -0.02052812 -0.0203442 -0.03006177 -0.03262427 -0.03121608 -0.03282094 -0.01051072 1000 -0.03006177 -0.03262427 -0.03121608 -0.03282094 -0.01051072 1000
lala 13 0.3 0 first 1 1 151 4 2.62 1.5399968624115 -1 1 -1 0 -0.02150361 -0.01760156 -0.01338949 1000 1000 1000 -0.02150361 -0.01760156 -0.01338949 1000 1000 1000 -0.01673981 -0.01848451 -0.01540649 -0.01049414 -0.01058898 1000 -0.01673981 -0.01848451 -0.01540649 -0.01049414 -0.01058898 1000
lala 9 1.2 1 first 16 1 152 6 4.38 0.199998140335083 0 0 1 0 -0.01131705 -0.01076921 -0.01390922 1000 1000 1000 -0.01131705 -0.01076921 -0.01390922 1000 1000 1000 -0.02072 -0.02071284 -0.0212741 -0.02165098 -0.0223625 1000 -0.02072 -0.02071284 -0.0212741 -0.02165098 -0.0223625 1000
lala 10 0.6 1 second 16 1 153 6 3.78 0.139998197555542 0 0 1 0 -0.02253922 -0.0210305 -0.01968737 -0.01771245 -0.01389711 1000 -0.02253922 -0.0210305 -0.01968737 -0.01771245 -0.01389711 1000 -0.01515413 -0.01526688 -0.01571932 -0.01503268 -0.01524735 1000 -0.01515413 -0.01526688 -0.01571932 -0.01503268 -0.01524735 1000
lala 8 1.2 0 first 11 1 154 6 4.380001 0.679997682571411 1 1 -1 0 -0.01794814 -0.0177438 -0.01896837 1000 1000 1000 -0.01794814 -0.0177438 -0.01896837 1000 1000 1000 -0.02219903 -0.02389674 -0.0266607 -0.02870916 -0.03425415 1000 -0.02219903 -0.02389674 -0.0266607 -0.02870916 -0.03425415 1000
lala 14 0.15 1 first 1 1 155 4 2.77 0.61999773979187 -1 1 1 0 -0.01797116 -0.01919975 -0.01879869 1000 1000 1000 -0.01797116 -0.01919975 -0.01879869 1000 1000 1000 -0.02013537 -0.02050057 -0.02153478 -0.02168709 -0.02065741 1000 -0.02013537 -0.02050057 -0.02153478 -0.02168709 -0.02065741 1000
lala 11 1.2 0 first 6 1 156 4 2.52 0.61999773979187 1 0 -1 1 -0.02011706 -0.02013447 -0.01952492 1000 1000 1000 -0.02011706 -0.02013447 -0.01952492 1000 1000 1000 -0.01895457 -0.01862707 -0.01889031 -0.01897138 -0.01938991 1000 -0.01895457 -0.01862707 -0.01889031 -0.01897138 -0.01938991 1000
lala 11 0.6 1 first 16 1 157 6 3.18 0.719997644424438 0 0 1 0 -0.0182855 -0.01824026 -0.01857379 1000 1000 1000 -0.0182855 -0.01824026 -0.01857379 1000 1000 1000 -0.01800339 -0.0180162 -0.01859727 -0.01853373 -0.01809082 1000 -0.01800339 -0.0180162 -0.01859727 -0.01853373 -0.01809082 1000
lala 8 1.2 1 second 9 1 158 5 3.05 0.01999831199646 1 1 1 1 -0.01892755 -0.01913933 -0.01916798 -0.01909342 -0.01903674 1000 -0.01892755 -0.01913933 -0.01916798 -0.01909342 -0.01903674 1000 -0.01776588 -0.01972279 -0.02032736 -0.02056178 -0.01996649 1000 -0.01776588 -0.01972279 -0.02032736 -0.02056178 -0.01996649 1000
lala 7 1.2 1 second 5 1 159 6 3.180001 3.05999565124512 -1 1 1 0 -0.02126894 -0.02111137 -0.02107455 -0.02131915 -0.02142933 1000 -0.02126894 -0.02111137 -0.02107455 -0.02131915 -0.02142933 1000 -0.0219733 -0.02192298 -0.02181419 -0.02156635 -0.0216665 1000 -0.0219733 -0.02192298 -0.02181419 -0.02156635 -0.0216665 1000
lala 10 0.6 0 first 14 1 160 5 2.7 0.439997911453247 0 0 -1 0 -0.01359547 -0.01336956 -0.01319535 1000 1000 1000 -0.01359547 -0.01336956 -0.01319535 1000 1000 1000 -0.01298706 -0.01350851 -0.01356015 -0.01329876 -0.01341979 1000 -0.01298706 -0.01350851 -0.01356015 -0.01329876 -0.01341979 1000
lala 9 1.2 1 first 4 1 161 6 3.96 0.159998178482056 -1 0 1 1 -0.01401593 -0.01436385 -0.01451467 1000 1000 1000 -0.01401593 -0.01436385 -0.01451467 1000 1000 1000 -0.01391078 -0.01353158 -0.01361683 -0.01374216 -0.01368316 1000 -0.01391078 -0.01353158 -0.01361683 -0.01374216 -0.01368316 1000
lala 5 1.2 0 second 15 1 162 5 1.85 0.419997930526733 0 1 -1 0 -0.01337189 -0.01298145 -0.01284214 -0.0126539 -0.01266239 1000 -0.01337189 -0.01298145 -0.01284214 -0.0126539 -0.01266239 1000 -0.009687342 -0.01255567 -0.01098809 -0.01253844 -0.01320788 1000 -0.009687342 -0.01255567 -0.01098809 -0.01253844 -0.01320788 1000
lala 12 0.6 0 second 8 1 163 5 2.85 1.25999712944031 1 0 -1 0 -0.01648222 -0.01645996 -0.01714272 -0.01693977 -0.01633796 1000 -0.01648222 -0.01645996 -0.01714272 -0.01693977 -0.01633796 1000 -0.01514346 -0.01488636 -0.0147129 -0.01439263 -0.01366876 1000 -0.01514346 -0.01488636 -0.0147129 -0.01439263 -0.01366876 1000
lala 12 1.2 1 first 6 1 164 4 3.72 0.119998216629028 1 0 1 0 -0.01464797 -0.01486541 -0.01479921 1000 1000 1000 -0.01464797 -0.01486541 -0.01479921 1000 1000 1000 -0.01493377 -0.01552984 -0.01579034 -0.01484145 -0.01465043 1000 -0.01493377 -0.01552984 -0.01579034 -0.01484145 -0.01465043 1000
lala 12 0.6 1 first 3 1 165 5 2.85 0.0999982357025146 -1 1 1 1 -0.01491008 -0.01512667 -0.01515142 1000 1000 1000 -0.01491008 -0.01512667 -0.01515142 1000 1000 1000 -0.0153832 -0.01517293 -0.01538856 -0.01523305 -0.01507208 1000 -0.0153832 -0.01517293 -0.01538856 -0.01523305 -0.01507208 1000
lala 10 0.6 0 first 4 1 166 6 3.36 0.439997911453247 -1 0 -1 1 -0.01535092 -0.01563999 -0.01599737 1000 1000 1000 -0.01535092 -0.01563999 -0.01599737 1000 1000 1000 -0.0163316 -0.01682408 -0.01699929 -0.01679329 -0.01645199 1000 -0.0163316 -0.01682408 -0.01699929 -0.01679329 -0.01645199 1000
lala 12 0.15 0 second 10 1 167 6 3.51 1.63999700546265 1 0 -1 1 -0.01547749 -0.01539133 -0.01509148 -0.01525341 -0.01554892 1000 -0.01547749 -0.01539133 -0.01509148 -0.01525341 -0.01554892 1000 -0.01528027 -0.01535232 -0.01492106 -0.01512514 -0.01522296 1000 -0.01528027 -0.01535232 -0.01492106 -0.01512514 -0.01522296 1000
lala 11 0.3 0 first 4 1 168 6 3.66 2.17999649047852 -1 0 -1 0 -0.01734738 -0.01693719 -0.01625129 1000 1000 1000 -0.01734738 -0.01693719 -0.01625129 1000 1000 1000 -0.01722972 -0.01698403 -0.01668124 -0.01644106 -0.01671856 1000 -0.01722972 -0.01698403 -0.01668124 -0.01644106 -0.01671856 1000
lala 12 0.3 1 second 4 1 169 6 3.96 1.75999689102173 -1 0 1 1 -0.01722538 -0.0171555 -0.01723685 -0.01779415 -0.01739175 1000 -0.01722538 -0.0171555 -0.01723685 -0.01779415 -0.01739175 1000 -0.01722595 -0.01705419 -0.01706147 -0.01709218 -0.0178011 1000 -0.01722595 -0.01705419 -0.01706147 -0.01709218 -0.0178011 1000
lala 6 1.2 1 second 2 1 170 5 4.5 0.879997491836548 -1 0 1 1 -0.01801436 -0.01792439 -0.01768579 -0.01795073 -0.01819019 1000 -0.01801436 -0.01792439 -0.01768579 -0.01795073 -0.01819019 1000 -0.01788652 -0.01818583 -0.01786747 -0.01780135 -0.01795311 1000 -0.01788652 -0.01818583 -0.01786747 -0.01780135 -0.01795311 1000
lala 13 0.3 0 second 8 1 171 5 3.15 0.799997568130493 1 0 -1 1 -0.01812778 -0.01818512 -0.01805503 -0.01828701 -0.01799894 1000 -0.01812778 -0.01818512 -0.01805503 -0.01828701 -0.01799894 1000 -0.01826614 -0.0182758 -0.0176461 -0.01715771 -0.01735769 1000 -0.01826614 -0.0182758 -0.0176461 -0.01715771 -0.01735769 1000
lala 13 0.075 1 first 10 1 172 6 3.585 0.779997587203979 1 0 1 0 -0.01863603 -0.01819981 -0.01814012 1000 1000 1000 -0.01863603 -0.01819981 -0.01814012 1000 1000 1000 -0.01825126 -0.01857496 -0.01874989 -0.01855514 -0.0182594 1000 -0.01825126 -0.01857496 -0.01874989 -0.01855514 -0.0182594 1000
lala 9 1.2 0 first 9 1 173 5 1.85 0.119998216629028 1 1 -1 1 -0.0198128 -0.02009015 -0.019916 1000 1000 1000 -0.0198128 -0.02009015 -0.019916 1000 1000 1000 -0.02145142 -0.02131092 -0.02077723 -0.02119569 -0.02113796 1000 -0.02145142 -0.02131092 -0.02077723 -0.02119569 -0.02113796 1000
lala 13 0.15 0 first 4 1 174 6 3.809999 0.259998083114624 -1 0 -1 1 -0.01652559 -0.01161713 -0.01178296 1000 1000 1000 -0.01652559 -0.01161713 -0.01178296 1000 1000 1000 -0.01733274 -0.0186738 -0.01674812 -0.01252027 -0.01252073 1000 -0.01733274 -0.0186738 -0.01674812 -0.01252027 -0.01252073 1000
lala 7 1.2 0 first 2 1 175 5 3.3 0.559997797012329 -1 0 -1 1 -0.02068405 -0.02225731 -0.02158515 1000 1000 1000 -0.02068405 -0.02225731 -0.02158515 1000 1000 1000 -0.01810669 -0.01741412 -0.01732632 -0.01775854 -0.01758343 1000 -0.01810669 -0.01741412 -0.01732632 -0.01775854 -0.01758343 1000
lala 15 0.075 1 first 1 1 176 4 2.695 2.63999605178833 -1 1 1 0 -0.01861975 -0.01885946 -0.01854863 1000 1000 1000 -0.01861975 -0.01885946 -0.01854863 1000 1000 1000 -0.01794518 -0.01805673 -0.01805518 -0.01814123 -0.01825436 1000 -0.01794518 -0.01805673 -0.01805518 -0.01814123 -0.01825436 1000
lala 4 1.2 1 second 17 1 177 6 4.380001 0.359997987747192 0 1 1 0 -0.02014441 -0.01953903 -0.01893171 -0.01857647 -0.01854537 1000 -0.02014441 -0.01953903 -0.01893171 -0.01857647 -0.01854537 1000 -0.01862583 -0.01869265 -0.01872614 -0.01837011 -0.01860068 1000 -0.01862583 -0.01869265 -0.01872614 -0.01837011 -0.01860068 1000
lala 11 0.3 0 first 14 1 178 5 3 0.579997777938843 0 0 -1 0 -0.02017439 -0.01967778 -0.01967981 1000 1000 1000 -0.02017439 -0.01967778 -0.01967981 1000 1000 1000 -0.01750576 -0.01738682 -0.01771999 -0.01804617 -0.01814841 1000 -0.01750576 -0.01738682 -0.01771999 -0.01804617 -0.01814841 1000
lala 6 1.2 1 first 7 1 179 4 4.12 0.159998178482056 1 1 1 1 -0.01847098 -0.01830709 -0.01820643 1000 1000 1000 -0.01847098 -0.01830709 -0.01820643 1000 1000 1000 -0.01842928 -0.01833896 -0.0183537 -0.01840848 -0.01867959 1000 -0.01842928 -0.01833896 -0.0183537 -0.01840848 -0.01867959 1000
lala 16 0.075 0 second 1 1 180 4 2.62 0.519997835159302 -1 1 -1 0 -0.02014906 -0.02010195 -0.01932218 -0.01925891 -0.01921421 1000 -0.02014906 -0.02010195 -0.01932218 -0.01925891 -0.01921421 1000 -0.01944308 -0.01969263 -0.02052788 -0.02050488 -0.01959505 1000 -0.01944308 -0.01969263 -0.02052788 -0.02050488 -0.01959505 1000
lala 13 0.6 0 first 6 1 181 4 3.12 1.07999730110168 1 0 -1 1 -0.02084485 -0.02022906 -0.02018414 1000 1000 1000 -0.02084485 -0.02022906 -0.02018414 1000 1000 1000 -0.02011964 -0.02022042 -0.02086368 -0.02078965 -0.01987435 1000 -0.02011964 -0.02022042 -0.02086368 -0.02078965 -0.01987435 1000
lala 12 0.6 1 second 16 1 182 6 2.58 1.29999709129334 0 0 1 1 -0.01942351 -0.01872934 -0.01835875 -0.01829046 -0.01843389 1000 -0.01942351 -0.01872934 -0.01835875 -0.01829046 -0.01843389 1000 -0.01965358 -0.01944767 -0.01913016 -0.01893929 -0.01901392 1000 -0.01965358 -0.01944767 -0.01913016 -0.01893929 -0.01901392 1000
lala 5 1.2 1 second 17 1 183 6 3.180001 1.07999730110168 0 1 1 1 -0.01934239 -0.01970889 -0.01964002 -0.01928221 -0.01902455 1000 -0.01934239 -0.01970889 -0.01964002 -0.01928221 -0.01902455 1000 -0.01892162 -0.01911385 -0.0187359 -0.01874703 -0.0192252 1000 -0.01892162 -0.01911385 -0.0187359 -0.01874703 -0.0192252 1000
lala 14 0.075 1 first 4 1 184 6 3.885 0.339998006820679 -1 0 1 1 -0.01942305 -0.01961618 -0.01961226 1000 1000 1000 -0.01942305 -0.01961618 -0.01961226 1000 1000 1000 -0.01952128 -0.01939484 -0.01954538 -0.01960944 -0.01966209 1000 -0.01952128 -0.01939484 -0.01954538 -0.01960944 -0.01966209 1000
lala 17 0.0375 0 first 1 1 185 4 2.6575 0.199998140335083 -1 1 -1 0 -0.0204747 -0.02013748 -0.01997981 1000 1000 1000 -0.0204747 -0.02013748 -0.01997981 1000 1000 1000 -0.02111528 -0.02084406 -0.02004113 -0.02024047 -0.02051862 1000 -0.02111528 -0.02084406 -0.02004113 -0.02024047 -0.02051862 1000
lala 13 1.2 0 first 16 1 186 6 1.98 0.61999773979187 0 0 -1 0 -0.02110661 -0.02143272 -0.02150509 1000 1000 1000 -0.02110661 -0.02143272 -0.02150509 1000 1000 1000 -0.02075711 -0.02023502 -0.02004952 -0.02086092 -0.02107765 1000 -0.02075711 -0.02023502 -0.02004952 -0.02086092 -0.02107765 1000
lala 18 0.0375 0 second 1 1 187 4 2.695 0.639997720718384 -1 1 -1 0 -0.02205014 -0.02226332 -0.02083788 -0.02115938 -0.02147579 1000 -0.02205014 -0.02226332 -0.02083788 -0.02115938 -0.02147579 1000 -0.02168643 -0.02159254 -0.02181902 -0.02196435 -0.02199462 1000 -0.02168643 -0.02159254 -0.02181902 -0.02196435 -0.02199462 1000
lala 15 0.0375 1 second 4 1 188 6 3.8475 0.299998044967651 -1 0 1 0 -0.02265984 -0.02258628 -0.02322872 -0.02362655 -0.02311295 1000 -0.02265984 -0.02258628 -0.02322872 -0.02362655 -0.02311295 1000 -0.02410215 -0.02395292 -0.023802 -0.02422143 -0.02401885 1000 -0.02410215 -0.02395292 -0.023802 -0.02422143 -0.02401885 1000
lala 14 0.3 1 first 6 1 189 4 3.42 1.23999714851379 1 0 1 1 -0.02360746 -0.02414689 -0.0239637 1000 1000 1000 -0.02360746 -0.02414689 -0.0239637 1000 1000 1000 -0.02232797 -0.02236373 -0.02197231 -0.02209475 -0.02226237 1000 -0.02232797 -0.02236373 -0.02197231 -0.02209475 -0.02226237 1000
lala 14 0.3 1 second 13 1 190 4 2.32 1.67999696731567 0 1 1 1 -0.02286103 -0.02317133 -0.02272434 -0.02243039 -0.02246332 1000 -0.02286103 -0.02317133 -0.02272434 -0.02243039 -0.02246332 1000 -0.02265683 -0.02214689 -0.02190324 -0.02230092 -0.02286156 1000 -0.02265683 -0.02214689 -0.02190324 -0.02230092 -0.02286156 1000
lala 7 1.2 1 second 7 1 191 4 2.92 0.899997472763062 1 1 1 0 -0.02398532 -0.02412093 -0.02392705 -0.0237133 -0.02328327 1000 -0.02398532 -0.02412093 -0.02392705 -0.0237133 -0.02328327 1000 -0.02318751 -0.02261902 -0.02283884 -0.0229742 -0.02289447 1000 -0.02318751 -0.02261902 -0.02283884 -0.0229742 -0.02289447 1000
lala 14 0.6 0 first 16 1 192 6 2.58 1.61999702453613 0 0 -1 1 -0.02354991 -0.02404669 -0.02414097 1000 1000 1000 -0.02354991 -0.02404669 -0.02414097 1000 1000 1000 -0.02337949 -0.02358385 -0.02348257 -0.02336489 -0.02330158 1000 -0.02337949 -0.02358385 -0.02348257 -0.02336489 -0.02330158 1000
lala 9 1.2 1 first 11 1 193 6 5.580001 0.079998254776001 1 1 1 1 -0.02420042 -0.02449123 -0.02467837 1000 1000 1000 -0.02420042 -0.02449123 -0.02467837 1000 1000 1000 -0.02382574 -0.02388579 -0.02390404 -0.02385543 -0.02405253 1000 -0.02382574 -0.02388579 -0.02390404 -0.02385543 -0.02405253 1000
lala 15 0.6 1 second 16 1 194 6 3.18 1.17999720573425 0 0 1 0 -0.02345703 -0.02289562 -0.02311629 -0.02344546 -0.02308516 1000 -0.02345703 -0.02289562 -0.02311629 -0.02344546 -0.02308516 1000 -0.02334499 -0.02356671 -0.02353795 -0.02313786 -0.02302728 1000 -0.02334499 -0.02356671 -0.02353795 -0.02313786 -0.02302728 1000
lala 16 0.3 1 second 16 1 195 6 2.88 1.29999709129334 0 0 1 1 -0.02479137 -0.02486525 -0.02536476 -0.02507431 -0.02499307 1000 -0.02479137 -0.02486525 -0.02536476 -0.02507431 -0.02499307 1000 -0.02437655 -0.02271481 -0.02222374 -0.0229975 -0.02290129 1000 -0.02437655 -0.02271481 -0.02222374 -0.0229975 -0.02290129 1000
lala 17 0.3 0 second 16 1 196 6 2.58 1.0999972820282 0 0 -1 0 -0.02316021 -0.02331467 -0.02332341 -0.02314578 -0.023427 1000 -0.02316021 -0.02331467 -0.02332341 -0.02314578 -0.023427 1000 -0.0236747 -0.02381005 -0.02354784 -0.02351475 -0.02382921 1000 -0.0236747 -0.02381005 -0.02354784 -0.02351475 -0.02382921 1000
lala 10 0.6 1 second 0 1 197 4 2.04 0.439997911453247 -1 0 1 0 -0.02405462 -0.02435593 -0.02496131 -0.02492696 -0.02506027 1000 -0.02405462 -0.02435593 -0.02496131 -0.02492696 -0.02506027 1000 -0.02389408 -0.02390657 -0.02403272 -0.02391022 -0.02345259 1000 -0.02389408 -0.02390657 -0.02403272 -0.02391022 -0.02345259 1000
lala 6 1.2 1 second 15 1 198 5 3.05 1.43999695777893 0 1 1 1 -0.02426224 -0.02413883 -0.02435291 -0.02418189 -0.024135 1000 -0.02426224 -0.02413883 -0.02435291 -0.02418189 -0.024135 1000 -0.02521693 -0.02524244 -0.02519241 -0.0252142 -0.02544597 1000 -0.02521693 -0.02524244 -0.02519241 -0.0252142 -0.02544597 1000
lala 7 1.2 0 first 15 1 199 5 1.85 0.439997911453247 0 1 -1 0 -0.02435006 -0.02424695 -0.02425512 1000 1000 1000 -0.02435006 -0.02424695 -0.02425512 1000 1000 1000 -0.02139611 -0.02137705 -0.02172636 -0.02145368 -0.02156277 1000 -0.02139611 -0.02137705 -0.02172636 -0.02145368 -0.02156277 1000
lala 10 0.6 1 second 11 1 200 6 4.980001 0.379997968673706 1 1 1 1 -0.01738186 -0.01745349 -0.01700026 -0.0170947 -0.01713609 1000 -0.01738186 -0.01745349 -0.01700026 -0.0170947 -0.01713609 1000 -0.02632615 -0.01456712 -0.004820307 -0.006563772 -0.008190258 1000 -0.02632615 -0.01456712 -0.004820307 -0.006563772 -0.008190258 1000
lala 11 0.6 0 first 0 1 201 4 1.44 0.0999982357025146 -1 0 -1 0 -0.01274523 -0.01381672 -0.0127163 1000 1000 1000 -0.01274523 -0.01381672 -0.0127163 1000 1000 1000 -0.01263949 -0.01288485 -0.01268633 -0.01234306 -0.01249274 1000 -0.01263949 -0.01288485 -0.01268633 -0.01234306 -0.01249274 1000
lala 14 0.0375 1 second 10 1 202 6 3.5475 0.339998006820679 1 0 1 1 -0.01154799 -0.01213459 -0.01308182 -0.01244258 -0.0121294 1000 -0.01154799 -0.01213459 -0.01308182 -0.01244258 -0.0121294 1000 -0.01386361 -0.01364843 -0.01355192 -0.01374428 -0.01316472 1000 -0.01386361 -0.01364843 -0.01355192 -0.01374428 -0.01316472 1000
lala 8 1.2 0 second 7 1 203 4 1.72 0.379997968673706 1 1 -1 0 -0.01435656 -0.01697086 -0.01710509 -0.01608557 -0.01542064 1000 -0.01435656 -0.01697086 -0.01710509 -0.01608557 -0.01542064 1000 -0.01547314 -0.01595499 -0.01594479 -0.01582078 -0.01597065 1000 -0.01547314 -0.01595499 -0.01594479 -0.01582078 -0.01597065 1000
lala 15 0.15 1 second 6 1 204 4 3.27 0.499997854232788 1 0 1 0 -0.01660517 -0.01630553 -0.01627837 -0.01635356 -0.01650894 1000 -0.01660517 -0.01630553 -0.01627837 -0.01635356 -0.01650894 1000 -0.01669841 -0.01718903 -0.01748825 -0.01754765 -0.01763366 1000 -0.01669841 -0.01718903 -0.01748825 -0.01754765 -0.01763366 1000
lala 8 1.2 1 second 2 1 205 5 4.5 0.159998178482056 -1 0 1 0 -0.0198653 -0.02003349 -0.01954805 -0.01961976 -0.01929032 1000 -0.0198653 -0.02003349 -0.01954805 -0.01961976 -0.01929032 1000 -0.01974524 -0.01948055 -0.01924253 -0.01932745 -0.01940076 1000 -0.01974524 -0.01948055 -0.01924253 -0.01932745 -0.01940076 1000
lala 14 0.3 1 first 8 1 206 5 3.45 0.319998025894165 1 0 1 1 -0.0202325 -0.02033317 -0.0206089 1000 1000 1000 -0.0202325 -0.02033317 -0.0206089 1000 1000 1000 -0.02013632 -0.01981652 -0.01992214 -0.02013206 -0.02007633 1000 -0.02013632 -0.01981652 -0.01992214 -0.02013206 -0.02007633 1000
lala 10 0.6 0 second 9 1 207 5 2.45 0.219998121261597 1 1 -1 0 -0.01937934 -0.01923423 -0.01940145 -0.01949119 -0.01965955 1000 -0.01937934 -0.01923423 -0.01940145 -0.01949119 -0.01965955 1000 -0.0199674 -0.02025771 -0.01997543 -0.01972996 -0.01973242 1000 -0.0199674 -0.02025771 -0.01997543 -0.01972996 -0.01973242 1000
lala 8 1.2 0 second 5 1 208 6 1.980001 0.23999810218811 -1 1 -1 0 -0.02021758 -0.01990026 -0.0203372 -0.01992939 -0.01969502 1000 -0.02021758 -0.01990026 -0.0203372 -0.01992939 -0.01969502 1000 -0.01987396 -0.01964352 -0.01970907 -0.01972011 -0.02020708 1000 -0.01987396 -0.01964352 -0.01970907 -0.01972011 -0.02020708 1000
lala 16 0.0375 1 second 4 1 209 6 3.81 0.219998121261597 -1 0 1 1 -0.01893568 -0.01805626 -0.01624526 -0.01712692 -0.01844106 1000 -0.01893568 -0.01805626 -0.01624526 -0.01712692 -0.01844106 1000 -0.01671204 -0.0171215 -0.01799042 -0.01788536 -0.01732401 1000 -0.01671204 -0.0171215 -0.01799042 -0.01788536 -0.01732401 1000
lala 11 0.6 1 first 9 1 210 5 3.05 0.61999773979187 1 1 1 1 -0.01751816 -0.01773356 -0.01789114 1000 1000 1000 -0.01751816 -0.01773356 -0.01789114 1000 1000 1000 -0.01819338 -0.01843981 -0.01834049 -0.01827717 -0.01818157 1000 -0.01819338 -0.01843981 -0.01834049 -0.01827717 -0.01818157 1000
lala 15 0.15 1 second 8 1 211 5 3.3 0.0999982357025146 1 0 1 1 -0.01977193 -0.02009366 -0.02026312 -0.02016886 -0.0202245 1000 -0.01977193 -0.02009366 -0.02026312 -0.02016886 -0.0202245 1000 -0.02090113 -0.02061722 -0.02113075 -0.02121959 -0.02119479 1000 -0.02090113 -0.02061722 -0.02113075 -0.02121959 -0.02119479 1000
lala 16 0.15 1 first 6 1 212 4 3.12 0.179998159408569 1 0 1 0 -0.01755614 -0.01807929 -0.01773176 1000 1000 1000 -0.01755614 -0.01807929 -0.01773176 1000 1000 1000 -0.02160776 -0.02167008 -0.02157772 -0.02142896 -0.0215132 1000 -0.02160776 -0.02167008 -0.02157772 -0.02142896 -0.0215132 1000
lala 9 1.2 0 second 5 1 213 6 3.180001 0.139998197555542 -1 1 -1 1 -0.02059147 -0.02023498 -0.02016026 -0.01998211 -0.01988329 1000 -0.02059147 -0.02023498 -0.02016026 -0.01998211 -0.01988329 1000 -0.0226681 -0.02258276 -0.02250614 -0.0222365 -0.02182163 1000 -0.0226681 -0.02258276 -0.02250614 -0.0222365 -0.02182163 1000
lala 19 0.0375 0 first 1 1 214 4 2.7325 0.479997873306274 -1 1 -1 1 -0.02230251 -0.02228685 -0.02192336 1000 1000 1000 -0.02230251 -0.02228685 -0.02192336 1000 1000 1000 -0.02330086 -0.0233546 -0.02342654 -0.02309191 -0.02324241 1000 -0.02330086 -0.0233546 -0.02342654 -0.02309191 -0.02324241 1000
lala 15 0.0375 1 second 10 1 215 6 3.51 0.319998025894165 1 0 1 0 -0.02178359 -0.0214018 -0.02107184 -0.02129028 -0.02128648 1000 -0.02178359 -0.0214018 -0.02107184 -0.02129028 -0.02128648 1000 -0.02228464 -0.02180494 -0.02191727 -0.02190342 -0.02179831 1000 -0.02228464 -0.02180494 -0.02191727 -0.02190342 -0.02179831 1000
lala 20 0.075 0 first 1 1 216 4 2.8075 0.319998025894165 -1 1 -1 0 -0.02236965 -0.02193707 -0.02214769 1000 1000 1000 -0.02236965 -0.02193707 -0.02214769 1000 1000 1000 -0.02280303 -0.02280109 -0.02262317 -0.02269806 -0.02241026 1000 -0.02280303 -0.02280109 -0.02262317 -0.02269806 -0.02241026 1000
lala 21 0.15 1 first 1 1 217 4 2.9575 0.719997644424438 -1 1 1 1 -0.02300214 -0.02322753 -0.02261223 1000 1000 1000 -0.02300214 -0.02322753 -0.02261223 1000 1000 1000 -0.0248329 -0.02472249 -0.02499892 -0.02439303 -0.02451754 1000 -0.0248329 -0.02472249 -0.02499892 -0.02439303 -0.02451754 1000
lala 8 1.2 1 first 15 1 218 5 3.05 0.0999982357025146 0 1 1 1 -0.02521847 -0.02521177 -0.02523508 1000 1000 1000 -0.02521847 -0.02521177 -0.02523508 1000 1000 1000 -0.02420752 -0.02448988 -0.02436355 -0.02385324 -0.02401696 1000 -0.02420752 -0.02448988 -0.02436355 -0.02385324 -0.02401696 1000
lala 9 1.2 1 first 2 1 219 5 3.3 0.639997720718384 -1 0 1 0 -0.0246517 -0.02474008 -0.0250448 1000 1000 1000 -0.0246517 -0.02474008 -0.0250448 1000 1000 1000 -0.02438412 -0.0244008 -0.02434944 -0.02445279 -0.02442942 1000 -0.02438412 -0.0244008 -0.02434944 -0.02445279 -0.02442942 1000
lala 10 1.2 1 second 5 1 220 6 4.380001 0.219998121261597 -1 1 1 1 -0.02493757 -0.02457163 -0.02460779 -0.02472841 -0.02493889 1000 -0.02493757 -0.02457163 -0.02460779 -0.02472841 -0.02493889 1000 -0.02400344 -0.02061314 -0.01600181 -0.01702793 -0.01806942 1000 -0.02400344 -0.02061314 -0.01600181 -0.01702793 -0.01806942 1000
lala 18 0.15 0 second 16 1 221 6 2.73 0.339998006820679 0 0 -1 0 -0.02045013 -0.02040092 -0.02074804 -0.02066816 -0.02100791 1000 -0.02045013 -0.02040092 -0.02074804 -0.02066816 -0.02100791 1000 -0.02283371 -0.02267432 -0.02240909 -0.02239789 -0.0226719 1000 -0.02283371 -0.02267432 -0.02240909 -0.02239789 -0.0226719 1000
lala 9 1.2 0 first 7 1 222 4 2.92 0.0999982357025146 1 1 -1 0 -0.02394022 -0.02487992 -0.02621322 1000 1000 1000 -0.02394022 -0.02487992 -0.02621322 1000 1000 1000 -0.02055769 -0.01937726 -0.01784631 -0.0161561 -0.01578053 1000 -0.02055769 -0.01937726 -0.01784631 -0.0161561 -0.01578053 1000
lala 9 1.2 0 second 15 1 223 5 1.85 0.199998140335083 0 1 -1 1 -0.01046166 -0.00983114 -0.009791426 -0.01000509 -0.01034292 1000 -0.01046166 -0.00983114 -0.009791426 -0.01000509 -0.01034292 1000 -0.01361006 -0.01367584 -0.01395391 -0.01398996 -0.01425591 1000 -0.01361006 -0.01367584 -0.01395391 -0.01398996 -0.01425591 1000
lala 11 0.6 1 second 11 1 224 6 4.380001 0.219998121261597 1 1 1 0 -0.01522604 -0.01506598 -0.01519021 -0.01486817 -0.01488846 1000 -0.01522604 -0.01506598 -0.01519021 -0.01486817 -0.01488846 1000 -0.01481906 -0.01510824 -0.01518329 -0.01518718 -0.01504336 1000 -0.01481906 -0.01510824 -0.01518329 -0.01518718 -0.01504336 1000
lala 6 1.2 0 second 17 1 225 6 1.980001 0.61999773979187 0 1 -1 0 -0.01644328 -0.01641171 -0.01666926 -0.0167131 -0.01663308 1000 -0.01644328 -0.01641171 -0.01666926 -0.0167131 -0.01663308 1000 -0.01735625 -0.01708579 -0.01694754 -0.01724533 -0.01725245 1000 -0.01735625 -0.01708579 -0.01694754 -0.01724533 -0.01725245 1000
lala 16 0.0375 1 second 10 1 226 6 3.4725 0.119998216629028 1 0 1 1 -0.01712719 -0.01688459 -0.01710995 -0.01731826 -0.01760125 1000 -0.01712719 -0.01688459 -0.01710995 -0.01731826 -0.01760125 1000 -0.01726671 -0.01683996 -0.01632179 -0.01610637 -0.01661342 1000 -0.01726671 -0.01683996 -0.01632179 -0.01610637 -0.01661342 1000
lala 10 1.2 0 second 7 1 227 4 4.12 0.159998178482056 1 1 -1 0 -0.01680096 -0.01698628 -0.01736102 -0.01718594 -0.01672501 1000 -0.01680096 -0.01698628 -0.01736102 -0.01718594 -0.01672501 1000 -0.01749361 -0.01745886 -0.01683104 -0.01654235 -0.01662414 1000 -0.01749361 -0.01745886 -0.01683104 -0.01654235 -0.01662414 1000
lala 12 0.3 0 second 14 1 228 5 3.3 0.39999794960022 0 0 -1 0 -0.0168284 -0.0168598 -0.0168034 -0.01670123 -0.01698835 1000 -0.0168284 -0.0168598 -0.0168034 -0.01670123 -0.01698835 1000 -0.01803126 -0.01735641 -0.01712173 -0.01735207 -0.01710348 1000 -0.01803126 -0.01735641 -0.01712173 -0.01735207 -0.01710348 1000
lala 15 0.3 1 second 13 1 229 4 2.02 0.219998121261597 0 1 1 0 -0.01584983 -0.01623221 -0.01615205 -0.01645613 -0.01636343 1000 -0.01584983 -0.01623221 -0.01615205 -0.01645613 -0.01636343 1000 -0.0162972 -0.01505504 -0.01531097 -0.01628473 -0.016899 1000 -0.0162972 -0.01505504 -0.01531097 -0.01628473 -0.016899 1000
lala 12 0.3 0 second 0 1 230 4 1.74 0.359997987747192 -1 0 -1 1 -0.01902717 -0.019903 -0.01968171 -0.01807117 -0.01794052 1000 -0.01902717 -0.019903 -0.01968171 -0.01807117 -0.01794052 1000 -0.01814041 -0.01815732 -0.01792383 -0.01763006 -0.01706297 1000 -0.01814041 -0.01815732 -0.01792383 -0.01763006 -0.01706297 1000
lala 12 0.3 0 first 9 1 231 5 2.75 0.61999773979187 1 1 -1 1 -0.01644187 -0.01658562 -0.01634759 1000 1000 1000 -0.01644187 -0.01658562 -0.01634759 1000 1000 1000 -0.01700635 -0.01598877 -0.01617971 -0.01663567 -0.01641649 1000 -0.01700635 -0.01598877 -0.01617971 -0.01663567 -0.01641649 1000
lala 10 0.6 1 second 15 1 232 5 2.45 0.359997987747192 0 1 1 0 -0.01684342 -0.01593246 -0.01360566 -0.01326403 -0.01363574 1000 -0.01684342 -0.01593246 -0.01360566 -0.01326403 -0.01363574 1000 -0.01635703 -0.01595732 -0.01587555 -0.0162139 -0.01644134 1000 -0.01635703 -0.01595732 -0.01587555 -0.0162139 -0.01644134 1000
lala 16 0.6 0 second 13 1 233 4 1.42 0.299998044967651 0 1 -1 0 -0.01682774 -0.01619923 -0.01573196 -0.0160688 -0.01593605 1000 -0.01682774 -0.01619923 -0.01573196 -0.0160688 -0.01593605 1000 -0.01642676 -0.01619712 -0.01618331 -0.01664879 -0.01661904 1000 -0.01642676 -0.01619712 -0.01618331 -0.01664879 -0.01661904 1000
lala 13 0.3 1 first 0 1 234 4 2.04 3.09999561309814 -1 0 1 0 -0.01740946 -0.01695133 -0.01688125 1000 1000 1000 -0.01740946 -0.01695133 -0.01688125 1000 1000 1000 -0.01677999 -0.01704856 -0.01658239 -0.01736403 -0.01780839 1000 -0.01677999 -0.01704856 -0.01658239 -0.01736403 -0.01780839 1000
lala 13 0.3 1 second 14 1 235 5 3.6 0.39999794960022 0 0 1 1 -0.01989551 -0.01975888 -0.01947758 -0.01913552 -0.01966457 1000 -0.01989551 -0.01975888 -0.01947758 -0.01913552 -0.01966457 1000 -0.0221069 -0.02138538 -0.02139124 -0.02119358 -0.02175278 1000 -0.0221069 -0.02138538 -0.02139124 -0.02119358 -0.02175278 1000
lala 19 0.15 0 first 16 1 236 6 2.88 0.299998044967651 0 0 -1 0 -0.02200665 -0.0220347 -0.02211215 1000 1000 1000 -0.02200665 -0.0220347 -0.02211215 1000 1000 1000 -0.02330574 -0.02314547 -0.02295274 -0.0232194 -0.0230972 1000 -0.02330574 -0.02314547 -0.02295274 -0.0232194 -0.0230972 1000
lala 10 1.2 0 second 2 1 237 5 2.1 0.39999794960022 -1 0 -1 0 -0.02529444 -0.02530494 -0.02455553 -0.02423671 -0.02421639 1000 -0.02529444 -0.02530494 -0.02455553 -0.02423671 -0.02421639 1000 -0.02391024 -0.02368008 -0.02374407 -0.02347341 -0.02352568 1000 -0.02391024 -0.02368008 -0.02374407 -0.02347341 -0.02352568 1000
lala 13 0.3 0 first 3 1 238 5 2.55 0.419997930526733 -1 1 -1 1 -0.02462359 -0.02408366 -0.02351405 1000 1000 1000 -0.02462359 -0.02408366 -0.02351405 1000 1000 1000 -0.02152411 -0.02138414 -0.02171014 -0.02139207 -0.02167974 1000 -0.02152411 -0.02138414 -0.02171014 -0.02139207 -0.02167974 1000
lala 7 1.2 1 second 17 1 239 6 3.180001 0.539997816085815 0 1 1 1 -0.02281127 -0.02309402 -0.02297372 -0.02308161 -0.0228146 1000 -0.02281127 -0.02309402 -0.02297372 -0.02308161 -0.0228146 1000 -0.02368429 -0.02391743 -0.02411259 -0.0239894 -0.02363131 1000 -0.02368429 -0.02391743 -0.02411259 -0.0239894 -0.02363131 1000
lala 17 0.3 0 second 13 1 240 4 1.72 0.23999810218811 0 1 -1 0 -0.02399045 -0.02378245 -0.02322293 -0.02320269 -0.02356794 1000 -0.02399045 -0.02378245 -0.02322293 -0.02320269 -0.02356794 1000 -0.02323446 -0.02333684 -0.0238624 -0.02365924 -0.02353801 1000 -0.02323446 -0.02333684 -0.0238624 -0.02365924 -0.02353801 1000
lala 12 0.6 1 second 11 1 241 6 3.780001 0.179998159408569 1 1 1 0 -0.02225804 -0.02237008 -0.02249764 -0.02222768 -0.02264598 1000 -0.02225804 -0.02237008 -0.02249764 -0.02222768 -0.02264598 1000 -0.02276873 -0.0228689 -0.02309234 -0.02332494 -0.02352 1000 -0.02276873 -0.0228689 -0.02309234 -0.02332494 -0.02352 1000
lala 11 2.4 1 second 7 1 242 4 6.52 1.17999720573425 1 1 1 0 -0.01932646 -0.01980293 -0.01848749 -0.01770586 -0.01885359 1000 -0.01932646 -0.01980293 -0.01848749 -0.01770586 -0.01885359 1000 -0.01925717 -0.01955412 -0.02019439 -0.0211219 -0.0211641 1000 -0.01925717 -0.01955412 -0.02019439 -0.0211219 -0.0211641 1000
lala 11 0.6 1 second 5 1 243 6 3.780001 0.859997510910034 -1 1 1 0 -0.02280661 -0.0233788 -0.0233906 -0.02383794 -0.02375495 1000 -0.02280661 -0.0233788 -0.0233906 -0.02383794 -0.02375495 1000 -0.0242901 -0.02397726 -0.02449468 -0.02540287 -0.02543302 1000 -0.0242901 -0.02397726 -0.02449468 -0.02540287 -0.02543302 1000
lala 17 0.0375 1 second 4 1 244 6 3.7725 1.35999703407288 -1 0 1 0 -0.01518738 -0.01669394 -0.01767834 -0.01851253 -0.01865754 1000 -0.01518738 -0.01669394 -0.01767834 -0.01851253 -0.01865754 1000 -0.01972882 -0.02098605 -0.02121182 -0.02122711 -0.02102968 1000 -0.01972882 -0.02098605 -0.02121182 -0.02122711 -0.02102968 1000
lala 22 0.075 1 second 1 1 245 4 2.8825 0.419997930526733 -1 1 1 1 -0.01837897 -0.01817247 -0.01691022 -0.0169198 -0.01762032 1000 -0.01837897 -0.01817247 -0.01691022 -0.0169198 -0.01762032 1000 -0.02010421 -0.01931748 -0.01948896 -0.01987206 -0.01986709 1000 -0.02010421 -0.01931748 -0.01948896 -0.01987206 -0.01986709 1000
lala 17 0.075 1 first 10 1 246 6 3.3975 1.31999707221985 1 0 1 1 -0.02222106 -0.02218379 -0.0223172 1000 1000 1000 -0.02222106 -0.02218379 -0.0223172 1000 1000 1000 -0.02554913 -0.02636769 -0.02653733 -0.02703811 -0.02720631 1000 -0.02554913 -0.02636769 -0.02653733 -0.02703811 -0.02720631 1000
lala 12 0.6 0 second 5 1 247 6 3.180001 0.259998083114624 -1 1 -1 1 -0.01579533 -0.01657231 -0.01712715 -0.01769969 -0.01772755 1000 -0.01579533 -0.01657231 -0.01712715 -0.01769969 -0.01772755 1000 -0.01926664 -0.01965434 -0.0195998 -0.02064337 -0.02066583 1000 -0.01926664 -0.01965434 -0.0195998 -0.02064337 -0.02066583 1000
lala 16 0.15 1 second 8 1 248 5 3.15 0.779997587203979 1 0 1 0 -0.02151729 -0.02225037 -0.02252594 -0.02313261 -0.02332594 1000 -0.02151729 -0.02225037 -0.02252594 -0.02313261 -0.02332594 1000 -0.02437045 -0.0242471 -0.02464545 -0.02541455 -0.02635361 1000 -0.02437045 -0.0242471 -0.02464545 -0.02541455 -0.02635361 1000
lala 18 0.3 1 second 13 1 249 4 2.02 0.459997892379761 0 1 1 1 -0.01901692 -0.01891086 -0.01894176 -0.01933423 -0.0200523 1000 -0.01901692 -0.01891086 -0.01894176 -0.01933423 -0.0200523 1000 -0.02085208 -0.02129828 -0.02107701 -0.02098741 -0.02106431 1000 -0.02085208 -0.02129828 -0.02107701 -0.02098741 -0.02106431 1000
lala 13 0.15 1 first 9 1 250 5 2.9 1.49999690055847 1 1 1 1 -0.01545849 -0.02822696 -0.02881993 -0.02453935 -0.01482891 -0.003665619 -0.01545849 -0.02822696 -0.02881993 -0.02453935 -0.01482891 -0.003665619 -0.01258211 -0.01272476 -0.01262875 -0.01229918 -0.01237543 1000 -0.01258211 -0.01272476 -0.01262875 -0.01229918 -0.01237543 1000
lala 14 0.075 1 first 9 1 251 5 2.825 1.07999730110168 1 1 1 0 -0.01860395 -0.01852321 -0.01831046 1000 1000 1000 -0.01860395 -0.01852321 -0.01831046 1000 1000 1000 -0.02007962 -0.01978597 -0.01999163 -0.0198338 -0.01962808 1000 -0.02007962 -0.01978597 -0.01999163 -0.0198338 -0.01962808 1000
lala 17 0.15 0 second 8 1 252 5 3 0.539997816085815 1 0 -1 1 -0.02442521 -0.02535987 -0.02473623 -0.02412252 -0.02406513 1000 -0.02442521 -0.02535987 -0.02473623 -0.02412252 -0.02406513 1000 -0.02406258 -0.0241913 -0.02420521 -0.0240711 -0.02401988 1000 -0.02406258 -0.0241913 -0.02420521 -0.0240711 -0.02401988 1000
lala 8 1.2 0 first 17 1 253 6 1.980001 0.0399982929229736 0 1 -1 1 -0.01949313 -0.005211375 -0.004429307 1000 1000 1000 -0.01949313 -0.005211375 -0.004429307 1000 1000 1000 -0.006904158 -0.006987401 -0.007142589 -0.006874036 -0.006888703 1000 -0.006904158 -0.006987401 -0.007142589 -0.006874036 -0.006888703 1000
lala 18 0.075 0 second 8 1 254 5 3.075 0.359997987747192 1 0 -1 0 -0.01034355 -0.01033722 -0.01072499 -0.01067978 -0.01086758 1000 -0.01034355 -0.01033722 -0.01072499 -0.01067978 -0.01086758 1000 -0.01283455 -0.01247801 -0.0117146 -0.01134435 -0.01158821 1000 -0.01283455 -0.01247801 -0.0117146 -0.01134435 -0.01158821 1000
lala 13 1.2 0 second 11 1 255 6 2.580001 0.159998178482056 1 1 -1 1 -0.01375996 -0.01350245 -0.01352598 -0.01308476 -0.01300679 1000 -0.01375996 -0.01350245 -0.01352598 -0.01308476 -0.01300679 1000 -0.01406995 -0.0137993 -0.01366268 -0.01338295 -0.01318025 1000 -0.01406995 -0.0137993 -0.01366268 -0.01338295 -0.01318025 1000
lala 14 0.6 1 first 11 1 256 6 3.180001 0.159998178482056 1 1 1 0 -0.0135361 -0.01280424 -0.01235251 1000 1000 1000 -0.0135361 -0.01280424 -0.01235251 1000 1000 1000 -0.01407088 -0.01362591 -0.01367256 -0.01352989 -0.01353609 1000 -0.01407088 -0.01362591 -0.01367256 -0.01352989 -0.01353609 1000
lala 14 0.15 1 second 14 1 257 5 3.45 0.539997816085815 0 0 1 0 -0.01429479 -0.01441191 -0.01424052 -0.01374948 -0.01392766 1000 -0.01429479 -0.01441191 -0.01424052 -0.01374948 -0.01392766 1000 -0.01185178 -0.01193466 -0.01245289 -0.01257342 -0.01260077 1000 -0.01185178 -0.01193466 -0.01245289 -0.01257342 -0.01260077 1000
lala 17 0.15 1 second 6 1 258 4 2.97 0.859997510910034 1 0 1 1 -0.01426059 -0.01432878 -0.01422725 -0.01419912 -0.01449094 1000 -0.01426059 -0.01432878 -0.01422725 -0.01419912 -0.01449094 1000 -0.01387877 -0.01376893 -0.01398846 -0.01399431 -0.01374519 1000 -0.01387877 -0.01376893 -0.01398846 -0.01399431 -0.01374519 1000
lala 12 1.2 1 second 7 1 259 4 5.32 0.219998121261597 1 1 1 0 -0.01712364 -0.0174384 -0.01729353 -0.01711144 -0.01749214 1000 -0.01712364 -0.0174384 -0.01729353 -0.01711144 -0.01749214 1000 -0.01670052 -0.01672473 -0.01645695 -0.01609466 -0.01631203 1000 -0.01670052 -0.01672473 -0.01645695 -0.01609466 -0.01631203 1000
lala 15 0.075 1 second 9 1 260 5 2.75 0.719997644424438 1 1 1 1 -0.01869765 -0.01848487 -0.01849456 -0.01830217 -0.01810583 1000 -0.01869765 -0.01848487 -0.01849456 -0.01830217 -0.01810583 1000 -0.0181556 -0.01845059 -0.0185045 -0.01824492 -0.01807611 1000 -0.0181556 -0.01845059 -0.0185045 -0.01824492 -0.01807611 1000
lala 15 0.3 0 first 11 1 261 6 2.880001 0.199998140335083 1 1 -1 0 -0.01912364 -0.01903803 -0.01862397 1000 1000 1000 -0.01912364 -0.01903803 -0.01862397 1000 1000 1000 -0.02083463 -0.02075702 -0.0205977 -0.02056413 -0.02075358 1000 -0.02083463 -0.02075702 -0.0205977 -0.02056413 -0.02075358 1000
lala 23 0.075 0 second 1 1 262 4 2.8075 0.279998064041138 -1 1 -1 0 -0.02016255 -0.02016242 -0.02027557 -0.02024921 -0.02014611 1000 -0.02016255 -0.02016242 -0.02027557 -0.02024921 -0.02014611 1000 -0.0213998 -0.02142565 -0.02147054 -0.02125005 -0.02095957 1000 -0.0213998 -0.02142565 -0.02147054 -0.02125005 -0.02095957 1000
lala 16 0.15 1 second 11 1 263 6 3.030001 0.819997549057007 1 1 1 1 -0.02153511 -0.021829 -0.02183498 -0.02157724 -0.02164013 1000 -0.02153511 -0.021829 -0.02183498 -0.02157724 -0.02164013 1000 -0.02091475 -0.02070487 -0.02039916 -0.02062576 -0.02049699 1000 -0.02091475 -0.02070487 -0.02039916 -0.02062576 -0.02049699 1000
lala 14 0.15 0 first 3 1 264 5 2.7 0.299998044967651 -1 1 -1 0 -0.02269332 -0.02192118 -0.02179698 1000 1000 1000 -0.02269332 -0.02192118 -0.02179698 1000 1000 1000 -0.02227211 -0.02225209 -0.02198721 -0.0220859 -0.02196483 1000 -0.02227211 -0.02225209 -0.02198721 -0.0220859 -0.02196483 1000
lala 17 0.075 1 second 11 1 265 6 2.955001 0.559997797012329 1 1 1 1 -0.02308389 -0.0240183 -0.0242979 -0.02297232 -0.02208401 1000 -0.02308389 -0.0240183 -0.0242979 -0.02297232 -0.02208401 1000 -0.03073284 -0.02760229 -0.02235311 -0.01750756 -0.01602216 1000 -0.03073284 -0.02760229 -0.02235311 -0.01750756 -0.01602216 1000
lala 24 0.0375 0 first 1 1 266 4 2.845 0.199998140335083 -1 1 -1 1 -0.01464143 -0.0142733 -0.01469358 1000 1000 1000 -0.01464143 -0.0142733 -0.01469358 1000 1000 1000 -0.01716007 -0.01726905 -0.01730449 -0.01738479 -0.01780421 1000 -0.01716007 -0.01726905 -0.01730449 -0.01738479 -0.01780421 1000
lala 13 1.2 1 second 7 1 267 4 4.12 0.299998044967651 1 1 1 1 -0.01633045 -0.01634187 -0.0161777 -0.01624764 -0.016413 1000 -0.01633045 -0.01634187 -0.0161777 -0.01624764 -0.016413 1000 -0.01674752 -0.01665646 -0.01649266 -0.01652025 -0.01686784 1000 -0.01674752 -0.01665646 -0.01649266 -0.01652025 -0.01686784 1000
lala 18 0.075 0 second 11 1 268 6 2.880001 0.299998044967651 1 1 -1 0 -0.01643419 -0.0159913 -0.01585843 -0.01589752 -0.0154116 1000 -0.01643419 -0.0159913 -0.01585843 -0.01589752 -0.0154116 1000 -0.01552757 -0.01583768 -0.01546897 -0.01554203 -0.0155754 1000 -0.01552757 -0.01583768 -0.01546897 -0.01554203 -0.0155754 1000
lala 18 0.075 0 first 4 1 269 6 3.6975 0.579997777938843 -1 0 -1 1 -0.0168243 -0.01777965 -0.01731616 1000 1000 1000 -0.0168243 -0.01777965 -0.01731616 1000 1000 1000 -0.01743945 -0.01744519 -0.01732492 -0.01647701 -0.01616712 1000 -0.01743945 -0.01744519 -0.01732492 -0.01647701 -0.01616712 1000
lala 14 1.2 1 first 7 1 270 4 2.92 0.779997587203979 1 1 1 1 -0.01878393 -0.01875726 -0.01873088 1000 1000 1000 -0.01878393 -0.01875726 -0.01873088 1000 1000 1000 -0.0212567 -0.02081867 -0.02084848 -0.0209597 -0.02098012 1000 -0.0212567 -0.02081867 -0.02084848 -0.0209597 -0.02098012 1000
lala 16 0.075 0 first 9 1 271 5 2.675 0.079998254776001 1 1 -1 1 -0.0214993 -0.02142343 -0.02117702 1000 1000 1000 -0.0214993 -0.02142343 -0.02117702 1000 1000 1000 -0.02174149 -0.02167456 -0.02174467 -0.0217696 -0.02180364 1000 -0.02174149 -0.02167456 -0.02174467 -0.0217696 -0.02180364 1000
lala 14 0.15 0 second 0 1 272 4 1.89 0.0399982929229736 -1 0 -1 1 -0.02282323 -0.02302023 -0.02319165 -0.02286362 -0.02240218 1000 -0.02282323 -0.02302023 -0.02319165 -0.02286362 -0.02240218 1000 -0.02237564 -0.02249485 -0.02236208 -0.02212944 -0.02227986 1000 -0.02237564 -0.02249485 -0.02236208 -0.02212944 -0.02227986 1000
lala 20 0.15 0 second 16 1 273 6 3.03 0.159998178482056 0 0 -1 0 -0.02228447 -0.02238273 -0.02234211 -0.02194136 -0.02159072 1000 -0.02228447 -0.02238273 -0.02234211 -0.02194136 -0.02159072 1000 -0.02225184 -0.02259861 -0.02232756 -0.02208256 -0.02225425 1000 -0.02225184 -0.02259861 -0.02232756 -0.02208256 -0.02225425 1000
lala 15 2.4 0 first 7 1 274 4 1.32 0.079998254776001 1 1 -1 0 -0.02124538 -0.02136995 -0.02164113 1000 1000 1000 -0.02124538 -0.02136995 -0.02164113 1000 1000 1000 -0.02231415 -0.02224895 -0.02206518 -0.02195413 -0.02211467 1000 -0.02231415 -0.02224895 -0.02206518 -0.02195413 -0.02211467 1000
lala 19 0.15 0 second 13 1 275 4 1.87 0.179998159408569 0 1 -1 0 -0.02263112 -0.02247207 -0.02219797 -0.02201875 -0.02206083 1000 -0.02263112 -0.02247207 -0.02219797 -0.02201875 -0.02206083 1000 -0.02192529 -0.02177854 -0.02174858 -0.02178043 -0.02201802 1000 -0.02192529 -0.02177854 -0.02174858 -0.02178043 -0.02201802 1000
lala 13 0.3 1 first 5 1 276 6 3.480001 1.43999695777893 -1 1 1 0 -0.0209005 -0.02089291 -0.02142987 1000 1000 1000 -0.0209005 -0.02089291 -0.02142987 1000 1000 1000 -0.02266982 -0.02234617 -0.02227517 -0.02211489 -0.0219845 1000 -0.02266982 -0.02234617 -0.02227517 -0.02211489 -0.0219845 1000
lala 12 0.15 0 second 12 1 277 4 2.19 0.539997816085815 0 0 -1 0 -0.02322519 -0.02342414 -0.0232501 -0.02319187 -0.02346652 1000 -0.02322519 -0.02342414 -0.0232501 -0.02319187 -0.02346652 1000 -0.02301018 -0.02288622 -0.02283196 -0.02284437 -0.02285494 1000 -0.02301018 -0.02288622 -0.02283196 -0.02284437 -0.02285494 1000
lala 19 0.075 1 second 8 1 278 5 3.15 0.39999794960022 1 0 1 0 -0.02337938 -0.02347061 -0.02334209 -0.02332225 -0.0236721 1000 -0.02337938 -0.02347061 -0.02334209 -0.02332225 -0.0236721 1000 -0.02492989 -0.02458878 -0.02416482 -0.02437952 -0.02445028 1000 -0.02492989 -0.02458878 -0.02416482 -0.02437952 -0.02445028 1000
lala 20 0.0375 0 first 8 1 279 5 3.1125 0.159998178482056 1 0 -1 0 -0.02475496 -0.02452345 -0.0240676 1000 1000 1000 -0.02475496 -0.02452345 -0.0240676 1000 1000 1000 -0.02326333 -0.02326556 -0.02301724 -0.02301623 -0.02346968 1000 -0.02326333 -0.02326556 -0.02301724 -0.02301623 -0.02346968 1000
lala 15 0.15 1 second 14 1 280 5 3.299999 0.01999831199646 0 0 1 1 -0.0007138106 -0.002259311 -0.003324677 -0.004367332 -0.00390834 1000 -0.0007138106 -0.002259311 -0.003324677 -0.004367332 -0.00390834 1000 -0.00238709 -0.002877128 -0.003094263 -0.002258296 -0.002458953 1000 -0.00238709 -0.002877128 -0.003094263 -0.002258296 -0.002458953 1000
lala 11 0.6 0 first 2 1 281 5 2.7 1.83999681472778 -1 0 -1 0 -0.007935488 -0.008007918 -0.007512868 1000 1000 1000 -0.007935488 -0.008007918 -0.007512868 1000 1000 1000 -0.02277481 -0.0102777 -0.003373142 -0.004166794 -0.004528892 1000 -0.02277481 -0.0102777 -0.003373142 -0.004166794 -0.004528892 1000
lala 17 0.0375 0 first 9 1 282 5 2.7125 0.839997529983521 1 1 -1 1 -0.01543924 -0.01557322 -0.01584588 1000 1000 1000 -0.01543924 -0.01557322 -0.01584588 1000 1000 1000 -0.01839705 -0.01817752 -0.0177163 -0.01797778 -0.01807722 1000 -0.01839705 -0.01817752 -0.0177163 -0.01797778 -0.01807722 1000
lala 21 0.3 0 first 16 1 283 6 3.33 0.559997797012329 0 0 -1 1 -0.02103524 -0.0203705 -0.01939938 1000 1000 1000 -0.02103524 -0.0203705 -0.01939938 1000 1000 1000 -0.01792773 -0.01803176 -0.01817581 -0.0183121 -0.01813908 1000 -0.01792773 -0.01803176 -0.01817581 -0.0183121 -0.01813908 1000
lala 22 0.6 1 first 16 1 284 6 3.93 0.499997854232788 0 0 1 0 -0.02048911 -0.02075282 -0.0200235 1000 1000 1000 -0.02048911 -0.02075282 -0.0200235 1000 1000 1000 -0.01983863 -0.01953328 -0.0190666 -0.01900878 -0.01919391 1000 -0.01983863 -0.01953328 -0.0190666 -0.01900878 -0.01919391 1000
lala 9 1.2 0 second 17 1 285 6 3.180001 0.39999794960022 0 1 -1 1 -0.0202718 -0.0204621 -0.02061744 -0.02044787 -0.02055967 1000 -0.0202718 -0.0204621 -0.02061744 -0.02044787 -0.02055967 1000 -0.02273645 -0.0226116 -0.02260973 -0.0228983 -0.02330789 1000 -0.02273645 -0.0226116 -0.02260973 -0.0228983 -0.02330789 1000
lala 14 0.15 0 second 5 1 286 6 3.330001 0.419997930526733 -1 1 -1 0 -0.01519734 -0.01698109 -0.01683742 -0.01683928 -0.01653422 1000 -0.01519734 -0.01698109 -0.01683742 -0.01683928 -0.01653422 1000 -0.01621331 -0.0164404 -0.01624793 -0.01561318 -0.01589774 1000 -0.01621331 -0.0164404 -0.01624793 -0.01561318 -0.01589774 1000
lala 18 0.0375 1 first 9 1 287 5 2.75 0.659997701644897 1 1 1 0 -0.01964826 -0.01933569 -0.01967254 1000 1000 1000 -0.01964826 -0.01933569 -0.01967254 1000 1000 1000 -0.01964959 -0.02025359 -0.02024073 -0.02027087 -0.02045118 1000 -0.01964959 -0.02025359 -0.02024073 -0.02027087 -0.02045118 1000
lala 16 1.2 1 second 7 1 288 4 2.52 1.81999683380127 1 1 1 0 -0.02161547 -0.02186716 -0.02219552 -0.02263098 -0.02262574 1000 -0.02161547 -0.02186716 -0.02219552 -0.02263098 -0.02262574 1000 -0.02213575 -0.02158934 -0.02142631 -0.02182 -0.02205856 1000 -0.02213575 -0.02158934 -0.02142631 -0.02182 -0.02205856 1000
lala 15 0.075 0 second 0 1 289 4 1.965 0.459997892379761 -1 0 -1 1 -0.02430798 -0.02364727 -0.02309694 -0.02286687 -0.02310011 1000 -0.02430798 -0.02364727 -0.02309694 -0.02286687 -0.02310011 1000 -0.02449924 -0.02477398 -0.02473264 -0.02450719 -0.0240695 1000 -0.02449924 -0.02477398 -0.02473264 -0.02450719 -0.0240695 1000
lala 20 0.075 0 second 13 1 290 4 1.945 1.63999700546265 0 1 -1 1 -0.02457281 -0.02451476 -0.02440531 -0.0242644 -0.0242639 1000 -0.02457281 -0.02451476 -0.02440531 -0.0242644 -0.0242639 1000 -0.02426858 -0.02438895 -0.02419216 -0.02402981 -0.02431125 1000 -0.02426858 -0.02438895 -0.02419216 -0.02402981 -0.02431125 1000
lala 11 0.3 0 second 15 1 291 5 2.15 0.359997987747192 0 1 -1 0 -0.02392697 -0.0236864 -0.02339439 -0.02330029 -0.02320272 1000 -0.02392697 -0.0236864 -0.02339439 -0.02330029 -0.02320272 1000 -0.02329158 -0.02338992 -0.02332276 -0.02323822 -0.02362688 1000 -0.02329158 -0.02338992 -0.02332276 -0.02323822 -0.02362688 1000
lala 17 0.6 0 first 7 1 292 4 1.92 0.0399982929229736 1 1 -1 0 -0.02376379 -0.02370895 -0.02358238 1000 1000 1000 -0.02376379 -0.02370895 -0.02358238 1000 1000 1000 -0.02428918 -0.02442145 -0.02428372 -0.02384191 -0.02387338 1000 -0.02428918 -0.02442145 -0.02428372 -0.02384191 -0.02387338 1000
lala 19 0.0375 0 first 4 1 293 6 3.735 0.39999794960022 -1 0 -1 0 -0.02439599 -0.02470503 -0.02435518 1000 1000 1000 -0.02439599 -0.02470503 -0.02435518 1000 1000 1000 -0.02364065 -0.02389286 -0.02392968 -0.02357541 -0.02371676 1000 -0.02364065 -0.02389286 -0.02392968 -0.02357541 -0.02371676 1000
lala 19 0.0375 0 first 11 1 294 6 2.917501 1.35999703407288 1 1 -1 0 -0.02415991 -0.0241228 -0.024049 1000 1000 1000 -0.02415991 -0.0241228 -0.024049 1000 1000 1000 -0.02423606 -0.0241148 -0.02388636 -0.02406128 -0.02422111 1000 -0.02423606 -0.0241148 -0.02388636 -0.02406128 -0.02422111 1000
lala 18 0.3 0 second 7 1 295 4 2.22 0.259998083114624 1 1 -1 1 -0.02419875 -0.02401962 -0.02403782 -0.02416075 -0.02404276 1000 -0.02419875 -0.02401962 -0.02403782 -0.02416075 -0.02404276 1000 -0.02350499 -0.02373232 -0.02377265 -0.02365024 -0.0237208 1000 -0.02350499 -0.02373232 -0.02377265 -0.02365024 -0.0237208 1000
lala 15 0.15 0 second 3 1 296 5 2.85 0.159998178482056 -1 1 -1 0 -0.02496704 -0.02461735 -0.02414724 -0.02404092 -0.02383569 1000 -0.02496704 -0.02461735 -0.02414724 -0.02404092 -0.02383569 1000 -0.02489027 -0.02503717 -0.02471953 -0.02500395 -0.02510527 1000 -0.02489027 -0.02503717 -0.02471953 -0.02500395 -0.02510527 1000
lala 20 0.0375 0 first 4 1 297 6 3.7725 2.41999626159668 -1 0 -1 1 -0.02461126 -0.02414084 -0.02386749 1000 1000 1000 -0.02461126 -0.02414084 -0.02386749 1000 1000 1000 -0.02397769 -0.02383877 -0.02379659 -0.02383897 -0.02409376 1000 -0.02397769 -0.02383877 -0.02379659 -0.02383897 -0.02409376 1000
lala 18 0.15 1 second 10 1 298 6 3.2475 0.279998064041138 1 0 1 1 -0.0238185 -0.02377577 -0.02317857 -0.02333068 -0.02365494 1000 -0.0238185 -0.02377577 -0.02317857 -0.02333068 -0.02365494 1000 -0.02459705 -0.02466431 -0.02483486 -0.02504187 -0.02473209 1000 -0.02459705 -0.02466431 -0.02483486 -0.02504187 -0.02473209 1000
lala 12 0.6 1 first 2 1 299 5 3.3 0.359997987747192 -1 0 1 1 -0.02485612 -0.0245366 -0.02456148 1000 1000 1000 -0.02485612 -0.0245366 -0.02456148 1000 1000 1000 -0.01843241 -0.01863719 -0.01890479 -0.01874397 -0.01892367 1000 -0.01843241 -0.01863719 -0.01890479 -0.01874397 -0.01892367 1000
lala 21 0.075 1 first 13 1 300 4 2.02 0.679997682571411 0 1 1 0 -0.02167848 -0.01760605 -0.01805432 -0.01888565 -0.01866367 -0.01945272 -0.02167848 -0.01760605 -0.01805432 -0.01888565 -0.01866367 -0.01945272 -0.01752671 -0.01742428 -0.01770012 -0.01729792 -0.01681739 1000 -0.01752671 -0.01742428 -0.01770012 -0.01729792 -0.01681739 1000
lala 16 0.15 1 first 14 1 301 5 3.149999 0.219998121261597 0 0 1 0 -0.01829227 -0.01812885 -0.01834543 1000 1000 1000 -0.01829227 -0.01812885 -0.01834543 1000 1000 1000 -0.0171037 -0.01714084 -0.01715742 -0.01695145 -0.01704336 1000 -0.0171037 -0.01714084 -0.01715742 -0.01695145 -0.01704336 1000
lala 21 0.0375 0 first 4 1 302 6 3.809999 0.279998064041138 -1 0 -1 1 -0.01754236 -0.01747193 -0.01755685 1000 1000 1000 -0.01754236 -0.01747193 -0.01755685 1000 1000 1000 -0.01784892 -0.01755617 -0.01720828 -0.01701765 -0.01698422 1000 -0.01784892 -0.01755617 -0.01720828 -0.01701765 -0.01698422 1000
lala 16 0.075 0 second 0 1 303 4 2.04 0.219998121261597 -1 0 -1 1 -0.01749343 -0.01743024 -0.0174852 -0.01747897 -0.01737714 1000 -0.01749343 -0.01743024 -0.0174852 -0.01747897 -0.01737714 1000 -0.01764776 -0.0176935 -0.01786926 -0.01800434 -0.0180299 1000 -0.01764776 -0.0176935 -0.01786926 -0.01800434 -0.0180299 1000
lala 15 0.075 0 first 5 1 304 6 3.405001 0.359997987747192 -1 1 -1 1 -0.01745502 -0.0174843 -0.01720628 1000 1000 1000 -0.01745502 -0.0174843 -0.01720628 1000 1000 1000 -0.01775446 -0.01739823 -0.01754082 -0.01799123 -0.01805685 1000 -0.01775446 -0.01739823 -0.01754082 -0.01799123 -0.01805685 1000
lala 25 0.0375 1 first 1 1 305 4 2.8825 1.8599967956543 -1 1 1 1 -0.02011349 -0.01992164 -0.01963582 1000 1000 1000 -0.02011349 -0.01992164 -0.01963582 1000 1000 1000 -0.01819618 -0.01834746 -0.0182265 -0.01827425 -0.01827367 1000 -0.01819618 -0.01834746 -0.0182265 -0.01827425 -0.01827367 1000
lala 21 0.01875 1 second 8 1 306 5 3.13125 0.419997930526733 1 0 1 0 -0.02140297 -0.02118362 -0.02146593 -0.02172434 -0.02184738 1000 -0.02140297 -0.02118362 -0.02146593 -0.02172434 -0.02184738 1000 -0.02226428 -0.0222492 -0.02212441 -0.02207579 -0.02197212 1000 -0.02226428 -0.0222492 -0.02212441 -0.02207579 -0.02197212 1000
lala 10 1.2 1 second 17 1 307 6 4.380001 0.119998216629028 0 1 1 0 -0.02407098 -0.02400774 -0.02364601 -0.02318658 -0.02256751 1000 -0.02407098 -0.02400774 -0.02364601 -0.02318658 -0.02256751 1000 -0.02239982 -0.02387947 -0.02342183 -0.02358898 -0.02358394 1000 -0.02239982 -0.02387947 -0.02342183 -0.02358898 -0.02358394 1000
lala 26 0.01875 0 second 1 1 308 4 2.86375 0.299998044967651 -1 1 -1 1 -0.02059262 -0.0229172 -0.02031366 -0.02174676 -0.02190237 1000 -0.02059262 -0.0229172 -0.02031366 -0.02174676 -0.02190237 1000 -0.0233704 -0.02317626 -0.0227437 -0.02284051 -0.02269302 1000 -0.0233704 -0.02317626 -0.0227437 -0.02284051 -0.02269302 1000
lala 22 0.009375 0 second 8 1 309 5 3.121875 1.27999711036682 1 0 -1 1 -0.02395422 -0.02439653 -0.02800173 -0.03067147 -0.03218709 1000 -0.02395422 -0.02439653 -0.02800173 -0.03067147 -0.03218709 1000 -0.02036334 -0.02026431 -0.01988653 -0.02001679 -0.02032161 1000 -0.02036334 -0.02026431 -0.01988653 -0.02001679 -0.02032161 1000
lala 13 0.3 0 second 2 1 310 5 3 0.439997911453247 -1 0 -1 0 -0.02486673 -0.02415304 -0.02357507 -0.02333367 -0.02314942 1000 -0.02486673 -0.02415304 -0.02357507 -0.02333367 -0.02314942 1000 -0.02224954 -0.02254902 -0.02242489 -0.02222352 -0.0225746 1000 -0.02224954 -0.02254902 -0.02242489 -0.02222352 -0.0225746 1000
lala 13 0.075 1 first 12 1 311 4 2.265 0.599997758865356 0 0 1 1 -0.02390818 -0.02434868 -0.02311415 1000 1000 1000 -0.02390818 -0.02434868 -0.02311415 1000 1000 1000 -0.00253562 0.001253036 0.003382206 0.006567933 0.00178005 1000 -0.00253562 0.001253036 0.003382206 0.006567933 0.00178005 1000
lala 11 0.6 1 first 17 1 312 6 3.780001 0.119998216629028 0 1 1 0 -0.008736962 -0.007884513 -0.005573895 1000 1000 1000 -0.008736962 -0.007884513 -0.005573895 1000 1000 1000 -0.0003984441 -0.0005220023 -0.0007498154 -0.0006748477 -0.000604808 1000 -0.0003984441 -0.0005220023 -0.0007498154 -0.0006748477 -0.000604808 1000
lala 17 0.075 1 first 0 1 313 4 2.115 1.51999688148499 -1 0 1 0 -0.002344337 -0.002021547 -0.001727311 1000 1000 1000 -0.002344337 -0.002021547 -0.001727311 1000 1000 1000 -0.003561352 -0.00403263 -0.004496672 -0.004100046 -0.003813917 1000 -0.003561352 -0.00403263 -0.004496672 -0.004100046 -0.003813917 1000
lala 17 0.3 1 second 14 1 314 5 2.849999 0.61999773979187 0 0 1 0 -0.004634491 -0.007185245 -0.006326894 -0.006709121 -0.007606017 1000 -0.004634491 -0.007185245 -0.006326894 -0.006709121 -0.007606017 1000 -0.006095358 -0.005802033 -0.006028784 -0.005774584 -0.00567505 1000 -0.006095358 -0.005802033 -0.006028784 -0.005774584 -0.00567505 1000
lala 14 0.15 0 first 2 1 315 5 3.15 0.519997835159302 -1 0 -1 1 -0.005931125 -0.00579689 -0.00594818 1000 1000 1000 -0.005931125 -0.00579689 -0.00594818 1000 1000 1000 -0.008075641 -0.007522602 -0.007000645 -0.007056289 -0.007156454 1000 -0.008075641 -0.007522602 -0.007000645 -0.007056289 -0.007156454 1000
lala 19 0.3 1 second 10 1 316 6 2.9475 6.36001062393188 1 0 1 1 -0.008545232 -0.008433245 -0.008465149 -0.008372088 -0.008078862 1000 -0.008545232 -0.008433245 -0.008465149 -0.008372088 -0.008078862 1000 -0.00915885 -0.009488596 -0.009514125 -0.009400156 -0.009507341 1000 -0.00915885 -0.009488596 -0.009514125 -0.009400156 -0.009507341 1000
lala 23 0.0046875 0 second 8 1 317 5 3.126563 1.45999693870544 1 0 -1 0 -0.01606961 -0.01633879 -0.01594993 -0.01551182 -0.01590005 1000 -0.01606961 -0.01633879 -0.01594993 -0.01551182 -0.01590005 1000 -0.01618239 -0.0167099 -0.01688155 -0.01661876 -0.01648516 1000 -0.01618239 -0.0167099 -0.01688155 -0.01661876 -0.01648516 1000
lala 23 0.3 1 first 16 1 318 6 3.63 0.01999831199646 0 0 1 1 -0.01854209 -0.01850839 -0.01848116 1000 1000 1000 -0.01854209 -0.01850839 -0.01848116 1000 1000 1000 -0.0207896 -0.02105728 -0.0210728 -0.02100369 -0.02125651 1000 -0.0207896 -0.02105728 -0.0210728 -0.02100369 -0.02125651 1000
lala 19 0.3 0 second 7 1 319 4 2.52 0.579997777938843 1 1 -1 0 -0.02203071 -0.02292372 -0.02306643 -0.02319562 -0.02417769 1000 -0.02203071 -0.02292372 -0.02306643 -0.02319562 -0.02417769 1000 -0.02363125 -0.02376643 -0.02373459 -0.0232203 -0.02290973 1000 -0.02363125 -0.02376643 -0.02373459 -0.0232203 -0.02290973 1000
