subject PestNr Step_Size_OnTrial Pest_Faster Pest_Interval Condition block trial velH velH_Pest Reaction_Time velH_Subject Start_Above Response_MotionEstimation RightOrLeftxRotations_first0 xRotations_first1 xRotations_first2 xRotations_first3 xRotations_first4 xRotations_first5 yRotations_first0 yRotations_first1 yRotations_first2 yRotations_first3 yRotations_first4 yRotations_first5 xRotations_second0 xRotations_second1 xRotations_second2 xRotations_second3 xRotations_second4 xRotations_second5 yRotations_second0 yRotations_second1 yRotations_second2 yRotations_second3 yRotations_second4 yRotations_second5
lala 1 1.2 0 second 12 1 1 4 2.64 0.39999794960022 0 0 -1 1 -0.0004645628 -0.001549654 -0.001977922 -0.002373241 -0.002290404 1000 -0.0004645628 -0.001549654 -0.001977922 -0.002373241 -0.002290404 1000 -0.003870386 -0.003527158 -0.003629111 -0.004006004 -0.004290844 1000 -0.003870386 -0.003527158 -0.003629111 -0.004006004 -0.004290844 1000
lala 1 1.2 1 second 3 1 2 5 6.65 0.319998025894165 -1 1 1 0 -0.005289049 -0.00515449 -0.004404446 -0.003653673 -0.00360785 1000 -0.005289049 -0.00515449 -0.004404446 -0.003653673 -0.00360785 1000 -0.003668279 -0.003254377 -0.002078891 -0.002471528 -0.002638648 1000 -0.003668279 -0.003254377 -0.002078891 -0.002471528 -0.002638648 1000
lala 2 1.2 1 second 3 1 3 5 5.45 0.519997835159302 -1 1 1 0 -0.003582809 -0.003346294 -0.00313307 -0.003107064 -0.002652994 1000 -0.003582809 -0.003346294 -0.00313307 -0.003107064 -0.002652994 1000 -0.002495628 -0.002337423 -0.002866172 -0.002741531 -0.002370118 1000 -0.002495628 -0.002337423 -0.002866172 -0.002741531 -0.002370118 1000
lala 1 1.2 0 first 10 1 4 6 3.96 0.959997415542603 1 0 -1 1 -0.001627469 -0.00155775 -0.001572692 1000 1000 1000 -0.001627469 -0.00155775 -0.001572692 1000 1000 1000 -0.00103413 -0.0006509434 -0.0008867626 -0.00117866 -0.0009742057 1000 -0.00103413 -0.0006509434 -0.0008867626 -0.00117866 -0.0009742057 1000
lala 1 1.2 0 first 7 1 5 4 5.32 1.31999707221985 1 1 -1 0 -0.001028755 -0.001537001 -0.002020814 1000 1000 1000 -0.001028755 -0.001537001 -0.002020814 1000 1000 1000 -0.001045789 -0.001011518 -0.0008703981 -0.0009767954 -0.000924978 1000 -0.001045789 -0.001011518 -0.0008703981 -0.0009767954 -0.000924978 1000
lala 2 1.2 1 second 10 1 6 6 5.16 0.659997701644897 1 0 1 0 -0.001799855 -0.001601418 -0.001584386 -0.001663669 -0.001550116 1000 -0.001799855 -0.001601418 -0.001584386 -0.001663669 -0.001550116 1000 -0.0006837184 -0.0004412828 -0.0002342385 -0.0007369047 -0.0006683215 1000 -0.0006837184 -0.0004412828 -0.0002342385 -0.0007369047 -0.0006683215 1000
lala 3 1.2 0 second 3 1 7 5 4.25 0.299998044967651 -1 1 -1 0 -0.0008377682 -0.0009096068 -0.0002473137 3.558497E-05 2.120837E-05 1000 -0.0008377682 -0.0009096068 -0.0002473137 3.558497E-05 2.120837E-05 1000 -0.001444206 -0.001277929 -0.001346886 -0.001322261 -0.001405585 1000 -0.001444206 -0.001277929 -0.001346886 -0.001322261 -0.001405585 1000
lala 1 1.2 1 second 8 1 8 5 3.3 0.499997854232788 1 0 1 1 -0.0009693354 -0.00100143 -0.001024714 -0.0009367063 -0.0006827849 1000 -0.0009693354 -0.00100143 -0.001024714 -0.0009367063 -0.0006827849 1000 -0.001645685 -0.001740579 -0.001753812 -0.002479464 -0.002648947 1000 -0.001645685 -0.001740579 -0.001753812 -0.002479464 -0.002648947 1000
lala 1 1.2 1 second 4 1 9 6 3.96 0.459997892379761 -1 0 1 0 -0.001617076 -0.0009951676 -0.0003563527 -0.0005098191 -0.0007761943 1000 -0.001617076 -0.0009951676 -0.0003563527 -0.0005098191 -0.0007761943 1000 -0.001703491 -0.001765886 -0.001478869 -0.001225166 -0.001341123 1000 -0.001703491 -0.001765886 -0.001478869 -0.001225166 -0.001341123 1000
lala 4 1.2 0 second 3 1 10 5 5.45 0.23999810218811 -1 1 -1 1 -0.001670143 -0.00193764 -0.00187507 -0.001757355 -0.001767445 1000 -0.001670143 -0.00193764 -0.00187507 -0.001757355 -0.001767445 1000 -0.002750311 -0.003068157 -0.003051371 -0.002632364 -0.002603813 1000 -0.002750311 -0.003068157 -0.003051371 -0.002632364 -0.002603813 1000
lala 5 1.2 1 first 3 1 11 5 6.65 4.0599946975708 -1 1 1 0 -0.002356157 -0.00230445 -0.002761425 1000 1000 1000 -0.002356157 -0.00230445 -0.002761425 1000 1000 1000 -0.001848388 -0.001588806 -0.001512186 -0.002220885 -0.00243208 1000 -0.001848388 -0.001588806 -0.001512186 -0.002220885 -0.00243208 1000
lala 2 1.2 0 first 8 1 12 5 2.1 0.859997510910034 1 0 -1 1 -0.0029254 -0.002800542 -0.003173977 1000 1000 1000 -0.0029254 -0.002800542 -0.003173977 1000 1000 1000 -0.001853241 -0.001882218 -0.001858538 -0.001933394 -0.002089634 1000 -0.001853241 -0.001882218 -0.001858538 -0.001933394 -0.002089634 1000
lala 1 1.2 1 first 5 1 13 6 7.98 0.39999794960022 -1 1 1 1 -0.001507796 -0.001578677 -0.00145286 1000 1000 1000 -0.001507796 -0.001578677 -0.00145286 1000 1000 1000 -0.002195103 -0.00173998 -0.001426986 -0.001779676 -0.001872111 1000 -0.002195103 -0.00173998 -0.001426986 -0.001779676 -0.001872111 1000
lala 3 1.2 1 first 8 1 14 5 3.3 0.859997510910034 1 0 1 1 -0.00137223 -0.001400973 -0.002126422 1000 1000 1000 -0.00137223 -0.001400973 -0.002126422 1000 1000 1000 -0.00248262 -0.002016435 -0.001359935 -0.001590872 -0.001952951 1000 -0.00248262 -0.002016435 -0.001359935 -0.001590872 -0.001952951 1000
lala 1 1.2 1 second 16 1 15 6 3.96 1.13999724388123 0 0 1 0 -0.001765365 -0.001848458 -0.001966617 -0.002155995 -0.002287162 1000 -0.001765365 -0.001848458 -0.001966617 -0.002155995 -0.002287162 1000 -0.001840413 -0.002217023 -0.00233825 -0.002493114 -0.002305778 1000 -0.001840413 -0.002217023 -0.00233825 -0.002493114 -0.002305778 1000
lala 1 1.2 1 first 17 1 16 6 7.98 0.119998216629028 0 1 1 1 -0.002129698 -0.002149062 -0.002881691 1000 1000 1000 -0.002129698 -0.002149062 -0.002881691 1000 1000 1000 -0.002044802 -0.001724447 -0.001779062 -0.002055393 -0.00202249 1000 -0.002044802 -0.001724447 -0.001779062 -0.002055393 -0.00202249 1000
lala 6 1.2 1 second 3 1 17 5 5.45 0.259998083114624 -1 1 1 1 -0.002308382 -0.002286013 -0.002336638 -0.002664287 -0.001942134 1000 -0.002308382 -0.002286013 -0.002336638 -0.002664287 -0.001942134 1000 -0.001716189 -0.002145404 -0.001537778 -0.00154635 -0.001766216 1000 -0.001716189 -0.002145404 -0.001537778 -0.00154635 -0.001766216 1000
lala 2 1.2 1 first 5 1 18 6 6.780001 0.23999810218811 -1 1 1 1 -0.002731307 -0.003365807 -0.00252522 1000 1000 1000 -0.002731307 -0.003365807 -0.00252522 1000 1000 1000 -0.005754127 -0.006350818 -0.005502636 -0.005810851 -0.00632908 1000 -0.005754127 -0.006350818 -0.005502636 -0.005810851 -0.00632908 1000
lala 1 1.2 0 second 2 1 19 5 3.3 0.919997453689575 -1 0 -1 0 -0.006614968 -0.006834335 -0.006878302 -0.006532019 -0.006583307 1000 -0.006614968 -0.006834335 -0.006878302 -0.006532019 -0.006583307 1000 -0.007147374 -0.007417795 -0.007810407 -0.007349654 -0.007098735 1000 -0.007147374 -0.007417795 -0.007810407 -0.007349654 -0.007098735 1000
lala 3 1.2 0 first 10 1 20 6 3.96 1.45999693870544 1 0 -1 1 -0.007666853 -0.007770378 -0.007730081 1000 1000 1000 -0.007666853 -0.007770378 -0.007730081 1000 1000 1000 -0.006889044 -0.007549065 -0.007406411 -0.006749745 -0.006551031 1000 -0.006889044 -0.007549065 -0.007406411 -0.006749745 -0.006551031 1000
lala 1 1.2 1 first 13 1 21 4 5.32 0.819997549057007 0 1 1 1 -0.005930463 -0.006285382 -0.006141578 1000 1000 1000 -0.005930463 -0.006285382 -0.006141578 1000 1000 1000 -0.004927848 -0.004875442 -0.004259729 -0.004130883 -0.004404583 1000 -0.004927848 -0.004875442 -0.004259729 -0.004130883 -0.004404583 1000
lala 1 1.2 1 first 15 1 22 5 6.65 0.679997682571411 0 1 1 0 -0.005688218 -0.005517486 -0.005490227 1000 1000 1000 -0.005688218 -0.005517486 -0.005490227 1000 1000 1000 -0.005375056 -0.005452769 -0.005252682 -0.005002896 -0.004952857 1000 -0.005375056 -0.005452769 -0.005252682 -0.005002896 -0.004952857 1000
lala 2 1.2 0 first 16 1 23 6 2.76 0.259998083114624 0 0 -1 0 -0.00517934 -0.005432378 -0.005604265 1000 1000 1000 -0.00517934 -0.005432378 -0.005604265 1000 1000 1000 -0.005598055 -0.005500577 -0.005506612 -0.005695135 -0.005685518 1000 -0.005598055 -0.005500577 -0.005506612 -0.005695135 -0.005685518 1000
lala 3 1.2 0 first 16 1 24 6 3.96 0.339998006820679 0 0 -1 0 -0.005417228 -0.005311313 -0.005312149 1000 1000 1000 -0.005417228 -0.005311313 -0.005312149 1000 1000 1000 -0.005219874 -0.00511672 -0.005095743 -0.005216609 -0.005026836 1000 -0.005219874 -0.00511672 -0.005095743 -0.005216609 -0.005026836 1000
lala 2 1.2 1 first 15 1 25 5 5.45 0.719997644424438 0 1 1 1 -0.005540693 -0.005551882 -0.005493937 1000 1000 1000 -0.005540693 -0.005551882 -0.005493937 1000 1000 1000 -0.004405438 -0.00454615 -0.005126304 -0.004577305 -0.004768724 1000 -0.004405438 -0.00454615 -0.005126304 -0.004577305 -0.004768724 1000
lala 2 1.2 1 second 7 1 26 4 6.52 0.459997892379761 1 1 1 1 -0.005025768 -0.004959513 -0.005289845 -0.005277878 -0.004727898 1000 -0.005025768 -0.004959513 -0.005289845 -0.005277878 -0.004727898 1000 -0.005052667 -0.00465849 -0.005021545 -0.004954679 -0.004846916 1000 -0.005052667 -0.00465849 -0.005021545 -0.004954679 -0.004846916 1000
lala 3 1.2 0 first 7 1 27 4 5.320001 2.35999631881714 1 1 -1 1 -0.005020441 -0.005087478 -0.005057592 1000 1000 1000 -0.005020441 -0.005087478 -0.005057592 1000 1000 1000 -0.003924921 -0.003848179 -0.00419981 -0.00426056 -0.003889828 1000 -0.003924921 -0.003848179 -0.00419981 -0.00426056 -0.003889828 1000
lala 2 1.2 1 first 12 1 28 4 3.84 2.37999629974365 0 0 1 1 -0.00364083 -0.003669934 -0.003891554 1000 1000 1000 -0.00364083 -0.003669934 -0.003891554 1000 1000 1000 -0.004040049 -0.001607602 -0.002759522 -0.005317615 -0.006817899 1000 -0.004040049 -0.001607602 -0.002759522 -0.005317615 -0.006817899 1000
lala 2 1.2 1 first 2 1 29 5 4.5 0.479997873306274 -1 0 1 1 0.005470676 0.005459166 0.005351256 1000 1000 1000 0.005470676 0.005459166 0.005351256 1000 1000 1000 0.006549888 0.007319664 0.007039704 0.006933697 0.007587322 1000 0.006549888 0.007319664 0.007039704 0.006933697 0.007587322 1000
lala 3 1.2 1 first 15 1 30 5 4.25 0.279998064041138 0 1 1 1 0.007199562 0.007654221 0.007261663 1000 1000 1000 0.007199562 0.007654221 0.007261663 1000 1000 1000 0.008122987 0.00808651 0.008466466 0.007749609 0.008493449 1000 0.008122987 0.00808651 0.008466466 0.007749609 0.008493449 1000
lala 4 1.2 0 first 8 1 31 5 2.1 0.719997644424438 1 0 -1 0 0.009038275 0.00937571 0.009181509 1000 1000 1000 0.009038275 0.00937571 0.009181509 1000 1000 1000 0.01029174 0.009992583 0.01020045 0.01058173 0.01060395 1000 0.01029174 0.009992583 0.01020045 0.01058173 0.01060395 1000
lala 5 1.2 0 second 8 1 32 5 3.3 0.659997701644897 1 0 -1 1 0.01149487 0.01116572 0.01149897 0.01186427 0.01204814 1000 0.01149487 0.01116572 0.01149897 0.01186427 0.01204814 1000 0.0119806 0.01292848 0.01292145 0.01237884 0.01213556 1000 0.0119806 0.01292848 0.01292145 0.01237884 0.01213556 1000
lala 6 1.2 1 second 8 1 33 5 4.5 0.319998025894165 1 0 1 0 0.01336049 0.01312208 0.01386708 0.01369987 0.01339427 1000 0.01336049 0.01312208 0.01386708 0.01369987 0.01339427 1000 0.01253079 0.01225751 0.01183304 0.01236186 0.01227823 1000 0.01253079 0.01225751 0.01183304 0.01236186 0.01227823 1000
lala 7 1.2 1 first 3 1 34 5 4.25 0.259998083114624 -1 1 1 1 0.01232485 0.01241217 0.01283927 1000 1000 1000 0.01232485 0.01241217 0.01283927 1000 1000 1000 0.01279297 0.01235427 0.01253267 0.0124503 0.01256764 1000 0.01279297 0.01235427 0.01253267 0.0124503 0.01256764 1000
lala 2 1.2 1 first 13 1 35 4 4.12 0.559997797012329 0 1 1 0 0.01335227 0.01335696 0.01321653 1000 1000 1000 0.01335227 0.01335696 0.01321653 1000 1000 1000 0.01376542 0.01341662 0.01307506 0.01329255 0.0138166 1000 0.01376542 0.01341662 0.01307506 0.01329255 0.0138166 1000
lala 8 1.2 0 second 3 1 36 5 3.05 0.879997491836548 -1 1 -1 0 0.01438688 0.01443811 0.01464705 0.01426724 0.01435442 1000 0.01438688 0.01443811 0.01464705 0.01426724 0.01435442 1000 0.015302 0.01526409 0.01538781 0.01543529 0.01535803 1000 0.015302 0.01526409 0.01538781 0.01543529 0.01535803 1000
lala 2 1.2 1 second 4 1 37 6 2.76 0.939997434616089 -1 0 1 0 0.01501902 0.01498366 0.01485114 0.01538413 0.01564224 1000 0.01501902 0.01498366 0.01485114 0.01538413 0.01564224 1000 0.01333199 0.01317636 0.0130805 0.01334974 0.01387372 1000 0.01333199 0.01317636 0.0130805 0.01334974 0.01387372 1000
lala 4 1.2 0 second 10 1 38 6 5.16 0.299998044967651 1 0 -1 0 0.01407547 0.01433245 0.0138845 0.01341918 0.01353056 1000 0.01407547 0.01433245 0.0138845 0.01341918 0.01353056 1000 0.01479079 0.01494163 0.01487477 0.01433521 0.01475616 1000 0.01479079 0.01494163 0.01487477 0.01433521 0.01475616 1000
lala 4 1.2 1 second 16 1 39 6 5.16 0.299998044967651 0 0 1 0 0.01560616 0.01559036 0.0156936 0.01549087 0.0158809 1000 0.01560616 0.01559036 0.0156936 0.01549087 0.0158809 1000 0.01567473 0.01588959 0.01568826 0.01539605 0.01522045 1000 0.01567473 0.01588959 0.01568826 0.01539605 0.01522045 1000
lala 5 1.2 1 first 16 1 40 6 3.96 0.0599982738494873 0 0 1 0 0.0155115 0.01595229 0.01612973 1000 1000 1000 0.0155115 0.01595229 0.01612973 1000 1000 1000 0.01592808 0.01633731 0.01652236 0.01605842 0.01566992 1000 0.01592808 0.01633731 0.01652236 0.01605842 0.01566992 1000
lala 7 1.2 0 second 8 1 41 5 3.3 1.31999707221985 1 0 -1 1 0.01622258 0.01594746 0.01614993 0.01628516 0.01662594 1000 0.01622258 0.01594746 0.01614993 0.01628516 0.01662594 1000 0.01685031 0.01736465 0.01733485 0.01682534 0.01712721 1000 0.01685031 0.01736465 0.01733485 0.01682534 0.01712721 1000
lala 1 1.2 1 first 11 1 42 6 7.98 0.23999810218811 1 1 1 0 0.01652407 0.01693796 0.01682609 1000 1000 1000 0.01652407 0.01693796 0.01682609 1000 1000 1000 0.01644283 0.01631737 0.01618618 0.01631605 0.01681964 1000 0.01644283 0.01631737 0.01618618 0.01631605 0.01681964 1000
lala 3 1.2 1 second 5 1 43 6 5.580001 0.119998216629028 -1 1 1 0 0.01705793 0.01747268 0.01770639 0.01777369 0.01792195 1000 0.01705793 0.01747268 0.01770639 0.01777369 0.01792195 1000 0.01644005 0.01719522 0.01819066 0.01761847 0.01711537 1000 0.01644005 0.01719522 0.01819066 0.01761847 0.01711537 1000
lala 1 1.2 1 second 6 1 44 4 2.64 1.13999724388123 1 0 1 1 0.01782123 0.01753348 0.01798019 0.01864908 0.0183613 1000 0.01782123 0.01753348 0.01798019 0.01864908 0.0183613 1000 0.01439212 0.0120537 0.01596855 0.0177303 0.01666767 1000 0.01439212 0.0120537 0.01596855 0.0177303 0.01666767 1000
lala 1 1.2 0 second 0 1 45 4 2.64 0.01999831199646 -1 0 -1 0 0.007852603 0.00822412 0.01025219 0.01104158 0.01006544 1000 0.007852603 0.00822412 0.01025219 0.01104158 0.01006544 1000 0.006124218 0.007224849 0.008221068 0.007839469 0.007356188 1000 0.006124218 0.007224849 0.008221068 0.007839469 0.007356188 1000
lala 4 1.2 1 second 7 1 46 4 6.52 0.139998197555542 1 1 1 1 0.006970499 0.007286414 0.007823586 0.008012972 0.007838479 1000 0.006970499 0.007286414 0.007823586 0.008012972 0.007838479 1000 0.007064711 0.007153172 0.008351116 0.008448846 0.008153802 1000 0.007064711 0.007153172 0.008351116 0.008448846 0.008153802 1000
lala 2 1.2 1 first 0 1 47 4 3.84 0.459997892379761 -1 0 1 1 0.008035636 0.007625551 0.007298146 1000 1000 1000 0.008035636 0.007625551 0.007298146 1000 1000 1000 0.00822238 0.008195852 0.008195196 0.008252947 0.007813871 1000 0.00822238 0.008195852 0.008195196 0.008252947 0.007813871 1000
lala 4 1.2 0 first 15 1 48 5 3.05 0.39999794960022 0 1 -1 0 0.007195659 0.00758985 0.007905096 1000 1000 1000 0.007195659 0.00758985 0.007905096 1000 1000 1000 0.007752526 0.007974658 0.007896744 0.0085534 0.008698876 1000 0.007752526 0.007974658 0.007896744 0.0085534 0.008698876 1000
lala 4 1.2 0 second 5 1 49 6 4.380001 0.39999794960022 -1 1 -1 0 0.009608826 0.009106943 0.009741961 0.009810663 0.009484559 1000 0.009608826 0.009106943 0.009741961 0.009810663 0.009484559 1000 0.008828182 0.008833786 0.009917122 0.009527556 0.009009291 1000 0.008828182 0.008833786 0.009917122 0.009527556 0.009009291 1000
lala 3 1.2 0 first 2 1 50 5 3.3 0.779997587203979 -1 0 -1 1 -0.01661731 -0.008676009 -0.004929642 -0.002111319 -0.0007776125 -0.0005027591 -0.01661731 -0.008676009 -0.004929642 -0.002111319 -0.0007776125 -0.0005027591 0.01045993 0.01212827 0.0108505 0.0126812 0.01496675 1000 0.01045993 0.01212827 0.0108505 0.0126812 0.01496675 1000
lala 3 1.2 0 second 12 1 51 4 2.64 0.459997892379761 0 0 -1 1 0.01357787 0.01477075 0.01509198 0.01506419 0.01550808 1000 0.01357787 0.01477075 0.01509198 0.01506419 0.01550808 1000 0.01169147 0.01145482 0.0105057 0.01048757 0.010264 1000 0.01169147 0.01145482 0.0105057 0.01048757 0.010264 1000
lala 5 1.2 1 first 10 1 52 6 6.36 0.279998064041138 1 0 1 1 0.0103246 0.009839196 0.0093052 1000 1000 1000 0.0103246 0.009839196 0.0093052 1000 1000 1000 0.01121149 0.01115082 0.01139819 0.01136399 0.01132654 1000 0.01121149 0.01115082 0.01139819 0.01136399 0.01132654 1000
lala 5 1.2 0 first 7 1 53 4 5.320001 1.0999972820282 1 1 -1 1 0.00945779 0.009945278 0.009979247 1000 1000 1000 0.00945779 0.009945278 0.009979247 1000 1000 1000 0.0108574 0.0113944 0.01203792 0.01177339 0.01145132 1000 0.0108574 0.0113944 0.01203792 0.01177339 0.01145132 1000
lala 6 1.2 1 first 7 1 54 4 6.52 0.219998121261597 1 1 1 1 0.009996702 0.01081193 0.01100258 1000 1000 1000 0.009996702 0.01081193 0.01100258 1000 1000 1000 0.009290297 0.00969367 0.009564212 0.009664812 0.009477733 1000 0.009290297 0.00969367 0.009564212 0.009664812 0.009477733 1000
lala 2 1.2 0 second 6 1 55 4 1.44 0.319998025894165 1 0 -1 0 0.008225732 0.008805512 0.008520729 0.008107073 0.007777305 1000 0.008225732 0.008805512 0.008520729 0.008107073 0.007777305 1000 0.006619502 0.0069356 0.007505598 0.007120428 0.00683046 1000 0.006619502 0.0069356 0.007505598 0.007120428 0.00683046 1000
lala 5 1.2 1 second 15 1 56 5 4.25 0.479997873306274 0 1 1 0 0.003693563 0.003891191 0.003611221 0.003437336 0.003767923 1000 0.003693563 0.003891191 0.003611221 0.003437336 0.003767923 1000 0.00289504 0.00344169 0.004024105 0.004836401 0.004198286 1000 0.00289504 0.00344169 0.004024105 0.004836401 0.004198286 1000
lala 3 1.2 0 first 0 1 57 4 2.64 1.63999700546265 -1 0 -1 1 0.001936963 0.002340818 0.002362693 1000 1000 1000 0.001936963 0.002340818 0.002362693 1000 1000 1000 -0.003632926 -0.005531542 -0.006962666 -0.007083449 -0.004911845 1000 -0.003632926 -0.005531542 -0.006962666 -0.007083449 -0.004911845 1000
lala 5 1.2 0 first 5 1 58 6 5.580001 0.179998159408569 -1 1 -1 1 -0.005747555 -0.006060894 -0.006025941 1000 1000 1000 -0.005747555 -0.006060894 -0.006025941 1000 1000 1000 -0.00639768 -0.006613896 -0.006448806 -0.006088234 -0.006161665 1000 -0.00639768 -0.006613896 -0.006448806 -0.006088234 -0.006161665 1000
lala 3 1.2 1 first 6 1 59 4 2.64 0.379997968673706 1 0 1 0 -0.007241954 -0.00632304 -0.005552417 1000 1000 1000 -0.007241954 -0.00632304 -0.005552417 1000 1000 1000 -0.008951228 -0.007856441 -0.007523533 -0.00787114 -0.00824919 1000 -0.008951228 -0.007856441 -0.007523533 -0.00787114 -0.00824919 1000
lala 6 1.2 0 first 5 1 60 6 6.780001 1.97999668121338 -1 1 -1 1 -0.008717885 -0.00826028 -0.00814748 1000 1000 1000 -0.008717885 -0.00826028 -0.00814748 1000 1000 1000 0.001209907 -0.001616217 -0.003456812 -0.001919872 -0.001831157 1000 0.001209907 -0.001616217 -0.003456812 -0.001919872 -0.001831157 1000
lala 6 1.2 0 first 10 1 61 6 5.16 1.0999972820282 1 0 -1 0 -0.0001449793 0.00112075 0.002234216 1000 1000 1000 -0.0001449793 0.00112075 0.002234216 1000 1000 1000 0.00510218 0.005995818 0.004685567 0.003501012 0.004982385 1000 0.00510218 0.005995818 0.004685567 0.003501012 0.004982385 1000
lala 4 1.2 1 second 2 1 62 5 4.5 0.359997987747192 -1 0 1 0 0.002298871 0.00188961 0.001741656 0.001909897 0.002530012 1000 0.002298871 0.00188961 0.001741656 0.001909897 0.002530012 1000 -0.002325691 -0.001772466 -0.0009410781 -0.0001417388 -0.0002311716 1000 -0.002325691 -0.001772466 -0.0009410781 -0.0001417388 -0.0002311716 1000
lala 2 1.2 0 first 11 1 63 6 6.780001 0.419997930526733 1 1 -1 1 -0.0001436187 0.0001679073 -0.0001595913 1000 1000 1000 -0.0001436187 0.0001679073 -0.0001595913 1000 1000 1000 0.003714195 0.004885207 0.005215324 0.005191192 0.005263761 1000 0.003714195 0.004885207 0.005215324 0.005191192 0.005263761 1000
lala 7 1.2 1 first 7 1 64 4 5.320001 0.499997854232788 1 1 1 0 0.004599942 0.005345565 0.00558187 1000 1000 1000 0.004599942 0.005345565 0.00558187 1000 1000 1000 0.005946034 0.006120355 0.006081451 0.007212398 0.007936373 1000 0.005946034 0.006120355 0.006081451 0.007212398 0.007936373 1000
lala 2 1.2 1 first 17 1 65 6 6.780001 0.559997797012329 0 1 1 0 0.006894693 0.007689915 0.00807199 1000 1000 1000 0.006894693 0.007689915 0.00807199 1000 1000 1000 0.01041448 0.01011852 0.009998388 0.01016936 0.01075085 1000 0.01041448 0.01011852 0.009998388 0.01016936 0.01075085 1000
lala 1 1.2 0 first 1 1 66 4 5.32 1.01999735832214 -1 1 -1 1 0.01167677 0.01212915 0.01340053 1000 1000 1000 0.01167677 0.01212915 0.01340053 1000 1000 1000 0.01297757 0.01330157 0.01359666 0.01426775 0.01426018 1000 0.01297757 0.01330157 0.01359666 0.01426775 0.01426018 1000
lala 1 1.2 1 second 9 1 67 5 6.65 1.49999690055847 1 1 1 0 0.01241862 0.01300431 0.01316193 0.01306229 0.01288122 1000 0.01241862 0.01300431 0.01316193 0.01306229 0.01288122 1000 0.01341565 0.01315393 0.012943 0.01314849 0.01359883 1000 0.01341565 0.01315393 0.012943 0.01314849 0.01359883 1000
lala 3 1.2 1 first 11 1 68 6 7.98 0.479997873306274 1 1 1 1 0.01491839 0.01573448 0.01616329 1000 1000 1000 0.01491839 0.01573448 0.01616329 1000 1000 1000 0.01662293 0.01597681 0.01567925 0.01636456 0.01664281 1000 0.01662293 0.01597681 0.01567925 0.01636456 0.01664281 1000
lala 1 1.2 0 first 14 1 69 5 3.3 0.0999982357025146 0 0 -1 0 0.01475748 0.0147383 0.01513693 1000 1000 1000 0.01475748 0.0147383 0.01513693 1000 1000 1000 0.01566212 0.01609034 0.01601068 0.01573838 0.01543985 1000 0.01566212 0.01609034 0.01601068 0.01573838 0.01543985 1000
lala 7 1.2 1 second 10 1 70 6 6.36 0.0999982357025146 1 0 1 0 0.0165491 0.01516411 0.01524662 0.01492186 0.01305005 1000 0.0165491 0.01516411 0.01524662 0.01492186 0.01305005 1000 0.01296408 0.01286042 0.01313021 0.01429001 0.01411468 1000 0.01296408 0.01286042 0.01313021 0.01429001 0.01411468 1000
lala 2 1.2 1 second 9 1 71 5 5.45 0.0999982357025146 1 1 1 0 0.0123008 0.0124631 0.01235981 0.01236555 0.0120476 1000 0.0123008 0.0124631 0.01235981 0.01236555 0.0120476 1000 0.01142397 0.01197101 0.01196208 0.01150956 0.01184441 1000 0.01142397 0.01197101 0.01196208 0.01150956 0.01184441 1000
lala 6 1.2 0 first 16 1 72 6 2.76 0.579997777938843 0 0 -1 0 0.01233549 0.01262986 0.01194085 1000 1000 1000 0.01233549 0.01262986 0.01194085 1000 1000 1000 0.01315922 0.01299218 0.01277334 0.01333537 0.01344382 1000 0.01315922 0.01299218 0.01277334 0.01333537 0.01344382 1000
lala 6 1.2 0 first 15 1 73 5 3.05 0.899997472763062 0 1 -1 0 0.01316253 0.01392111 0.01457001 1000 1000 1000 0.01316253 0.01392111 0.01457001 1000 1000 1000 0.0137272 0.01342408 0.01272375 0.01303843 0.01337552 1000 0.0137272 0.01342408 0.01272375 0.01303843 0.01337552 1000
lala 3 1.2 1 first 4 1 74 6 1.98 0.539997816085815 -1 0 1 0 0.01411854 0.0137393 0.01398463 1000 1000 1000 0.01411854 0.0137393 0.01398463 1000 1000 1000 0.01276878 0.01299606 0.0124968 0.01287516 0.01322569 1000 0.01276878 0.01299606 0.0124968 0.01287516 0.01322569 1000
lala 2 1.2 0 second 14 1 75 5 4.5 0.679997682571411 0 0 -1 1 0.01284941 0.01279184 0.01230348 0.0125594 0.01360597 1000 0.01284941 0.01279184 0.01230348 0.0125594 0.01360597 1000 0.01226865 0.01260659 0.01318786 0.01320164 0.01318279 1000 0.01226865 0.01260659 0.01318786 0.01320164 0.01318279 1000
lala 7 1.2 1 first 16 1 76 6 3.96 0.39999794960022 0 0 1 1 0.01328183 0.01364965 0.01327091 1000 1000 1000 0.01328183 0.01364965 0.01327091 1000 1000 1000 0.01329887 0.01363233 0.01387671 0.01448866 0.01455072 1000 0.01329887 0.01363233 0.01387671 0.01448866 0.01455072 1000
lala 4 1.2 0 second 4 1 77 6 1.98 0.519997835159302 -1 0 -1 1 0.01483871 0.01498545 0.01531909 0.0155149 0.01546342 1000 0.01483871 0.01498545 0.01531909 0.0155149 0.01546342 1000 0.01434166 0.01442546 0.01498985 0.01447909 0.01389853 1000 0.01434166 0.01442546 0.01498985 0.01447909 0.01389853 1000
lala 8 1.2 1 first 7 1 78 4 4.120001 0.439997911453247 1 1 1 0 0.014678 0.01482605 0.01491587 1000 1000 1000 0.014678 0.01482605 0.01491587 1000 1000 1000 0.01369075 0.01414832 0.01406816 0.01386641 0.01411763 1000 0.01369075 0.01414832 0.01406816 0.01386641 0.01411763 1000
lala 4 1.2 0 second 6 1 79 4 1.44 0.559997797012329 1 0 -1 0 0.01351578 0.01410849 0.01446982 0.01432137 0.01449735 1000 0.01351578 0.01410849 0.01446982 0.01432137 0.01449735 1000 0.01413628 0.01413985 0.01403337 0.01410178 0.01440387 1000 0.01413628 0.01413985 0.01403337 0.01410178 0.01440387 1000
lala 3 1.2 1 second 9 1 80 5 4.25 0.539997816085815 1 1 1 0 0.01344991 0.01348692 0.01404153 0.01458204 0.01444918 1000 0.01344991 0.01348692 0.01404153 0.01458204 0.01444918 1000 0.01414168 0.01348008 0.01343959 0.0134054 0.013551 1000 0.01414168 0.01348008 0.01343959 0.0134054 0.013551 1000
lala 4 1.2 0 second 9 1 81 5 3.05 0.539997816085815 1 1 -1 0 0.01403465 0.0138773 0.01436942 0.01455991 0.01464349 1000 0.01403465 0.0138773 0.01436942 0.01455991 0.01464349 1000 0.01402379 0.01414753 0.0143883 0.01469502 0.01502825 1000 0.01402379 0.01414753 0.0143883 0.01469502 0.01502825 1000
lala 5 1.2 1 first 2 1 82 5 3.3 0.499997854232788 -1 0 1 0 0.01381456 0.01396685 0.01496059 1000 1000 1000 0.01381456 0.01396685 0.01496059 1000 1000 1000 0.01470014 0.0152178 0.01507379 0.01518236 0.01531748 1000 0.01470014 0.0152178 0.01507379 0.01518236 0.01531748 1000
lala 9 1.2 1 first 7 1 83 4 2.920001 1.75999689102173 1 1 1 0 0.01451824 0.01484226 0.01492545 1000 1000 1000 0.01451824 0.01484226 0.01492545 1000 1000 1000 0.01435911 0.01484327 0.01533615 0.01553958 0.01565943 1000 0.01435911 0.01484327 0.01533615 0.01553958 0.01565943 1000
lala 8 1.2 0 first 16 1 84 6 2.76 0.439997911453247 0 0 -1 1 0.01451154 0.01418153 0.01488982 1000 1000 1000 0.01451154 0.01418153 0.01488982 1000 1000 1000 0.01471892 0.01522133 0.01514077 0.01501582 0.01555481 1000 0.01471892 0.01522133 0.01514077 0.01501582 0.01555481 1000
lala 3 1.2 1 first 14 1 85 5 5.7 0.01999831199646 0 0 1 0 0.01442188 0.01494005 0.01513716 1000 1000 1000 0.01442188 0.01494005 0.01513716 1000 1000 1000 0.01475922 0.0154729 0.01603907 0.01570537 0.01538832 1000 0.01475922 0.0154729 0.01603907 0.01570537 0.01538832 1000
lala 8 1.2 0 second 8 1 86 5 4.5 0.0599982738494873 1 0 -1 1 0.01376462 0.01363054 0.01383398 0.01450181 0.01440983 1000 0.01376462 0.01363054 0.01383398 0.01450181 0.01440983 1000 0.01426291 0.01403708 0.01409888 0.01467414 0.01458849 1000 0.01426291 0.01403708 0.01409888 0.01467414 0.01458849 1000
lala 9 1.2 0 second 16 1 87 6 3.96 0.319998025894165 0 0 -1 1 0.01311288 0.01307291 0.01274742 0.01256966 0.01284096 1000 0.01311288 0.01307291 0.01274742 0.01256966 0.01284096 1000 0.01329412 0.01320188 0.01324307 0.0136794 0.01367912 1000 0.01329412 0.01320188 0.01324307 0.0136794 0.01367912 1000
lala 5 1.2 1 second 6 1 88 4 2.64 0.319998025894165 1 0 1 1 0.01281665 0.01277322 0.01343178 0.01330126 0.01340573 1000 0.01281665 0.01277322 0.01343178 0.01330126 0.01340573 1000 0.01302949 0.01355811 0.0137167 0.01360926 0.01320667 1000 0.01302949 0.01355811 0.0137167 0.01360926 0.01320667 1000
lala 3 1.2 1 second 17 1 89 6 5.580001 0.219998121261597 0 1 1 0 0.01366037 0.01284383 0.01255712 0.01329995 0.0131809 1000 0.01366037 0.01284383 0.01255712 0.01329995 0.0131809 1000 0.01345445 0.01297451 0.01281717 0.01273332 0.01298452 1000 0.01345445 0.01297451 0.01281717 0.01273332 0.01298452 1000
lala 10 2.4 0 first 7 1 90 4 1.32 1.25999712944031 1 1 -1 1 0.0124869 0.0128007 0.01338604 1000 1000 1000 0.0124869 0.0128007 0.01338604 1000 1000 1000 0.009757528 0.01017291 0.01040761 0.01095274 0.01066047 1000 0.009757528 0.01017291 0.01040761 0.01095274 0.01066047 1000
lala 7 1.2 1 second 15 1 91 5 4.25 0.519997835159302 0 1 1 0 0.008688942 0.008402421 0.007924882 0.007844253 0.008239499 1000 0.008688942 0.008402421 0.007924882 0.007844253 0.008239499 1000 0.008044298 0.007330252 0.007101298 0.007659347 0.007530904 1000 0.008044298 0.007330252 0.007101298 0.007659347 0.007530904 1000
lala 4 1.2 1 second 11 1 92 6 6.780001 4.61999416351318 1 1 1 1 0.007249592 0.00650969 0.006871223 0.00698111 0.007290688 1000 0.007249592 0.00650969 0.006871223 0.00698111 0.007290688 1000 0.006619002 0.006158841 0.006578561 0.007232531 0.006661925 1000 0.006619002 0.006158841 0.006578561 0.007232531 0.006661925 1000
lala 5 1.2 1 first 11 1 93 6 5.580001 0.01999831199646 1 1 1 1 0.005756705 0.005255411 0.005452316 1000 1000 1000 0.005756705 0.005255411 0.005452316 1000 1000 1000 0.005011893 0.004449456 0.004634357 0.005778783 0.005606321 1000 0.005011893 0.004449456 0.004634357 0.005778783 0.005606321 1000
lala 8 1.2 1 first 10 1 94 6 5.16 0.459997892379761 1 0 1 1 0.005274727 0.004696485 0.004656774 1000 1000 1000 0.005274727 0.004696485 0.004656774 1000 1000 1000 0.005690051 0.005932685 0.005617163 0.005949245 0.006311342 1000 0.005690051 0.005932685 0.005617163 0.005949245 0.006311342 1000
lala 9 1.2 0 first 10 1 95 6 3.96 2.65999603271484 1 0 -1 0 0.00590282 0.006117167 0.006118701 1000 1000 1000 0.00590282 0.006117167 0.006118701 1000 1000 1000 0.005330842 0.005872328 0.005944456 0.005906893 0.006528567 1000 0.005330842 0.005872328 0.005944456 0.005906893 0.006528567 1000
lala 2 1.2 1 first 1 1 96 4 6.52 0.219998121261597 -1 1 1 1 0.003881199 0.003901532 0.004116095 1000 1000 1000 0.003881199 0.003901532 0.004116095 1000 1000 1000 0.00517343 0.005369116 0.005382681 0.005383293 0.005123822 1000 0.00517343 0.005369116 0.005382681 0.005383293 0.005123822 1000
lala 3 1.2 0 first 1 1 97 4 5.320001 0.379997968673706 -1 1 -1 1 0.004541093 0.004500369 0.004684389 1000 1000 1000 0.004541093 0.004500369 0.004684389 1000 1000 1000 0.004937957 0.004903121 0.004553962 0.004232938 0.004740464 1000 0.004937957 0.004903121 0.004553962 0.004232938 0.004740464 1000
lala 7 1.2 1 first 5 1 98 6 7.98 0.439997911453247 -1 1 1 0 0.004425935 0.004807347 0.005092389 1000 1000 1000 0.004425935 0.004807347 0.005092389 1000 1000 1000 0.005776719 0.005116053 0.005134217 0.005887361 0.005554666 1000 0.005776719 0.005116053 0.005134217 0.005887361 0.005554666 1000
lala 4 1.2 1 first 0 1 99 4 3.84 0.419997930526733 -1 0 1 1 0.004517001 0.004651267 0.005127641 1000 1000 1000 0.004517001 0.004651267 0.005127641 1000 1000 1000 0.004014771 0.003326981 0.004927401 0.005001465 0.002131862 1000 0.004014771 0.003326981 0.004927401 0.005001465 0.002131862 1000
lala 5 1.2 0 first 0 1 100 4 2.64 0.61999773979187 -1 0 -1 0 -0.02204952 -0.02505424 -0.02654132 -0.02375234 -0.02429121 -0.02293322 -0.02204952 -0.02505424 -0.02654132 -0.02375234 -0.02429121 -0.02293322 -0.01860143 -0.01778801 -0.01623658 -0.01654536 -0.01639086 1000 -0.01860143 -0.01778801 -0.01623658 -0.01654536 -0.01639086 1000
lala 5 1.2 1 first 9 1 101 5 4.25 0.359997987747192 1 1 1 1 -0.01317936 -0.01311652 -0.01319051 1000 1000 1000 -0.01317936 -0.01311652 -0.01319051 1000 1000 1000 -0.01478732 -0.01442977 -0.01462044 -0.01473066 -0.01447328 1000 -0.01478732 -0.01442977 -0.01462044 -0.01473066 -0.01447328 1000
lala 9 1.2 1 second 8 1 102 5 5.7 0.179998159408569 1 0 1 1 -0.01347527 -0.01343275 -0.01308147 -0.01239902 -0.01281168 1000 -0.01347527 -0.01343275 -0.01308147 -0.01239902 -0.01281168 1000 -0.01412697 -0.01386937 -0.01364924 -0.01335019 -0.01379286 1000 -0.01412697 -0.01386937 -0.01364924 -0.01335019 -0.01379286 1000
lala 10 1.2 1 second 16 1 103 6 5.16 0.279998064041138 0 0 1 0 -0.01241117 -0.01251036 -0.01230497 -0.01214212 -0.01218139 1000 -0.01241117 -0.01251036 -0.01230497 -0.01214212 -0.01218139 1000 -0.01202839 -0.01219253 -0.0121678 -0.01187482 -0.01208099 1000 -0.01202839 -0.01219253 -0.0121678 -0.01187482 -0.01208099 1000
lala 6 1.2 0 first 9 1 104 5 3.05 0.179998159408569 1 1 -1 1 -0.01310456 -0.01171414 -0.01092036 1000 1000 1000 -0.01310456 -0.01171414 -0.01092036 1000 1000 1000 -0.01137376 -0.01175143 -0.01170087 -0.01167698 -0.01151042 1000 -0.01137376 -0.01175143 -0.01170087 -0.01167698 -0.01151042 1000
lala 11 1.2 1 second 7 1 105 4 2.52 0.39999794960022 1 1 1 1 -0.01269083 -0.01256007 -0.01184828 -0.01150024 -0.01151805 1000 -0.01269083 -0.01256007 -0.01184828 -0.01150024 -0.01151805 1000 -0.01220009 -0.01155228 -0.01121257 -0.01127873 -0.01129784 1000 -0.01220009 -0.01155228 -0.01121257 -0.01127873 -0.01129784 1000
lala 4 1.2 1 second 14 1 106 5 4.5 1.43999695777893 0 0 1 0 -0.01198729 -0.01244641 -0.01261137 -0.01199711 -0.01169904 1000 -0.01198729 -0.01244641 -0.01261137 -0.01199711 -0.01169904 1000 -0.01326492 -0.01305361 -0.01402679 -0.01468516 -0.01453301 1000 -0.01326492 -0.01305361 -0.01402679 -0.01468516 -0.01453301 1000
lala 9 1.2 0 first 3 1 107 5 4.25 0.379997968673706 -1 1 -1 0 -0.01560211 -0.01585056 -0.01568043 1000 1000 1000 -0.01560211 -0.01585056 -0.01568043 1000 1000 1000 -0.01369041 -0.01389764 -0.01449258 -0.01454721 -0.01425704 1000 -0.01369041 -0.01389764 -0.01449258 -0.01454721 -0.01425704 1000
lala 10 1.2 1 second 3 1 108 5 5.45 0.179998159408569 -1 1 1 1 -0.01483002 -0.01529458 -0.01538777 -0.01512593 -0.01482406 1000 -0.01483002 -0.01529458 -0.01538777 -0.01512593 -0.01482406 1000 -0.01648521 -0.01604811 -0.01520994 -0.01514655 -0.01443819 1000 -0.01648521 -0.01604811 -0.01520994 -0.01514655 -0.01443819 1000
lala 8 1.2 1 first 15 1 109 5 3.05 0.519997835159302 0 1 1 1 -0.01493022 -0.01519255 -0.01461453 1000 1000 1000 -0.01493022 -0.01519255 -0.01461453 1000 1000 1000 -0.01603997 -0.01631136 -0.01560712 -0.01543621 -0.01615449 1000 -0.01603997 -0.01631136 -0.01560712 -0.01543621 -0.01615449 1000
lala 8 1.2 1 second 5 1 110 6 6.780001 0.23999810218811 -1 1 1 1 -0.01544666 -0.01540052 -0.01541152 -0.01587861 -0.01604279 1000 -0.01544666 -0.01540052 -0.01541152 -0.01587861 -0.01604279 1000 -0.01634192 -0.01636763 -0.01653249 -0.01679839 -0.01667015 1000 -0.01634192 -0.01636763 -0.01653249 -0.01679839 -0.01667015 1000
lala 10 0.6 1 second 10 1 111 6 4.56 1.03999733924866 1 0 1 1 -0.01552376 -0.01579179 -0.01569702 -0.01584205 -0.0154107 1000 -0.01552376 -0.01579179 -0.01569702 -0.01584205 -0.0154107 1000 -0.01683822 -0.01739156 -0.01697373 -0.01695971 -0.01749431 1000 -0.01683822 -0.01739156 -0.01697373 -0.01695971 -0.01749431 1000
lala 11 0.6 1 second 16 1 112 6 4.56 0.419997930526733 0 0 1 1 -0.0159732 -0.01634528 -0.01630104 -0.01598104 -0.01631937 1000 -0.0159732 -0.01634528 -0.01630104 -0.01598104 -0.01631937 1000 -0.01724305 -0.01800104 -0.01838588 -0.01838972 -0.01813472 1000 -0.01724305 -0.01800104 -0.01838588 -0.01838972 -0.01813472 1000
lala 12 0.6 0 second 16 1 113 6 3.96 0.219998121261597 0 0 -1 1 -0.01731636 -0.01763023 -0.01727566 -0.01711848 -0.01712499 1000 -0.01731636 -0.01763023 -0.01727566 -0.01711848 -0.01712499 1000 -0.01766045 -0.01797839 -0.01790664 -0.01744387 -0.01687172 1000 -0.01766045 -0.01797839 -0.01790664 -0.01744387 -0.01687172 1000
lala 6 1.2 0 second 6 1 114 4 1.44 2.21999645233154 1 0 -1 0 -0.01748665 -0.01749254 -0.01748173 -0.01722668 -0.0163113 1000 -0.01748665 -0.01749254 -0.01748173 -0.01722668 -0.0163113 1000 -0.01810785 -0.01849877 -0.01848211 -0.01840665 -0.01971209 1000 -0.01810785 -0.01849877 -0.01848211 -0.01840665 -0.01971209 1000
lala 5 1.2 1 second 14 1 115 5 3.3 0.259998083114624 0 0 1 0 0.008622354 0.007504486 0.006115914 0.006422009 0.006058712 1000 0.008622354 0.007504486 0.006115914 0.006422009 0.006058712 1000 0.002795051 0.004659633 0.00527625 0.005048878 0.004102955 1000 0.002795051 0.004659633 0.00527625 0.005048878 0.004102955 1000
lala 10 0.6 1 first 8 1 116 5 5.1 0.39999794960022 1 0 1 0 0.001768184 0.001285044 0.000770049 1000 1000 1000 0.001768184 0.001285044 0.000770049 1000 1000 1000 -0.0006722257 -0.001108191 -0.001060635 -0.0005993436 -0.0007238059 1000 -0.0006722257 -0.001108191 -0.001060635 -0.0005993436 -0.0007238059 1000
lala 7 1.2 1 first 9 1 117 5 4.25 0.639997720718384 1 1 1 0 -0.002726601 -0.002612076 -0.00196851 1000 1000 1000 -0.002726601 -0.002612076 -0.00196851 1000 1000 1000 -0.003238239 -0.0034961 -0.003491993 -0.003452744 -0.004129569 1000 -0.003238239 -0.0034961 -0.003491993 -0.003452744 -0.004129569 1000
lala 11 0.6 1 first 3 1 118 5 4.85 0.61999773979187 -1 1 1 0 -0.00664497 -0.006312815 -0.006205201 1000 1000 1000 -0.00664497 -0.006312815 -0.006205201 1000 1000 1000 -0.006726395 -0.007011165 -0.007125176 -0.007597327 -0.008074576 1000 -0.006726395 -0.007011165 -0.007125176 -0.007597327 -0.008074576 1000
lala 12 0.6 1 second 3 1 119 5 4.25 0.319998025894165 -1 1 1 1 -0.009428001 -0.009395535 -0.009224035 -0.008717312 -0.00849237 1000 -0.009428001 -0.009395535 -0.009224035 -0.008717312 -0.00849237 1000 -0.009337489 -0.009097349 -0.009437457 -0.009333575 -0.008722248 1000 -0.009337489 -0.009097349 -0.009437457 -0.009333575 -0.008722248 1000
lala 4 1.2 1 first 17 1 120 6 4.380001 0.579997777938843 0 1 1 1 -0.009820388 -0.009512292 -0.00900385 1000 1000 1000 -0.009820388 -0.009512292 -0.00900385 1000 1000 1000 -0.00927894 -0.009407935 -0.009627623 -0.00960655 -0.00929644 1000 -0.00927894 -0.009407935 -0.009627623 -0.00960655 -0.00929644 1000
lala 5 1.2 0 second 17 1 121 6 3.180001 0.519997835159302 0 1 -1 1 -0.009786033 -0.009853793 -0.009866463 -0.009445609 -0.009411691 1000 -0.009786033 -0.009853793 -0.009866463 -0.009445609 -0.009411691 1000 -0.0089848 -0.008857076 -0.009046664 -0.008546987 -0.008007806 1000 -0.0089848 -0.008857076 -0.009046664 -0.008546987 -0.008007806 1000
lala 6 1.2 1 first 0 1 122 4 3.84 0.259998083114624 -1 0 1 1 -0.009251526 -0.008798429 -0.008533441 1000 1000 1000 -0.009251526 -0.008798429 -0.008533441 1000 1000 1000 -0.008347928 -0.00781294 -0.007651012 -0.007824262 -0.007949446 1000 -0.008347928 -0.00781294 -0.007651012 -0.007824262 -0.007949446 1000
lala 6 1.2 0 first 2 1 123 5 2.1 2.159996509552 -1 0 -1 0 -0.009041552 -0.008700586 -0.008446951 1000 1000 1000 -0.009041552 -0.008700586 -0.008446951 1000 1000 1000 -0.007263898 -0.007296281 -0.007125384 -0.007128653 -0.007158905 1000 -0.007263898 -0.007296281 -0.007125384 -0.007128653 -0.007158905 1000
lala 6 1.2 1 second 14 1 124 5 2.1 0.339998006820679 0 0 1 0 -0.006892586 -0.006673704 -0.006252976 -0.007047596 -0.007950315 1000 -0.006892586 -0.006673704 -0.006252976 -0.007047596 -0.007950315 1000 -0.008016871 -0.008343293 -0.008189439 -0.007996529 -0.007687971 1000 -0.008016871 -0.008343293 -0.008189439 -0.007996529 -0.007687971 1000
lala 12 0.6 0 first 7 1 125 4 1.92 0.459997892379761 1 1 -1 0 -0.007423851 -0.007523101 -0.007574589 1000 1000 1000 -0.007423851 -0.007523101 -0.007574589 1000 1000 1000 -0.008146655 -0.008263418 -0.008493871 -0.008496653 -0.008162361 1000 -0.008146655 -0.008263418 -0.008493871 -0.008496653 -0.008162361 1000
lala 13 0.3 0 first 16 1 126 6 4.26 2.05999660491943 0 0 -1 1 -0.008149329 -0.007891491 -0.007743377 1000 1000 1000 -0.008149329 -0.007891491 -0.007743377 1000 1000 1000 -0.00791919 -0.007960286 -0.008064446 -0.008064586 -0.007790882 1000 -0.00791919 -0.007960286 -0.008064446 -0.008064586 -0.007790882 1000
lala 11 0.3 1 second 10 1 127 6 4.26 0.219998121261597 1 0 1 0 -0.00839174 -0.008588725 -0.007979146 -0.007668592 -0.007846339 1000 -0.00839174 -0.008588725 -0.007979146 -0.007668592 -0.007846339 1000 -0.007728164 -0.00801034 -0.008109578 -0.007854372 -0.007583641 1000 -0.007728164 -0.00801034 -0.008109578 -0.007854372 -0.007583641 1000
lala 7 1.2 1 second 6 1 128 4 2.64 0.199998140335083 1 0 1 0 -0.008399999 -0.008396912 -0.008028363 -0.007811546 -0.007786745 1000 -0.008399999 -0.008396912 -0.008028363 -0.007811546 -0.007786745 1000 -0.008112994 -0.008683772 -0.008796171 -0.008560434 -0.008283111 1000 -0.008112994 -0.008683772 -0.008796171 -0.008560434 -0.008283111 1000
lala 5 1.2 1 first 4 1 129 6 3.18 0.739997625350952 -1 0 1 1 -0.009507515 -0.009738613 -0.009370825 1000 1000 1000 -0.009507515 -0.009738613 -0.009370825 1000 1000 1000 -0.009083707 -0.00927765 -0.009322214 -0.009290076 -0.00892692 1000 -0.009083707 -0.00927765 -0.009322214 -0.009290076 -0.00892692 1000
lala 7 1.2 1 first 0 1 130 4 2.64 0.339998006820679 -1 0 1 0 -0.01124953 -0.01080332 -0.01055221 1000 1000 1000 -0.01124953 -0.01080332 -0.01055221 1000 1000 1000 -0.010513 -0.01060536 -0.01021756 -0.01005551 -0.01009441 1000 -0.010513 -0.01060536 -0.01021756 -0.01005551 -0.01009441 1000
lala 7 1.2 0 first 14 1 131 5 1.65 1.7199969291687 0 0 -1 1 -0.01081747 -0.01118041 -0.01147022 1000 1000 1000 -0.01081747 -0.01118041 -0.01147022 1000 1000 1000 -0.01111765 -0.01115908 -0.01150212 -0.0116937 -0.01175324 1000 -0.01111765 -0.01115908 -0.01150212 -0.0116937 -0.01175324 1000
lala 6 1.2 1 second 17 1 132 6 4.380001 0.0399982929229736 0 1 1 0 -0.01232568 -0.01258166 -0.0121877 -0.01151195 -0.01213266 1000 -0.01232568 -0.01258166 -0.0121877 -0.01151195 -0.01213266 1000 -0.01267641 -0.01272172 -0.01292712 -0.01306378 -0.01299252 1000 -0.01267641 -0.01272172 -0.01292712 -0.01306378 -0.01299252 1000
lala 7 1.2 1 first 2 1 133 5 3.3 0.299998044967651 -1 0 1 0 -0.01456783 -0.01443105 -0.01409893 1000 1000 1000 -0.01456783 -0.01443105 -0.01409893 1000 1000 1000 -0.01401113 -0.01435517 -0.01424154 -0.01366175 -0.01337189 1000 -0.01401113 -0.01435517 -0.01424154 -0.01366175 -0.01337189 1000
lala 6 1.2 1 first 4 1 134 6 1.98 4.55999422073364 -1 0 1 1 -0.0152759 -0.0154564 -0.015313 1000 1000 1000 -0.0152759 -0.0154564 -0.015313 1000 1000 1000 -0.01591341 -0.01596844 -0.01647579 -0.01650182 -0.01591233 1000 -0.01591341 -0.01596844 -0.01647579 -0.01650182 -0.01591233 1000
lala 9 1.2 0 first 15 1 135 5 1.85 0.359997987747192 0 1 -1 0 -0.01733815 -0.01766128 -0.01745038 1000 1000 1000 -0.01733815 -0.01766128 -0.01745038 1000 1000 1000 -0.01741959 -0.01713715 -0.01671405 -0.01712291 -0.01788859 1000 -0.01741959 -0.01713715 -0.01671405 -0.01712291 -0.01788859 1000
lala 8 1.2 0 first 14 1 136 5 2.85 0.199998140335083 0 0 -1 0 -0.01812613 -0.01771266 -0.01707768 1000 1000 1000 -0.01812613 -0.01771266 -0.01707768 1000 1000 1000 -0.01735617 -0.01744757 -0.01807763 -0.01811691 -0.01752012 1000 -0.01735617 -0.01744757 -0.01807763 -0.01811691 -0.01752012 1000
lala 11 0.6 1 second 8 1 137 5 4.5 0.079998254776001 1 0 1 0 -0.01833989 -0.01845798 -0.01856447 -0.01852544 -0.01873785 1000 -0.01833989 -0.01845798 -0.01856447 -0.01852544 -0.01873785 1000 -0.01965067 -0.02031045 -0.02023983 -0.01964749 -0.01925443 1000 -0.01965067 -0.02031045 -0.02023983 -0.01964749 -0.01925443 1000
lala 3 1.2 1 second 13 1 138 4 2.92 0.23999810218811 0 1 1 1 -0.0204786 -0.02058585 -0.02044628 -0.01986906 -0.01993863 1000 -0.0204786 -0.02058585 -0.02044628 -0.01986906 -0.01993863 1000 -0.01967632 -0.02087869 -0.02154331 -0.02167396 -0.0212616 1000 -0.01967632 -0.02087869 -0.02154331 -0.02167396 -0.0212616 1000
lala 7 1.2 1 first 17 1 139 6 3.180001 0.379997968673706 0 1 1 1 -0.02032068 -0.02002244 -0.02008457 1000 1000 1000 -0.02032068 -0.02002244 -0.02008457 1000 1000 1000 -0.01917808 -0.01916372 -0.01933262 -0.01936782 -0.01928613 1000 -0.01917808 -0.01916372 -0.01933262 -0.01936782 -0.01928613 1000
lala 8 1.2 0 first 2 1 140 5 2.1 0.299998044967651 -1 0 -1 1 -0.02004488 -0.01968122 -0.01905641 1000 1000 1000 -0.02004488 -0.01968122 -0.01905641 1000 1000 1000 -0.0198994 -0.01931961 -0.01895088 -0.0191536 -0.02017372 1000 -0.0198994 -0.01931961 -0.01895088 -0.0191536 -0.02017372 1000
lala 14 0.3 1 second 16 1 141 6 4.56 0.0599982738494873 0 0 1 1 -0.02092983 -0.02116828 -0.02134755 -0.02118273 -0.02115316 1000 -0.02092983 -0.02116828 -0.02134755 -0.02118273 -0.02115316 1000 -0.0204438 -0.02115285 -0.02144697 -0.02096977 -0.02048644 1000 -0.0204438 -0.02115285 -0.02144697 -0.02096977 -0.02048644 1000
lala 8 1.2 0 second 6 1 142 4 1.44 1.21999716758728 1 0 -1 0 -0.02035324 -0.02034565 -0.02005448 -0.02011086 -0.02068945 1000 -0.02035324 -0.02034565 -0.02005448 -0.02011086 -0.02068945 1000 -0.02184025 -0.02183763 -0.02205806 -0.02219381 -0.02211818 1000 -0.02184025 -0.02183763 -0.02205806 -0.02219381 -0.02211818 1000
lala 8 1.2 0 first 9 1 143 5 3.05 0.479997873306274 1 1 -1 1 -0.02233129 -0.02152127 -0.02084321 1000 1000 1000 -0.02233129 -0.02152127 -0.02084321 1000 1000 1000 -0.02133756 -0.02120582 -0.02084926 -0.02071046 -0.02130993 1000 -0.02133756 -0.02120582 -0.02084926 -0.02071046 -0.02130993 1000
lala 6 1.2 1 first 11 1 144 6 4.380001 0.979997396469116 1 1 1 0 -0.02173202 -0.02111172 -0.02107892 1000 1000 1000 -0.02173202 -0.02111172 -0.02107892 1000 1000 1000 -0.02250734 -0.02238715 -0.02209894 -0.02198133 -0.02234631 1000 -0.02250734 -0.02238715 -0.02209894 -0.02198133 -0.02234631 1000
lala 4 1.2 0 second 13 1 145 4 1.72 0.079998254776001 0 1 -1 1 -0.02308234 -0.02328413 -0.02307908 -0.02246705 -0.02267024 1000 -0.02308234 -0.02328413 -0.02307908 -0.02246705 -0.02267024 1000 -0.0233695 -0.02353757 -0.02291699 -0.02250077 -0.02247209 1000 -0.0233695 -0.02353757 -0.02291699 -0.02250077 -0.02247209 1000
lala 4 1.2 1 first 12 1 146 4 3.84 0.599997758865356 0 0 1 1 -0.02327491 -0.02273475 -0.0225668 1000 1000 1000 -0.02327491 -0.02273475 -0.0225668 1000 1000 1000 -0.02395196 -0.02382498 -0.02386937 -0.02319788 -0.02242854 1000 -0.02395196 -0.02382498 -0.02386937 -0.02319788 -0.02242854 1000
lala 9 1.2 1 second 5 1 147 6 5.580001 0.819997549057007 -1 1 1 1 -0.02299949 -0.02347538 -0.02352788 -0.02278108 -0.02270581 1000 -0.02299949 -0.02347538 -0.02352788 -0.02278108 -0.02270581 1000 -0.02354699 -0.02341489 -0.02298898 -0.02275913 -0.02289027 1000 -0.02354699 -0.02341489 -0.02298898 -0.02275913 -0.02289027 1000
lala 9 1.2 0 second 2 1 148 5 3.3 0.419997930526733 -1 0 -1 1 -0.02406949 -0.02395249 -0.02383116 -0.02421696 -0.02415894 1000 -0.02406949 -0.02395249 -0.02383116 -0.02421696 -0.02415894 1000 -0.02348749 -0.02342197 -0.02356655 -0.02366072 -0.02366587 1000 -0.02348749 -0.02342197 -0.02356655 -0.02366072 -0.02366587 1000
lala 10 2.4 1 second 5 1 149 6 3.180001 0.279998064041138 -1 1 1 1 -0.02490882 -0.02528222 -0.02471889 -0.02444533 -0.0246929 1000 -0.02490882 -0.02528222 -0.02471889 -0.02444533 -0.0246929 1000 -0.01795723 -0.01864773 -0.01958717 -0.01976811 -0.02022224 1000 -0.01795723 -0.01864773 -0.01958717 -0.01976811 -0.02022224 1000
lala 13 0.6 1 first 3 1 150 5 3.65 1.89999675750732 -1 1 1 1 -0.01190296 -0.01124511 -0.01187719 -0.01274331 -0.01261971 -0.01178414 -0.01190296 -0.01124511 -0.01187719 -0.01274331 -0.01261971 -0.01178414 -0.01285297 -0.01316314 -0.0126564 -0.01256185 -0.01186376 1000 -0.01285297 -0.01316314 -0.0126564 -0.01256185 -0.01186376 1000
lala 9 1.2 1 first 14 1 151 5 4.05 0.01999831199646 0 0 1 1 -0.01449257 -0.01443456 -0.0149827 1000 1000 1000 -0.01449257 -0.01443456 -0.0149827 1000 1000 1000 -0.01306304 -0.01267918 -0.01262759 -0.01258592 -0.01254194 1000 -0.01306304 -0.01267918 -0.01262759 -0.01258592 -0.01254194 1000
lala 15 0.15 1 first 16 1 152 6 4.41 0.39999794960022 0 0 1 0 -0.01203068 -0.01237347 -0.01246256 1000 1000 1000 -0.01203068 -0.01237347 -0.01246256 1000 1000 1000 -0.01289994 -0.01322206 -0.0128771 -0.01275095 -0.01265112 1000 -0.01289994 -0.01322206 -0.0128771 -0.01275095 -0.01265112 1000
lala 12 0.3 1 second 10 1 153 6 3.96 0.499997854232788 1 0 1 1 -0.01225995 -0.01205697 -0.0122495 -0.01243663 -0.01231919 1000 -0.01225995 -0.01205697 -0.0122495 -0.01243663 -0.01231919 1000 -0.01170546 -0.01208917 -0.01258163 -0.0121662 -0.01159562 1000 -0.01170546 -0.01208917 -0.01258163 -0.0121662 -0.01159562 1000
lala 10 0.6 1 first 15 1 154 5 2.45 2.95999574661255 0 1 1 1 -0.01225092 -0.01214309 -0.01167757 1000 1000 1000 -0.01225092 -0.01214309 -0.01167757 1000 1000 1000 -0.0122778 -0.01178158 -0.01109765 -0.01194531 -0.01250007 1000 -0.0122778 -0.01178158 -0.01109765 -0.01194531 -0.01250007 1000
lala 10 1.2 1 second 2 1 155 5 4.5 0.279998064041138 -1 0 1 0 -0.01384827 -0.01359089 -0.01329513 -0.01294779 -0.01304795 1000 -0.01384827 -0.01359089 -0.01329513 -0.01294779 -0.01304795 1000 -0.01419831 -0.01448448 -0.01491525 -0.01480346 -0.01454182 1000 -0.01419831 -0.01448448 -0.01491525 -0.01480346 -0.01454182 1000
lala 12 0.6 1 first 8 1 156 5 3.9 0.279998064041138 1 0 1 0 -0.0151839 -0.01430787 -0.01378148 1000 1000 1000 -0.0151839 -0.01430787 -0.01378148 1000 1000 1000 -0.01353075 -0.01360011 -0.01342419 -0.01358054 -0.01348205 1000 -0.01353075 -0.01360011 -0.01342419 -0.01358054 -0.01348205 1000
lala 11 0.3 0 first 15 1 157 5 2.15 0.01999831199646 0 1 -1 0 -0.01341192 -0.01308036 -0.01337864 1000 1000 1000 -0.01341192 -0.01308036 -0.01337864 1000 1000 1000 -0.01339782 -0.01344788 -0.01349214 -0.01366301 -0.01339648 1000 -0.01339782 -0.01344788 -0.01349214 -0.01366301 -0.01339648 1000
lala 13 0.3 0 second 7 1 158 4 2.22 3.23999547958374 1 1 -1 1 -0.01294121 -0.01360579 -0.01412237 -0.01340395 -0.01330403 1000 -0.01294121 -0.01360579 -0.01412237 -0.01340395 -0.01330403 1000 -0.01405 -0.0142721 -0.01443108 -0.01435881 -0.01400608 1000 -0.01405 -0.0142721 -0.01443108 -0.01435881 -0.01400608 1000
lala 7 1.2 1 first 11 1 159 6 3.180001 0.01999831199646 1 1 1 0 -0.01631617 -0.01621786 -0.01601238 1000 1000 1000 -0.01631617 -0.01621786 -0.01601238 1000 1000 1000 -0.01604657 -0.015935 -0.0164473 -0.01675916 -0.01637693 1000 -0.01604657 -0.015935 -0.0164473 -0.01675916 -0.01637693 1000
lala 4 1.2 1 second 1 1 160 4 6.52 0.23999810218811 -1 1 1 0 -0.0167586 -0.01650613 -0.01609262 -0.01584224 -0.01573566 1000 -0.0167586 -0.01650613 -0.01609262 -0.01584224 -0.01573566 1000 -0.01667494 -0.01610344 -0.01581161 -0.01620376 -0.01621188 1000 -0.01667494 -0.01610344 -0.01581161 -0.01620376 -0.01621188 1000
lala 8 1.2 0 first 11 1 161 6 1.980001 5.15999364852905 1 1 -1 0 -0.01652126 -0.01631599 -0.01601615 1000 1000 1000 -0.01652126 -0.01631599 -0.01601615 1000 1000 1000 -0.01497583 -0.01512731 -0.01534112 -0.0146711 -0.0138602 1000 -0.01497583 -0.01512731 -0.01534112 -0.0146711 -0.0138602 1000
lala 9 1.2 1 first 11 1 162 6 3.180001 0.739997625350952 1 1 1 1 -0.0158563 -0.01603596 -0.01546403 1000 1000 1000 -0.0158563 -0.01603596 -0.01546403 1000 1000 1000 -0.01656191 -0.01786501 -0.01833158 -0.01788812 -0.0171483 1000 -0.01656191 -0.01786501 -0.01833158 -0.01788812 -0.0171483 1000
lala 14 1.2 0 second 3 1 163 5 2.45 0.39999794960022 -1 1 -1 1 -0.01921717 -0.01968705 -0.01953802 -0.01923205 -0.01901694 1000 -0.01921717 -0.01968705 -0.01953802 -0.01923205 -0.01901694 1000 -0.01997863 -0.02038025 -0.01998329 -0.01959156 -0.01979186 1000 -0.01997863 -0.02038025 -0.01998329 -0.01959156 -0.01979186 1000
lala 9 1.2 1 second 6 1 164 4 2.64 0.199998140335083 1 0 1 0 -0.02096441 -0.02218548 -0.02213956 -0.02179768 -0.02168217 1000 -0.02096441 -0.02218548 -0.02213956 -0.02179768 -0.02168217 1000 -0.02151377 -0.02169033 -0.0219131 -0.02168429 -0.02151029 1000 -0.02151377 -0.02169033 -0.0219131 -0.02168429 -0.02151029 1000
lala 10 0.6 1 second 11 1 165 6 2.580001 0.0999982357025146 1 1 1 1 -0.02187858 -0.02244072 -0.02265317 -0.02228633 -0.02187533 1000 -0.02187858 -0.02244072 -0.02265317 -0.02228633 -0.02187533 1000 -0.02104383 -0.02118784 -0.02111534 -0.02104564 -0.02139282 1000 -0.02104383 -0.02118784 -0.02111534 -0.02104564 -0.02139282 1000
lala 11 0.6 0 second 2 1 166 5 3.9 0.01999831199646 -1 0 -1 0 -0.02290323 -0.02368319 -0.02327572 -0.02207962 -0.02162572 1000 -0.02290323 -0.02368319 -0.02327572 -0.02207962 -0.02162572 1000 -0.02446381 -0.02445225 -0.02383685 -0.02369563 -0.02388662 1000 -0.02446381 -0.02445225 -0.02383685 -0.02369563 -0.02388662 1000
lala 13 0.3 1 first 10 1 167 6 3.66 0.359997987747192 1 0 1 0 -0.02395434 -0.0244143 -0.0251059 1000 1000 1000 -0.02395434 -0.0244143 -0.0251059 1000 1000 1000 -0.02856305 -0.02838163 -0.0281173 -0.02762375 -0.02768449 1000 -0.02856305 -0.02838163 -0.0281173 -0.02762375 -0.02768449 1000
lala 7 1.2 0 second 4 1 168 6 1.98 0.379997968673706 -1 0 -1 0 -0.01201802 -0.01335572 -0.01357727 -0.01361718 -0.01331849 1000 -0.01201802 -0.01335572 -0.01357727 -0.01361718 -0.01331849 1000 -0.01618108 -0.01615955 -0.01616724 -0.01610924 -0.01585054 1000 -0.01618108 -0.01615955 -0.01616724 -0.01610924 -0.01585054 1000
lala 8 1.2 0 first 0 1 169 4 1.44 0.359997987747192 -1 0 -1 0 -0.01747649 -0.01772805 -0.01758764 1000 1000 1000 -0.01747649 -0.01772805 -0.01758764 1000 1000 1000 -0.01831681 -0.01794651 -0.0183851 -0.01870636 -0.01823964 1000 -0.01831681 -0.01794651 -0.0183851 -0.01870636 -0.01823964 1000
lala 9 1.2 1 second 9 1 170 5 4.25 1.33999705314636 1 1 1 0 -0.02097565 -0.02015338 -0.01896372 -0.01885844 -0.01893068 1000 -0.02097565 -0.02015338 -0.01896372 -0.01885844 -0.01893068 1000 -0.01981155 -0.0197857 -0.02000191 -0.02060386 -0.02101255 1000 -0.01981155 -0.0197857 -0.02000191 -0.02060386 -0.02101255 1000
lala 8 1.2 1 second 17 1 171 6 1.980001 0.379997968673706 0 1 1 1 -0.02058476 -0.02082673 -0.02108795 -0.02186107 -0.02344093 1000 -0.02058476 -0.02082673 -0.02108795 -0.02186107 -0.02344093 1000 -0.02622237 -0.02106819 -0.01702043 -0.01603486 -0.01591637 1000 -0.02622237 -0.02106819 -0.01702043 -0.01603486 -0.01591637 1000
lala 9 1.2 0 first 17 1 172 6 1.98 0.499997854232788 0 1 -1 1 -0.01633973 -0.01562255 -0.01562625 1000 1000 1000 -0.01633973 -0.01562255 -0.01562625 1000 1000 1000 -0.01704254 -0.0175641 -0.01746267 -0.01736208 -0.01706584 1000 -0.01704254 -0.0175641 -0.01746267 -0.01736208 -0.01706584 1000
lala 8 1.2 1 first 4 1 173 6 3.18 0.319998025894165 -1 0 1 0 -0.01924583 -0.01873818 -0.01854416 1000 1000 1000 -0.01924583 -0.01873818 -0.01854416 1000 1000 1000 -0.01957289 -0.01956557 -0.01927477 -0.01904623 -0.01876857 1000 -0.01957289 -0.01956557 -0.01927477 -0.01904623 -0.01876857 1000
lala 14 0.3 1 second 7 1 174 4 2.52 0.579997777938843 1 1 1 0 -0.01969034 -0.01945141 -0.01949641 -0.01949499 -0.01933149 1000 -0.01969034 -0.01945141 -0.01949641 -0.01949499 -0.01933149 1000 -0.02053802 -0.02057084 -0.02062461 -0.02033057 -0.0204525 1000 -0.02053802 -0.02057084 -0.02062461 -0.02033057 -0.0204525 1000
lala 10 0.6 0 first 17 1 175 6 2.58 0.639997720718384 0 1 -1 0 -0.02091192 -0.02045285 -0.02042832 1000 1000 1000 -0.02091192 -0.02045285 -0.02042832 1000 1000 1000 -0.02149436 -0.02165197 -0.02170304 -0.02161758 -0.02134632 1000 -0.02149436 -0.02165197 -0.02170304 -0.02161758 -0.02134632 1000
lala 16 0.15 1 first 16 1 176 6 4.26 0.01999831199646 0 0 1 1 -0.02187098 -0.02134984 -0.02181826 1000 1000 1000 -0.02187098 -0.02134984 -0.02181826 1000 1000 1000 -0.02357039 -0.02369997 -0.02293518 -0.02250098 -0.02239716 1000 -0.02357039 -0.02369997 -0.02293518 -0.02250098 -0.02239716 1000
lala 11 0.6 1 second 17 1 177 6 3.18 0.01999831199646 0 1 1 0 -0.02276309 -0.02257031 -0.02254083 -0.02273975 -0.02260363 1000 -0.02276309 -0.02257031 -0.02254083 -0.02273975 -0.02260363 1000 -0.02446644 -0.02489512 -0.02520023 -0.02503667 -0.02513801 1000 -0.02446644 -0.02489512 -0.02520023 -0.02503667 -0.02513801 1000
lala 10 0.6 1 first 14 1 178 5 3.45 0.319998025894165 0 0 1 1 -0.02426953 -0.02425884 -0.0237592 1000 1000 1000 -0.02426953 -0.02425884 -0.0237592 1000 1000 1000 -0.02246055 -0.02303904 -0.02350758 -0.02348635 -0.02339395 1000 -0.02246055 -0.02303904 -0.02350758 -0.02348635 -0.02339395 1000
lala 13 1.2 1 first 8 1 179 5 2.7 0.299998044967651 1 0 1 0 -0.02368724 -0.02361052 -0.02398787 1000 1000 1000 -0.02368724 -0.02361052 -0.02398787 1000 1000 1000 -0.02442709 -0.02354511 -0.02293901 -0.02321536 -0.0242091 1000 -0.02442709 -0.02354511 -0.02293901 -0.02321536 -0.0242091 1000
lala 11 0.6 0 second 11 1 180 6 1.980001 0.39999794960022 1 1 -1 0 -0.02326389 -0.02333484 -0.02351843 -0.02347441 -0.02299801 1000 -0.02326389 -0.02333484 -0.02351843 -0.02347441 -0.02299801 1000 -0.0235059 -0.02375115 -0.02384834 -0.02328138 -0.0227658 1000 -0.0235059 -0.02375115 -0.02384834 -0.02328138 -0.0227658 1000
lala 17 0.15 1 second 16 1 181 6 4.11 0.919997453689575 0 0 1 0 -0.02431822 -0.02374376 -0.0222956 -0.01958554 -0.0146517 1000 -0.02431822 -0.02374376 -0.0222956 -0.01958554 -0.0146517 1000 0.01545759 0.01711581 0.01972273 0.02167521 0.02605101 1000 0.01545759 0.01711581 0.01972273 0.02167521 0.02605101 1000
lala 9 1.2 1 second 0 1 182 4 2.64 0.01999831199646 -1 0 1 0 -0.003590559 -0.005056171 -0.00469225 -0.003742573 -0.003650957 1000 -0.003590559 -0.005056171 -0.00469225 -0.003742573 -0.003650957 1000 -0.003046025 -0.003136975 -0.003739273 -0.004611942 -0.004844248 1000 -0.003046025 -0.003136975 -0.003739273 -0.004611942 -0.004844248 1000
lala 18 0.3 1 second 16 1 183 6 3.81 0.279998064041138 0 0 1 1 -0.004656004 -0.004812049 -0.004821995 -0.005373067 -0.005460204 1000 -0.004656004 -0.004812049 -0.004821995 -0.005373067 -0.005460204 1000 -0.007512028 -0.007240675 -0.007202284 -0.007517777 -0.007732645 1000 -0.007512028 -0.007240675 -0.007202284 -0.007517777 -0.007732645 1000
lala 11 0.6 1 second 14 1 184 5 2.85 0.0599982738494873 0 0 1 1 -0.008594133 -0.008438243 -0.00800639 -0.007441455 -0.007789008 1000 -0.008594133 -0.008438243 -0.00800639 -0.007441455 -0.007789008 1000 -0.00876872 -0.008974134 -0.008878167 -0.008494715 -0.00872237 1000 -0.00876872 -0.008974134 -0.008878167 -0.008494715 -0.00872237 1000
lala 9 1.2 0 second 4 1 185 6 1.98 0.439997911453247 -1 0 -1 0 -0.009598268 -0.009485747 -0.009423097 -0.009166274 -0.009377921 1000 -0.009598268 -0.009485747 -0.009423097 -0.009166274 -0.009377921 1000 -0.009724761 -0.0100395 -0.009806623 -0.009354122 -0.009315589 1000 -0.009724761 -0.0100395 -0.009806623 -0.009354122 -0.009315589 1000
lala 14 2.4 0 first 8 1 186 5 1.65 0.079998254776001 1 0 -1 0 -0.009684383 -0.009183933 -0.009036558 1000 1000 1000 -0.009684383 -0.009183933 -0.009036558 1000 1000 1000 -0.01012339 -0.01010974 -0.01022484 -0.01009473 -0.009711388 1000 -0.01012339 -0.01010974 -0.01022484 -0.01009473 -0.009711388 1000
lala 10 0.6 0 first 4 1 187 6 2.58 0.339998006820679 -1 0 -1 1 -0.01071071 -0.01058108 -0.01020376 1000 1000 1000 -0.01071071 -0.01058108 -0.01020376 1000 1000 1000 -0.01063907 -0.01053735 -0.01035916 -0.009894239 -0.009962192 1000 -0.01063907 -0.01053735 -0.01035916 -0.009894239 -0.009962192 1000
lala 11 4.8 1 first 5 1 188 6 1.98 0.339998006820679 -1 1 1 0 -0.01022285 -0.01092003 -0.01120212 1000 1000 1000 -0.01022285 -0.01092003 -0.01120212 1000 1000 1000 -0.01175691 -0.01152607 -0.01159946 -0.01159343 -0.01127756 1000 -0.01175691 -0.01152607 -0.01159946 -0.01159343 -0.01127756 1000
lala 14 0.6 1 second 10 1 189 6 3.06 0.759997606277466 1 0 1 0 -0.01109623 -0.01098619 -0.01069687 -0.010858 -0.01133394 1000 -0.01109623 -0.01098619 -0.01069687 -0.010858 -0.01133394 1000 -0.01153388 -0.01180946 -0.01170299 -0.01189588 -0.01191244 1000 -0.01153388 -0.01180946 -0.01170299 -0.01189588 -0.01191244 1000
lala 12 0.15 0 first 15 1 190 5 2.3 0.379997968673706 0 1 -1 0 -0.01131397 -0.01177662 -0.01187737 1000 1000 1000 -0.01131397 -0.01177662 -0.01187737 1000 1000 1000 -0.0129737 -0.01245561 -0.0124667 -0.01252581 -0.01219911 1000 -0.0129737 -0.01245561 -0.0124667 -0.01252581 -0.01219911 1000
lala 12 0.3 1 second 2 1 191 5 4.2 0.299998044967651 -1 0 1 1 -0.01300458 -0.01313803 -0.0124986 -0.01214807 -0.01192657 1000 -0.01300458 -0.01313803 -0.0124986 -0.01214807 -0.01192657 1000 -0.01332394 -0.0136577 -0.0133193 -0.01322235 -0.01301229 1000 -0.01332394 -0.0136577 -0.0133193 -0.01322235 -0.01301229 1000
lala 10 0.6 0 first 6 1 192 4 2.04 0.679997682571411 1 0 -1 1 -0.01327973 -0.0132764 -0.01303569 1000 1000 1000 -0.01327973 -0.0132764 -0.01303569 1000 1000 1000 -0.01360967 -0.01326694 -0.01316033 -0.0128338 -0.01292684 1000 -0.01360967 -0.01326694 -0.01316033 -0.0128338 -0.01292684 1000
lala 12 0.6 0 second 14 1 193 5 2.25 0.439997911453247 0 0 -1 0 -0.01305443 -0.01266106 -0.01231841 -0.01268783 -0.01274329 1000 -0.01305443 -0.01266106 -0.01231841 -0.01268783 -0.01274329 1000 -0.01239267 -0.01186187 -0.01124202 -0.01252904 -0.01230428 1000 -0.01239267 -0.01186187 -0.01124202 -0.01252904 -0.01230428 1000
lala 19 0.6 1 second 16 1 194 6 3.21 0.299998044967651 0 0 1 1 -0.01139298 -0.01171888 -0.01262309 -0.01306579 -0.01315078 1000 -0.01139298 -0.01171888 -0.01262309 -0.01306579 -0.01315078 1000 -0.01357355 -0.01373708 -0.01344506 -0.01320449 -0.01341186 1000 -0.01357355 -0.01373708 -0.01344506 -0.01320449 -0.01341186 1000
lala 15 1.2 0 second 10 1 195 6 1.98 0.559997797012329 1 0 -1 1 -0.01339381 -0.01213404 -0.01194755 -0.0120688 -0.012071 1000 -0.01339381 -0.01213404 -0.01194755 -0.0120688 -0.012071 1000 -0.01359489 -0.01393104 -0.01401658 -0.01379663 -0.01382446 1000 -0.01359489 -0.01393104 -0.01401658 -0.01379663 -0.01382446 1000
lala 16 0.6 1 first 10 1 196 6 2.58 0.0999982357025146 1 0 1 0 -0.01291363 -0.01266903 -0.01266798 1000 1000 1000 -0.01291363 -0.01266903 -0.01266798 1000 1000 1000 -0.01317388 -0.0130126 -0.01295599 -0.01291108 -0.01250746 1000 -0.01317388 -0.0130126 -0.01295599 -0.01291108 -0.01250746 1000
lala 12 0.3 0 second 11 1 197 6 2.280001 0.659997701644897 1 1 -1 1 -0.01266895 -0.0127073 -0.01234856 -0.01250107 -0.01229142 1000 -0.01266895 -0.0127073 -0.01234856 -0.01250107 -0.01229142 1000 -0.01346628 -0.01313428 -0.01310491 -0.01327088 -0.01336456 1000 -0.01346628 -0.01313428 -0.01310491 -0.01327088 -0.01336456 1000
lala 15 1.2 1 second 8 1 198 5 2.85 0.079998254776001 1 0 1 0 -0.01240189 -0.0125553 -0.01269965 -0.01255273 -0.01258883 1000 -0.01240189 -0.0125553 -0.01269965 -0.01255273 -0.01258883 1000 -0.01307342 -0.01281699 -0.01271074 -0.01290283 -0.01289862 1000 -0.01307342 -0.01281699 -0.01271074 -0.01290283 -0.01289862 1000
lala 12 9.6 0 first 5 1 199 6 1.98 1.45999693870544 -1 1 -1 0 -0.01244093 -0.0129152 -0.01324651 1000 1000 1000 -0.01244093 -0.0129152 -0.01324651 1000 1000 1000 -0.01338959 -0.01309469 -0.01350745 -0.01396465 -0.01393048 1000 -0.01338959 -0.01309469 -0.01350745 -0.01396465 -0.01393048 1000
lala 16 0.6 0 first 8 1 200 5 2.25 0.219998121261597 1 0 -1 0 -0.02352363 -0.02168395 -0.01909089 -0.01668543 -0.01504844 -0.01536639 -0.02352363 -0.02168395 -0.01909089 -0.01668543 -0.01504844 -0.01536639 -0.03089618 -0.02753004 -0.02396759 -0.02105551 -0.01764464 1000 -0.03089618 -0.02753004 -0.02396759 -0.02105551 -0.01764464 1000
lala 11 0.6 1 first 4 1 201 6 3.18 0.01999831199646 -1 0 1 0 -0.01504179 -0.01376989 -0.0135427 1000 1000 1000 -0.01504179 -0.01376989 -0.0135427 1000 1000 1000 -0.01353054 -0.01360805 -0.01329084 -0.01326734 -0.01409469 1000 -0.01353054 -0.01360805 -0.01329084 -0.01326734 -0.01409469 1000
lala 12 0.3 0 second 17 1 202 6 2.88 0.259998083114624 0 1 -1 1 -0.01304912 -0.01200136 -0.01163562 -0.01138253 -0.01145368 1000 -0.01304912 -0.01200136 -0.01163562 -0.01138253 -0.01145368 1000 -0.01244781 -0.01307807 -0.01311207 -0.01266616 -0.01278687 1000 -0.01244781 -0.01307807 -0.01311207 -0.01266616 -0.01278687 1000
lala 5 1.2 1 second 12 1 203 4 2.64 0.01999831199646 0 0 1 0 -0.01266572 -0.01266089 -0.0128772 -0.01314996 -0.01321166 1000 -0.01266572 -0.01266089 -0.0128772 -0.01314996 -0.01321166 1000 -0.01413948 -0.01420006 -0.01482011 -0.01483012 -0.01439281 1000 -0.01413948 -0.01420006 -0.01482011 -0.01483012 -0.01439281 1000
lala 17 0.3 0 second 8 1 204 5 2.55 0.339998006820679 1 0 -1 1 -0.01485143 -0.01482339 -0.01482693 -0.01472285 -0.01449764 1000 -0.01485143 -0.01482339 -0.01482693 -0.01472285 -0.01449764 1000 -0.01584869 -0.01662464 -0.01608212 -0.01586721 -0.01624774 1000 -0.01584869 -0.01662464 -0.01608212 -0.01586721 -0.01624774 1000
lala 13 0.15 1 first 2 1 205 5 4.05 0.01999831199646 -1 0 1 1 -0.0164288 -0.01618088 -0.01564373 1000 1000 1000 -0.0164288 -0.01618088 -0.01564373 1000 1000 1000 -0.01703599 -0.01691758 -0.01676864 -0.01660675 -0.01658354 1000 -0.01703599 -0.01691758 -0.01676864 -0.01660675 -0.01658354 1000
lala 18 0.3 0 first 8 1 206 5 2.85 0.339998006820679 1 0 -1 0 -0.0168267 -0.01645297 -0.01655471 1000 1000 1000 -0.0168267 -0.01645297 -0.01655471 1000 1000 1000 -0.01714709 -0.01705273 -0.01735014 -0.01744976 -0.01746561 1000 -0.01714709 -0.01705273 -0.01735014 -0.01744976 -0.01746561 1000
lala 15 0.15 1 first 7 1 207 4 2.37 1.05999732017517 1 1 1 0 -0.01874195 -0.01911459 -0.01882452 1000 1000 1000 -0.01874195 -0.01911459 -0.01882452 1000 1000 1000 -0.01828292 -0.01802404 -0.01829092 -0.01825257 -0.0175232 1000 -0.01828292 -0.01802404 -0.01829092 -0.01825257 -0.0175232 1000
lala 10 0.6 0 second 0 1 208 4 2.04 0.759997606277466 -1 0 -1 1 -0.01912156 -0.0196381 -0.01975535 -0.01994007 -0.02046727 1000 -0.01912156 -0.0196381 -0.01975535 -0.01994007 -0.02046727 1000 -0.02062726 -0.02005294 -0.0199498 -0.02028111 -0.02013496 1000 -0.02062726 -0.02005294 -0.0199498 -0.02028111 -0.02013496 1000
lala 17 0.3 1 second 10 1 209 6 2.28 0.659997701644897 1 0 1 0 -0.0206966 -0.02115002 -0.02110794 -0.02092828 -0.02125318 1000 -0.0206966 -0.02115002 -0.02110794 -0.02092828 -0.02125318 1000 -0.02105723 -0.01902403 -0.01650607 -0.01551866 -0.0148825 1000 -0.02105723 -0.01902403 -0.01650607 -0.01551866 -0.0148825 1000
lala 13 0.3 0 second 14 1 210 5 2.55 0.61999773979187 0 0 -1 0 -0.01985707 -0.01666913 -0.0136604 -0.01429189 -0.01482949 1000 -0.01985707 -0.01666913 -0.0136604 -0.01429189 -0.01482949 1000 -0.0148746 -0.01690235 -0.01787576 -0.02104863 -0.02203769 1000 -0.0148746 -0.01690235 -0.01787576 -0.02104863 -0.02203769 1000
lala 19 0.3 1 first 8 1 211 5 3.15 0.299998044967651 1 0 1 0 -0.02514868 -0.02538303 -0.02554717 1000 1000 1000 -0.02514868 -0.02538303 -0.02554717 1000 1000 1000 -0.02186254 -0.02241682 -0.02216274 -0.02241671 -0.02208398 1000 -0.02186254 -0.02241682 -0.02216274 -0.02241671 -0.02208398 1000
lala 13 0.15 1 second 15 1 212 5 2.45 0.179998159408569 0 1 1 0 -0.02331506 -0.02397701 -0.02373271 -0.02328393 -0.02334161 1000 -0.02331506 -0.02397701 -0.02373271 -0.02328393 -0.02334161 1000 -0.0232106 -0.02147978 -0.02113279 -0.02115776 -0.02163713 1000 -0.0232106 -0.02147978 -0.02113279 -0.02115776 -0.02163713 1000
lala 18 0.3 0 first 10 1 213 6 1.98 0.319998025894165 1 0 -1 0 -0.02090425 -0.021282 -0.02096388 1000 1000 1000 -0.02090425 -0.021282 -0.02096388 1000 1000 1000 -0.02050269 -0.02012586 -0.01934214 -0.01961423 -0.020259 1000 -0.02050269 -0.02012586 -0.01934214 -0.01961423 -0.020259 1000
lala 15 0.6 1 second 3 1 214 5 3.05 0.299998044967651 -1 1 1 0 -0.020731 -0.02077141 -0.02005242 -0.02064877 -0.0208403 1000 -0.020731 -0.02077141 -0.02005242 -0.02064877 -0.0208403 1000 -0.02182945 -0.02160924 -0.0214697 -0.0214497 -0.02138197 1000 -0.02182945 -0.02160924 -0.0214697 -0.0214497 -0.02138197 1000
lala 12 0.3 1 first 4 1 215 6 2.88 0.079998254776001 -1 0 1 1 -0.02046073 -0.0199625 -0.02014461 1000 1000 1000 -0.02046073 -0.0199625 -0.02014461 1000 1000 1000 -0.02039278 -0.02080679 -0.02047071 -0.02002061 -0.02017263 1000 -0.02039278 -0.02080679 -0.02047071 -0.02002061 -0.02017263 1000
lala 5 1.2 1 first 1 1 216 4 5.320001 0.0399982929229736 -1 1 1 1 -0.02110393 -0.02081405 -0.02118218 1000 1000 1000 -0.02110393 -0.02081405 -0.02118218 1000 1000 1000 -0.02097708 -0.0203989 -0.02018106 -0.02007862 -0.02024327 1000 -0.02097708 -0.0203989 -0.02018106 -0.02007862 -0.02024327 1000
lala 14 0.3 0 first 14 1 217 5 2.85 1.45999693870544 0 0 -1 1 -0.02013573 -0.02019922 -0.02079 1000 1000 1000 -0.02013573 -0.02019922 -0.02079 1000 1000 1000 -0.02225997 -0.02203614 -0.02386474 -0.02412319 -0.02467059 1000 -0.02225997 -0.02203614 -0.02386474 -0.02412319 -0.02467059 1000
lala 13 0.15 1 second 17 1 218 6 3.03 0.159998178482056 0 1 1 1 -0.007450127 -0.006277221 -0.007526421 -0.01305655 -0.01389941 1000 -0.007450127 -0.006277221 -0.007526421 -0.01305655 -0.01389941 1000 0.001124739 0.007101011 0.00696502 0.004841855 0.003878255 1000 0.001124739 0.007101011 0.00696502 0.004841855 0.003878255 1000
lala 11 0.3 1 second 0 1 219 4 2.34 0.0599982738494873 -1 0 1 0 -0.002825026 -0.002012259 -0.001648268 -0.002108148 -0.002579474 1000 -0.002825026 -0.002012259 -0.001648268 -0.002108148 -0.002579474 1000 -0.003377573 -0.004141697 -0.005651813 -0.005802041 -0.006723957 1000 -0.003377573 -0.004141697 -0.005651813 -0.005802041 -0.006723957 1000
lala 13 0.3 1 first 4 1 220 6 2.58 0.139998197555542 -1 0 1 0 -0.007982524 -0.008481336 -0.00862682 1000 1000 1000 -0.007982524 -0.008481336 -0.00862682 1000 1000 1000 -0.01358692 -0.01374759 -0.0144358 -0.01485977 -0.01500071 1000 -0.01358692 -0.01374759 -0.0144358 -0.01485977 -0.01500071 1000
lala 19 0.15 0 first 10 1 221 6 2.13 0.259998083114624 1 0 -1 1 -0.01527185 -0.01518988 -0.01524854 1000 1000 1000 -0.01527185 -0.01518988 -0.01524854 1000 1000 1000 -0.01590579 -0.01620626 -0.01664049 -0.01639701 -0.01610623 1000 -0.01590579 -0.01620626 -0.01664049 -0.01639701 -0.01610623 1000
lala 10 0.6 0 first 9 1 222 5 3.65 0.139998197555542 1 1 -1 0 -0.0170496 -0.01776054 -0.01801766 1000 1000 1000 -0.0170496 -0.01776054 -0.01801766 1000 1000 1000 -0.01898705 -0.01896351 -0.01824781 -0.01769912 -0.0181061 1000 -0.01898705 -0.01896351 -0.01824781 -0.01769912 -0.0181061 1000
lala 14 0.3 1 second 4 1 223 6 2.28 -2.40000009536743 -1 0 1 0 -0.01904368 -0.01895939 -0.01921514 -0.01995872 -0.01952426 1000 -0.01904368 -0.01895939 -0.01921514 -0.01995872 -0.01952426 1000 -0.0202618 -0.02004169 -0.02028035 -0.02026713 -0.02050129 1000 -0.0202618 -0.02004169 -0.02028035 -0.02026713 -0.02050129 1000
lala 14 0.075 0 second 17 1 224 6 2.955 0.519997835159302 0 1 -1 1 -0.01967248 -0.0211843 -0.0207001 -0.01987303 -0.01972327 1000 -0.01967248 -0.0211843 -0.0207001 -0.01987303 -0.01972327 1000 -0.01988686 -0.02023048 -0.02054117 -0.02076001 -0.02070167 1000 -0.01988686 -0.02023048 -0.02054117 -0.02076001 -0.02070167 1000
lala 6 1.2 0 second 12 1 225 4 1.44 0.379997968673706 0 0 -1 0 -0.01983022 -0.01971396 -0.01973592 -0.01959384 -0.01959988 1000 -0.01983022 -0.01971396 -0.01973592 -0.01959384 -0.01959988 1000 -0.019764 -0.01966884 -0.02002783 -0.01960178 -0.01950452 1000 -0.019764 -0.01966884 -0.02002783 -0.01960178 -0.01950452 1000
lala 11 0.3 1 second 6 1 226 4 2.34 0.579997777938843 1 0 1 0 -0.0208877 -0.02151675 -0.02137298 -0.02016009 -0.02000284 1000 -0.0208877 -0.02151675 -0.02137298 -0.02016009 -0.02000284 1000 -0.02209332 -0.02211764 -0.02208019 -0.02263487 -0.02149099 1000 -0.02209332 -0.02211764 -0.02208019 -0.02263487 -0.02149099 1000
lala 14 0.075 0 second 15 1 227 5 2.375 0.23999810218811 0 1 -1 0 -0.003173398 -0.006493637 -0.006770804 -0.006249465 -0.006067155 1000 -0.003173398 -0.006493637 -0.006770804 -0.006249465 -0.006067155 1000 -0.007706469 -0.007992924 -0.007953144 -0.008368113 -0.007627007 1000 -0.007706469 -0.007992924 -0.007953144 -0.008368113 -0.007627007 1000
lala 15 0.3 1 second 14 1 228 5 3.15 0.439997911453247 0 0 1 1 -0.01484785 -0.0155298 -0.01606041 -0.01704638 -0.01818209 1000 -0.01484785 -0.0155298 -0.01606041 -0.01704638 -0.01818209 1000 -0.01905007 -0.01986867 -0.01961603 -0.01988931 -0.0205001 1000 -0.01905007 -0.01986867 -0.01961603 -0.01988931 -0.0205001 1000
lala 5 1.2 1 first 13 1 229 4 2.92 0.459997892379761 0 1 1 1 -0.02269584 -0.02241085 -0.02229943 1000 1000 1000 -0.02269584 -0.02241085 -0.02229943 1000 1000 1000 -0.02503747 -0.02495087 -0.02471288 -0.02307795 -0.02174601 1000 -0.02503747 -0.02495087 -0.02471288 -0.02307795 -0.02174601 1000
lala 13 4.8 1 second 5 1 230 6 6.78 0.199998140335083 -1 1 1 1 -0.01400181 -0.01024411 -0.007606806 -0.006994781 -0.007892979 1000 -0.01400181 -0.01024411 -0.007606806 -0.006994781 -0.007892979 1000 -0.009971204 -0.009951832 -0.009559289 -0.01000516 -0.01013869 1000 -0.009971204 -0.009951832 -0.009559289 -0.01000516 -0.01013869 1000
lala 12 0.15 0 second 0 1 231 4 2.19 0.339998006820679 -1 0 -1 0 -0.01147724 -0.01150569 -0.01150988 -0.01126805 -0.01082882 1000 -0.01147724 -0.01150569 -0.01150988 -0.01126805 -0.01082882 1000 -0.01210611 -0.01229604 -0.01146482 -0.01092945 -0.0113091 1000 -0.01210611 -0.01229604 -0.01146482 -0.01092945 -0.0113091 1000
lala 12 0.15 1 second 6 1 232 4 2.19 0.459997892379761 1 0 1 0 -0.01255799 -0.01288213 -0.01333536 -0.01294465 -0.01253625 1000 -0.01255799 -0.01288213 -0.01333536 -0.01294465 -0.01253625 1000 -0.0129096 -0.01288096 -0.01321918 -0.0137055 -0.01356259 1000 -0.0129096 -0.01288096 -0.01321918 -0.0137055 -0.01356259 1000
lala 14 0.15 1 first 2 1 233 5 3.9 0.01999831199646 -1 0 1 0 -0.01259699 -0.01307431 -0.01356936 1000 1000 1000 -0.01259699 -0.01307431 -0.01356936 1000 1000 1000 -0.01318001 -0.01283456 -0.01329251 -0.01335001 -0.01268677 1000 -0.01318001 -0.01283456 -0.01329251 -0.01335001 -0.01268677 1000
lala 20 1.2 0 first 16 1 234 6 2.01 2.01999664306641 0 0 -1 1 -0.01316961 -0.01289473 -0.01349549 1000 1000 1000 -0.01316961 -0.01289473 -0.01349549 1000 1000 1000 -0.01454507 -0.01418439 -0.0142337 -0.01493168 -0.01464055 1000 -0.01454507 -0.01418439 -0.0142337 -0.01493168 -0.01464055 1000
lala 15 0.0375 1 first 17 1 235 6 2.9925 0.01999831199646 0 1 1 0 -0.01769295 -0.01728714 -0.0170677 1000 1000 1000 -0.01769295 -0.01728714 -0.0170677 1000 1000 1000 -0.0177431 -0.01871888 -0.01877898 -0.01822482 -0.01813437 1000 -0.0177431 -0.01871888 -0.01877898 -0.01822482 -0.01813437 1000
lala 16 0.3 1 first 3 1 236 5 2.75 0.219998121261597 -1 1 1 1 -0.01979255 -0.01956457 -0.0190319 1000 1000 1000 -0.01979255 -0.01956457 -0.0190319 1000 1000 1000 -0.01830924 -0.01930938 -0.01939373 -0.01885728 -0.0186092 1000 -0.01830924 -0.01930938 -0.01939373 -0.01885728 -0.0186092 1000
lala 7 1.2 0 second 12 1 237 4 2.64 0.0999982357025146 0 0 -1 1 -0.01817681 -0.01781999 -0.01729501 -0.01800531 -0.01854396 1000 -0.01817681 -0.01781999 -0.01729501 -0.01800531 -0.01854396 1000 -0.01702255 -0.01822362 -0.0182304 -0.01756236 -0.0173625 1000 -0.01702255 -0.01822362 -0.0182304 -0.01756236 -0.0173625 1000
lala 16 0.15 1 second 14 1 238 5 3 0.39999794960022 0 0 1 1 -0.01843337 -0.01773883 -0.01790838 -0.01821305 -0.01784132 1000 -0.01843337 -0.01773883 -0.01790838 -0.01821305 -0.01784132 1000 -0.01791266 -0.01799066 -0.0185681 -0.01802448 -0.0170358 1000 -0.01791266 -0.01799066 -0.0185681 -0.01802448 -0.0170358 1000
lala 13 0.15 0 second 6 1 239 4 2.04 1.79999685287476 1 0 -1 1 -0.01789999 -0.01776722 -0.01820777 -0.01820377 -0.01768054 1000 -0.01789999 -0.01776722 -0.01820777 -0.01820377 -0.01768054 1000 -0.0187734 -0.01844496 -0.01834627 -0.01835311 -0.01848915 1000 -0.0187734 -0.01844496 -0.01834627 -0.01835311 -0.01848915 1000
lala 16 0.15 1 first 7 1 240 4 2.22 0.299998044967651 1 1 1 0 -0.019635 -0.01933582 -0.01903444 1000 1000 1000 -0.019635 -0.01933582 -0.01903444 1000 1000 1000 -0.0205595 -0.02024329 -0.02008869 -0.02017507 -0.02039131 1000 -0.0205595 -0.02024329 -0.02008869 -0.02017507 -0.02039131 1000
lala 17 0.15 1 first 7 1 241 4 2.07 0.159998178482056 1 1 1 1 -0.02075857 -0.0208225 -0.02066713 1000 1000 1000 -0.02075857 -0.0208225 -0.02066713 1000 1000 1000 -0.02200406 -0.02178848 -0.0219759 -0.02220386 -0.02203494 1000 -0.02200406 -0.02178848 -0.0219759 -0.02220386 -0.02203494 1000
lala 8 1.2 1 second 12 1 242 4 3.84 0.159998178482056 0 0 1 1 -0.02164032 -0.0213453 -0.02093216 -0.0214765 -0.02164183 1000 -0.02164032 -0.0213453 -0.02093216 -0.0214765 -0.02164183 1000 -0.02243378 -0.02252102 -0.02197375 -0.02211559 -0.02261277 1000 -0.02243378 -0.02252102 -0.02197375 -0.02211559 -0.02261277 1000
lala 14 0.075 1 second 6 1 243 4 2.115 0.0399982929229736 1 0 1 1 -0.02400432 -0.02429382 -0.02400849 -0.02397697 -0.02428467 1000 -0.02400432 -0.02429382 -0.02400849 -0.02397697 -0.02428467 1000 -0.02502611 -0.02548902 -0.02493503 -0.02416769 -0.02412612 1000 -0.02502611 -0.02548902 -0.02493503 -0.02416769 -0.02412612 1000
lala 13 0.3 0 first 11 1 244 6 2.580001 0.679997682571411 1 1 -1 1 -0.02481544 -0.02440077 -0.0239945 1000 1000 1000 -0.02481544 -0.02440077 -0.0239945 1000 1000 1000 -0.02415317 -0.0237971 -0.02447231 -0.02458566 -0.02390476 1000 -0.02415317 -0.0237971 -0.02447231 -0.02458566 -0.02390476 1000
lala 15 0.6 0 second 4 1 245 6 1.98 0.979997396469116 -1 0 -1 1 -0.02443598 -0.02485817 -0.02428341 -0.02385546 -0.02404749 1000 -0.02443598 -0.02485817 -0.02428341 -0.02385546 -0.02404749 1000 -0.02534587 -0.02552417 -0.02567451 -0.02602837 -0.02620678 1000 -0.02534587 -0.02552417 -0.02567451 -0.02602837 -0.02620678 1000
lala 17 0.3 0 second 3 1 246 5 2.45 0.539997816085815 -1 1 -1 1 -0.02527942 -0.02507263 -0.02524721 -0.02569192 -0.02585468 1000 -0.02527942 -0.02507263 -0.02524721 -0.02569192 -0.02585468 1000 -0.02691145 -0.02676269 -0.02731194 -0.02770462 -0.02678564 1000 -0.02691145 -0.02676269 -0.02731194 -0.02770462 -0.02678564 1000
lala 15 0.15 1 second 2 1 247 5 3.75 0.219998121261597 -1 0 1 0 -0.007799692 -0.007576142 -0.008281629 -0.00722676 -0.00660239 1000 -0.007799692 -0.007576142 -0.008281629 -0.00722676 -0.00660239 1000 -0.009235665 -0.009585519 -0.009770254 -0.009578118 -0.008847377 1000 -0.009235665 -0.009585519 -0.009770254 -0.009578118 -0.008847377 1000
lala 6 1.2 1 second 13 1 248 4 1.72 0.0399982929229736 0 1 1 0 -0.009689945 -0.01080371 -0.01107969 -0.01151286 -0.01159403 1000 -0.009689945 -0.01080371 -0.01107969 -0.01151286 -0.01159403 1000 -0.01023558 -0.01075901 -0.01177221 -0.01178185 -0.01211367 1000 -0.01023558 -0.01075901 -0.01177221 -0.01178185 -0.01211367 1000
lala 20 0.15 1 first 8 1 249 5 3 1.73999691009521 1 0 1 1 -0.01396293 -0.01422012 -0.01432545 1000 1000 1000 -0.01396293 -0.01422012 -0.01432545 1000 1000 1000 -0.01551073 -0.01589399 -0.01536266 -0.01503339 -0.01500593 1000 -0.01551073 -0.01589399 -0.01536266 -0.01503339 -0.01500593 1000
lala 13 0.075 0 first 0 1 250 4 2.265 0.419997930526733 -1 0 -1 1 -0.01986829 -0.02234106 -0.02418902 -0.02500354 -0.02571044 -0.02524061 -0.01986829 -0.02234106 -0.02418902 -0.02500354 -0.02571044 -0.02524061 0.001259768 -0.002264701 -0.005579974 -0.005769891 -0.004990569 1000 0.001259768 -0.002264701 -0.005579974 -0.005769891 -0.004990569 1000
lala 16 0.01875 1 second 17 1 251 6 2.97375 0.499997854232788 0 1 1 0 -0.007614473 -0.006079963 -0.005637772 -0.007450959 -0.008891812 1000 -0.007614473 -0.006079963 -0.005637772 -0.007450959 -0.008891812 1000 -0.007629328 -0.008890997 -0.008571952 -0.00742031 -0.007105285 1000 -0.007629328 -0.008890997 -0.008571952 -0.00742031 -0.007105285 1000
lala 9 1.2 1 first 12 1 252 4 2.64 0.0399982929229736 0 0 1 0 -0.01061164 -0.01003878 -0.009981248 1000 1000 1000 -0.01061164 -0.01003878 -0.009981248 1000 1000 1000 -0.01274326 -0.01279476 -0.01328371 -0.01291978 -0.01288246 1000 -0.01274326 -0.01279476 -0.01328371 -0.01291978 -0.01288246 1000
lala 15 0.0375 0 first 15 1 253 5 2.4125 0.299998044967651 0 1 -1 1 -0.01462695 -0.01479566 -0.01487862 1000 1000 1000 -0.01462695 -0.01479566 -0.01487862 1000 1000 1000 -0.0158755 -0.01539369 -0.01563005 -0.01612145 -0.01612139 1000 -0.0158755 -0.01539369 -0.01563005 -0.01612145 -0.01612139 1000
lala 18 0.15 0 second 3 1 254 5 2.6 0.139998197555542 -1 1 -1 1 -0.01748517 -0.01785594 -0.01763395 -0.01782758 -0.01733587 1000 -0.01748517 -0.01785594 -0.01763395 -0.01782758 -0.01733587 1000 -0.01895259 -0.01917775 -0.01953647 -0.0194458 -0.01936307 1000 -0.01895259 -0.01917775 -0.01953647 -0.0194458 -0.01936307 1000
lala 10 1.2 0 first 12 1 255 4 1.44 0.159998178482056 0 0 -1 0 -0.01988494 -0.02006084 -0.01975814 1000 1000 1000 -0.01988494 -0.02006084 -0.01975814 1000 1000 1000 -0.02150537 -0.02138843 -0.02072878 -0.01999429 -0.02017373 1000 -0.02150537 -0.02138843 -0.02072878 -0.01999429 -0.02017373 1000
lala 16 0.3 0 first 4 1 256 6 2.28 0.559997797012329 -1 0 -1 0 -0.02316854 -0.02368249 -0.02375823 1000 1000 1000 -0.02316854 -0.02368249 -0.02375823 1000 1000 1000 -0.02296889 -0.0234596 -0.02404339 -0.02346079 -0.02294743 1000 -0.02296889 -0.0234596 -0.02404339 -0.02346079 -0.02294743 1000
lala 17 0.15 1 second 14 1 257 5 2.85 0.079998254776001 0 0 1 1 -0.02423951 -0.0236297 -0.02273011 -0.02241819 -0.02257373 1000 -0.02423951 -0.0236297 -0.02273011 -0.02241819 -0.02257373 1000 -0.01449694 -0.01480142 -0.01526241 -0.01536997 -0.01489699 1000 -0.01449694 -0.01480142 -0.01526241 -0.01536997 -0.01489699 1000
lala 17 0.01875 1 second 17 1 258 6 2.955 0.599997758865356 0 1 1 1 -0.01725201 -0.01729182 -0.0172435 -0.01714276 -0.01688262 1000 -0.01725201 -0.01729182 -0.0172435 -0.01714276 -0.01688262 1000 -0.01757844 -0.01751899 -0.01809025 -0.01838887 -0.01798183 1000 -0.01757844 -0.01751899 -0.01809025 -0.01838887 -0.01798183 1000
lala 11 0.3 1 second 9 1 259 5 3.95 0.439997911453247 1 1 1 0 -0.01778393 -0.0182937 -0.01770483 -0.017356 -0.01724485 1000 -0.01778393 -0.0182937 -0.01770483 -0.017356 -0.01724485 1000 -0.01772413 -0.01762949 -0.01751581 -0.01779499 -0.01767255 1000 -0.01772413 -0.01762949 -0.01751581 -0.01779499 -0.01767255 1000
lala 20 0.15 1 second 10 1 260 6 2.28 1.01999735832214 1 0 1 1 -0.01778992 -0.01841573 -0.01886405 -0.0185772 -0.01789252 1000 -0.01778992 -0.01841573 -0.01886405 -0.0185772 -0.01789252 1000 -0.01807217 -0.01770906 -0.01789535 -0.0183177 -0.01821503 1000 -0.01807217 -0.01770906 -0.01789535 -0.0183177 -0.01821503 1000
lala 12 0.15 0 second 9 1 261 5 3.8 0.859997510910034 1 1 -1 0 -0.01888278 -0.01935432 -0.01915268 -0.01850433 -0.01816155 1000 -0.01888278 -0.01935432 -0.01915268 -0.01850433 -0.01816155 1000 -0.0184149 -0.01837814 -0.01814818 -0.01837145 -0.01831767 1000 -0.0184149 -0.01837814 -0.01814818 -0.01837145 -0.01831767 1000
lala 7 1.2 0 second 13 1 262 4 1.32 0.899997472763062 0 1 -1 0 -0.01745592 -0.01813041 -0.01839758 -0.01797118 -0.01787951 1000 -0.01745592 -0.01813041 -0.01839758 -0.01797118 -0.01787951 1000 -0.01811665 -0.0179892 -0.01812798 -0.01880413 -0.0188268 1000 -0.01811665 -0.0179892 -0.01812798 -0.01880413 -0.0188268 1000
lala 16 0.3 0 first 2 1 263 5 3.45 0.539997816085815 -1 0 -1 1 -0.01970548 -0.01975402 -0.01946663 1000 1000 1000 -0.01970548 -0.01975402 -0.01946663 1000 1000 1000 -0.01882836 -0.01876822 -0.01894769 -0.01925049 -0.01907707 1000 -0.01882836 -0.01876822 -0.01894769 -0.01925049 -0.01907707 1000
lala 14 2.4 0 first 5 1 264 6 4.38 0.419997930526733 -1 1 -1 1 -0.02012765 -0.02022907 -0.01950557 1000 1000 1000 -0.02012765 -0.02022907 -0.01950557 1000 1000 1000 -0.01964856 -0.01940571 -0.0195881 -0.01918306 -0.01894149 1000 -0.01964856 -0.01940571 -0.0195881 -0.01918306 -0.01894149 1000
lala 13 0.075 1 second 9 1 265 5 3.875 1.81999683380127 1 1 1 1 -0.02044336 -0.02080892 -0.02093799 -0.02036167 -0.02006094 1000 -0.02044336 -0.02080892 -0.02093799 -0.02036167 -0.02006094 1000 -0.02016212 -0.02023009 -0.02032697 -0.02059113 -0.02081258 1000 -0.02016212 -0.02023009 -0.02032697 -0.02059113 -0.02081258 1000
lala 15 1.2 1 first 5 1 266 6 5.58 0.259998083114624 -1 1 1 0 -0.02168997 -0.02151014 -0.02095983 1000 1000 1000 -0.02168997 -0.02151014 -0.02095983 1000 1000 1000 -0.02183261 -0.02165416 -0.02132325 -0.0210159 -0.02112444 1000 -0.02183261 -0.02165416 -0.02132325 -0.0210159 -0.02112444 1000
lala 18 0.3 0 first 7 1 267 4 1.77 0.0599982738494873 1 1 -1 0 -0.02278733 -0.02243039 -0.02276268 1000 1000 1000 -0.02278733 -0.02243039 -0.02276268 1000 1000 1000 -0.02271605 -0.02246452 -0.02270454 -0.0223592 -0.02212873 1000 -0.02271605 -0.02246452 -0.02270454 -0.0223592 -0.02212873 1000
lala 19 0.15 1 second 7 1 268 4 1.92 0.439997911453247 1 1 1 0 -0.02242527 -0.02268559 -0.0227387 -0.02207962 -0.02215781 1000 -0.02242527 -0.02268559 -0.0227387 -0.02207962 -0.02215781 1000 -0.02271436 -0.02276078 -0.02208789 -0.02209141 -0.02254864 1000 -0.02271436 -0.02276078 -0.02208789 -0.02209141 -0.02254864 1000
lala 15 0.0375 1 first 6 1 269 4 2.0775 0.01999831199646 1 0 1 0 -0.02280296 -0.02242965 -0.02183631 1000 1000 1000 -0.02280296 -0.02242965 -0.02183631 1000 1000 1000 -0.02259447 -0.02259032 -0.02238362 -0.02205071 -0.02189253 1000 -0.02259447 -0.02259032 -0.02238362 -0.02205071 -0.02189253 1000
lala 16 0.0375 0 first 15 1 270 5 2.45 0.199998140335083 0 1 -1 1 -0.0223587 -0.02229713 -0.02235772 1000 1000 1000 -0.0223587 -0.02229713 -0.02235772 1000 1000 1000 -0.02224466 -0.0224276 -0.02215322 -0.02183943 -0.02148141 1000 -0.02224466 -0.0224276 -0.02215322 -0.02183943 -0.02148141 1000
lala 17 0.0375 0 second 15 1 271 5 2.4875 0.599997758865356 0 1 -1 0 -0.02216123 -0.0225881 -0.02172266 -0.02134754 -0.02154399 1000 -0.02216123 -0.0225881 -0.02172266 -0.02134754 -0.02154399 1000 -0.0222623 -0.02194845 -0.02174085 -0.02164161 -0.02116297 1000 -0.0222623 -0.02194845 -0.02174085 -0.02164161 -0.02116297 1000
lala 11 0.6 1 second 12 1 272 4 2.04 0.419997930526733 0 0 1 1 -0.02068825 -0.02090204 -0.02057814 -0.02038836 -0.02048651 1000 -0.02068825 -0.02090204 -0.02057814 -0.02038836 -0.02048651 1000 -0.02070252 -0.02036555 -0.01994549 -0.01990697 -0.01989034 1000 -0.02070252 -0.02036555 -0.01994549 -0.01990697 -0.01989034 1000
lala 16 0.0375 1 first 6 1 273 4 2.04 0.23999810218811 1 0 1 1 -0.0201198 -0.01954155 -0.0192042 1000 1000 1000 -0.0201198 -0.01954155 -0.0192042 1000 1000 1000 -0.01858554 -0.01884918 -0.01848987 -0.01807859 -0.01758508 1000 -0.01858554 -0.01884918 -0.01848987 -0.01807859 -0.01758508 1000
lala 17 0.0375 1 second 6 1 274 4 2.0025 0.23999810218811 1 0 1 0 -0.01939608 -0.01939239 -0.01885115 -0.01899202 -0.01968651 1000 -0.01939608 -0.01939239 -0.01885115 -0.01899202 -0.01968651 1000 -0.01898569 -0.01897194 -0.01898983 -0.01913262 -0.01926145 1000 -0.01898569 -0.01897194 -0.01898983 -0.01913262 -0.01926145 1000
lala 20 0.075 0 first 7 1 275 4 1.845 0.01999831199646 1 1 -1 1 -0.01950565 -0.01907878 -0.01863358 1000 1000 1000 -0.01950565 -0.01907878 -0.01863358 1000 1000 1000 -0.0195789 -0.01953997 -0.01960826 -0.01969141 -0.01962937 1000 -0.0195789 -0.01953997 -0.01960826 -0.01969141 -0.01962937 1000
lala 14 0.0375 0 second 9 1 276 5 3.8375 2.77999591827393 1 1 -1 1 -0.0198144 -0.0202458 -0.01981828 -0.01908824 -0.01898021 1000 -0.0198144 -0.0202458 -0.01981828 -0.01908824 -0.01898021 1000 -0.01917897 -0.01932242 -0.01937153 -0.0191923 -0.01894053 1000 -0.01917897 -0.01932242 -0.01937153 -0.0191923 -0.01894053 1000
lala 21 0.0375 0 second 7 1 277 4 1.8825 0.419997930526733 1 1 -1 0 -0.01998102 -0.02028609 -0.02011934 -0.01975545 -0.01985963 1000 -0.01998102 -0.02028609 -0.02011934 -0.01975545 -0.01985963 1000 -0.02018942 -0.02005097 -0.01999181 -0.01981566 -0.0195898 1000 -0.02018942 -0.02005097 -0.01999181 -0.01981566 -0.0195898 1000
lala 19 0.15 1 first 3 1 278 5 2.75 0.01999831199646 -1 1 1 1 -0.02223199 -0.0216945 -0.02174437 1000 1000 1000 -0.02223199 -0.0216945 -0.02174437 1000 1000 1000 -0.02201133 -0.02185104 -0.02150671 -0.02176214 -0.02191489 1000 -0.02201133 -0.02185104 -0.02150671 -0.02176214 -0.02191489 1000
lala 17 0.3 0 second 4 1 279 6 2.58 0.959997415542603 -1 0 -1 1 -0.02358689 -0.02385785 -0.02503 -0.028212 -0.03082824 1000 -0.02358689 -0.02385785 -0.02503 -0.028212 -0.03082824 1000 -0.004356274 -0.00303389 -0.002988118 -0.002405189 -0.006477175 1000 -0.004356274 -0.00303389 -0.002988118 -0.002405189 -0.006477175 1000
lala 20 0.075 1 first 3 1 280 5 2.675 2.85999584197998 -1 1 1 0 -0.01600989 -0.0145959 -0.01517195 1000 1000 1000 -0.01600989 -0.0145959 -0.01517195 1000 1000 1000 0.01355475 0.01304146 0.01162799 0.01098524 0.01058019 1000 0.01355475 0.01304146 0.01162799 0.01098524 0.01058019 1000
lala 21 0.15 1 second 8 1 281 5 2.85 0.01999831199646 1 0 1 0 0.004088851 0.004310631 0.0041254 0.004246959 0.005115266 1000 0.004088851 0.004310631 0.0041254 0.004246959 0.005115266 1000 0.003728566 0.003557197 0.003311453 0.003420189 0.003338342 1000 0.003728566 0.003557197 0.003311453 0.003420189 0.003338342 1000
lala 8 1.2 1 second 13 1 282 4 2.52 0.0999982357025146 0 1 1 0 0.002082057 0.001691067 0.001471031 0.001855352 0.002403297 1000 0.002082057 0.001691067 0.001471031 0.001855352 0.002403297 1000 0.003517922 0.003944196 0.00404682 0.004238081 0.004075915 1000 0.003517922 0.003944196 0.00404682 0.004238081 0.004075915 1000
lala 21 0.6 0 second 16 1 283 6 2.61 0.299998044967651 0 0 -1 0 0.003725807 0.003974328 0.003777971 0.003541582 0.003606959 1000 0.003725807 0.003974328 0.003777971 0.003541582 0.003606959 1000 0.002628558 0.002344648 0.002165084 0.001990754 0.00306357 1000 0.002628558 0.002344648 0.002165084 0.001990754 0.00306357 1000
lala 21 0.075 1 second 3 1 284 5 2.6 0.159998178482056 -1 1 1 1 0.003219501 0.00253869 0.002395718 0.002279722 0.001856164 1000 0.003219501 0.00253869 0.002395718 0.002279722 0.001856164 1000 0.0004311643 0.0001805845 0.0006069248 0.0007283818 0.0004996785 1000 0.0004311643 0.0001805845 0.0006069248 0.0007283818 0.0004996785 1000
lala 14 0.3 1 first 11 1 285 6 2.880001 0.01999831199646 1 1 1 1 0.0002064852 0.0008367997 0.001085707 1000 1000 1000 0.0002064852 0.0008367997 0.001085707 1000 1000 1000 -0.0001163541 -0.0002138133 7.539502E-05 -0.0001449046 0.0003428351 1000 -0.0001163541 -0.0002138133 7.539502E-05 -0.0001449046 0.0003428351 1000
lala 6 1.2 1 second 1 1 286 4 4.120001 0.279998064041138 -1 1 1 0 -0.0006939574 -0.0009205044 -0.0006745273 -0.0005369125 -0.0008161876 1000 -0.0006939574 -0.0009205044 -0.0006745273 -0.0005369125 -0.0008161876 1000 -0.000339705 -0.0008217662 -0.0005768112 -0.0001751548 -0.0002692027 1000 -0.000339705 -0.0008217662 -0.0005768112 -0.0001751548 -0.0002692027 1000
lala 22 0.0375 0 first 7 1 287 4 1.92 0.01999831199646 1 1 -1 0 -0.00190421 -0.001635926 -0.001215976 1000 1000 1000 -0.00190421 -0.001635926 -0.001215976 1000 1000 1000 -0.001979118 -0.001537581 -0.001177843 -0.001085906 -0.000961857 1000 -0.001979118 -0.001537581 -0.001177843 -0.001085906 -0.000961857 1000
lala 15 0.15 1 first 11 1 288 6 2.730001 0.01999831199646 1 1 1 0 -0.003095629 -0.00263283 -0.002796447 1000 1000 1000 -0.003095629 -0.00263283 -0.002796447 1000 1000 1000 -0.003544656 -0.003225589 -0.002778675 -0.002948389 -0.003059003 1000 -0.003544656 -0.003225589 -0.002778675 -0.002948389 -0.003059003 1000
lala 16 0.6 1 first 5 1 289 6 4.98 0.739997625350952 -1 1 1 0 -0.003357737 -0.003299097 -0.003212341 1000 1000 1000 -0.003357737 -0.003299097 -0.003212341 1000 1000 1000 -0.003886967 -0.004339275 -0.004245675 -0.003558403 -0.003338093 1000 -0.003886967 -0.004339275 -0.004245675 -0.003558403 -0.003338093 1000
lala 17 0.6 0 second 5 1 290 6 4.38 0.339998006820679 -1 1 -1 0 -0.003524184 -0.003855187 -0.003527 -0.003451481 -0.003566106 1000 -0.003524184 -0.003855187 -0.003527 -0.003451481 -0.003566106 1000 -0.003414467 -0.003384824 -0.003661454 -0.003970301 -0.003865641 1000 -0.003414467 -0.003384824 -0.003661454 -0.003970301 -0.003865641 1000
lala 18 0.15 0 first 14 1 291 5 2.7 0.519997835159302 0 0 -1 1 -0.003561165 -0.002913885 -0.003314213 1000 1000 1000 -0.003561165 -0.002913885 -0.003314213 1000 1000 1000 -0.001718139 -0.001708533 -0.001278174 -0.001140329 -0.001541121 1000 -0.001718139 -0.001708533 -0.001278174 -0.001140329 -0.001541121 1000
lala 23 0.0375 1 first 7 1 292 4 1.9575 0.819997549057007 1 1 1 0 -0.002025439 -0.001598109 -0.001708705 1000 1000 1000 -0.002025439 -0.001598109 -0.001708705 1000 1000 1000 -0.002417232 -0.002488622 -0.00235132 -0.002435945 -0.002423241 1000 -0.002417232 -0.002488622 -0.00235132 -0.002435945 -0.002423241 1000
lala 16 0.15 1 first 11 1 293 6 2.580001 0.319998025894165 1 1 1 0 -0.003834123 -0.003994474 -0.003806494 1000 1000 1000 -0.003834123 -0.003994474 -0.003806494 1000 1000 1000 -0.002708982 -0.002905291 -0.003424771 -0.004183341 -0.003780856 1000 -0.002708982 -0.002905291 -0.003424771 -0.004183341 -0.003780856 1000
lala 7 1.2 1 second 1 1 294 4 2.920001 0.139998197555542 -1 1 1 0 -0.003859744 -0.003859993 -0.003997752 -0.0042481 -0.004911578 1000 -0.003859744 -0.003859993 -0.003997752 -0.0042481 -0.004911578 1000 -0.00455244 -0.003870381 -0.003585881 -0.003473049 -0.003715529 1000 -0.00455244 -0.003870381 -0.003585881 -0.003473049 -0.003715529 1000
lala 19 0.075 1 first 14 1 295 5 2.775 0.01999831199646 0 0 1 0 -0.004175245 -0.00383769 -0.002799942 1000 1000 1000 -0.004175245 -0.00383769 -0.002799942 1000 1000 1000 -0.0006420022 -0.000826157 -0.001418778 -0.001716488 -0.001510257 1000 -0.0006420022 -0.000826157 -0.001418778 -0.001716488 -0.001510257 1000
lala 18 0.3 0 first 5 1 296 6 4.68 1.0999972820282 -1 1 -1 1 -0.001557377 -0.001368531 -0.001598035 1000 1000 1000 -0.001557377 -0.001368531 -0.001598035 1000 1000 1000 -0.003152512 -0.00276101 -0.002508436 -0.001601702 -0.001134664 1000 -0.003152512 -0.00276101 -0.002508436 -0.001601702 -0.001134664 1000
lala 24 0.01875 1 first 7 1 297 4 1.93875 1.59999680519104 1 1 1 1 0.0001055417 0.0001562175 -1.11443E-05 1000 1000 1000 0.0001055417 0.0001562175 -1.11443E-05 1000 1000 1000 -0.0001771306 -2.583776E-05 0.0001546521 -1.785658E-05 -0.0004015851 1000 -0.0001771306 -2.583776E-05 0.0001546521 -1.785658E-05 -0.0004015851 1000
lala 18 0.075 0 second 6 1 298 4 1.9275 1.25999712944031 1 0 -1 1 -0.004337741 -0.003065773 -0.003587811 -0.004346102 -0.004665102 1000 -0.004337741 -0.003065773 -0.003587811 -0.004346102 -0.004665102 1000 -0.008273114 -0.01006219 -0.009223342 -0.007838871 -0.006663219 1000 -0.008273114 -0.01006219 -0.009223342 -0.007838871 -0.006663219 1000
lala 12 0.3 1 second 12 1 299 4 1.74 0.579997777938843 0 0 1 0 0.008465183 0.008576016 0.008837387 0.007069168 0.007540708 1000 0.008465183 0.008576016 0.008837387 0.007069168 0.007540708 1000 0.01049104 0.0108404 0.0090278 0.009284432 0.01115908 1000 0.01049104 0.0108404 0.0090278 0.009284432 0.01115908 1000
lala 19 0.0375 1 second 6 1 300 4 1.965 0.0999982357025146 1 0 1 0 -0.01894304 -0.01881172 -0.01856796 -0.01814995 -0.01749739 1000 -0.01894304 -0.01881172 -0.01856796 -0.01814995 -0.01749739 1000 -0.0182616 -0.01825498 -0.01989522 -0.02061183 -0.02092812 1000 -0.0182616 -0.01825498 -0.01989522 -0.02061183 -0.02092812 1000
lala 25 0.01875 0 second 7 1 301 4 1.92 0.0399982929229736 1 1 -1 0 -0.02043694 -0.0205525 -0.02088026 -0.02089593 -0.02015819 1000 -0.02043694 -0.0205525 -0.02088026 -0.02089593 -0.02015819 1000 -0.0198014 -0.01968641 -0.01896938 -0.01845645 -0.01839479 1000 -0.0198014 -0.01968641 -0.01896938 -0.01845645 -0.01839479 1000
lala 22 0.6 1 second 16 1 302 6 3.21 0.159998178482056 0 0 1 1 -0.02207287 -0.02350991 -0.02303343 -0.023127 -0.02306155 1000 -0.02207287 -0.02350991 -0.02303343 -0.023127 -0.02306155 1000 -0.02057263 -0.01968106 -0.01954553 -0.01863891 -0.01745876 1000 -0.02057263 -0.01968106 -0.01954553 -0.01863891 -0.01745876 1000
lala 18 0.3 1 first 4 1 303 6 2.88 0.39999794960022 -1 0 1 0 -0.01947108 -0.01907126 -0.01887979 1000 1000 1000 -0.01947108 -0.01907126 -0.01887979 1000 1000 1000 -0.02687938 -0.02707743 -0.02607298 -0.0238882 -0.02131009 1000 -0.02687938 -0.02707743 -0.02607298 -0.0238882 -0.02131009 1000
lala 8 1.2 0 second 1 1 304 4 1.720001 0.659997701644897 -1 1 -1 1 0.01541894 0.01428617 0.01335385 0.01273735 0.01197069 1000 0.01541894 0.01428617 0.01335385 0.01273735 0.01197069 1000 0.008922186 0.009252137 0.009511114 0.007623428 0.006408006 1000 0.008922186 0.009252137 0.009511114 0.007623428 0.006408006 1000
lala 22 0.075 1 first 3 1 305 5 2.525 0.01999831199646 -1 1 1 0 0.004452907 0.004303267 0.003783225 1000 1000 1000 0.004452907 0.004303267 0.003783225 1000 1000 1000 -0.001183528 -0.002311679 -0.002716658 -0.001881015 -0.001928679 1000 -0.001183528 -0.002311679 -0.002716658 -0.001881015 -0.001928679 1000
lala 20 0.0375 1 second 14 1 306 5 2.7375 0.0399982929229736 0 0 1 1 -0.004334689 -0.004289713 -0.003816342 -0.00336376 -0.003449703 1000 -0.004334689 -0.004289713 -0.003816342 -0.00336376 -0.003449703 1000 -0.0009917822 -0.0003872306 -0.0002437537 -0.0003528546 -0.0007869634 1000 -0.0009917822 -0.0003872306 -0.0002437537 -0.0003528546 -0.0007869634 1000
lala 9 1.2 0 second 13 1 307 4 1.32 2.07999658584595 0 1 -1 0 -0.002095845 -0.002341008 -0.004181856 -0.006280858 -0.007286862 1000 -0.002095845 -0.002341008 -0.004181856 -0.006280858 -0.007286862 1000 -0.00824466 -0.00864014 -0.008673621 -0.007888042 -0.007425243 1000 -0.00824466 -0.00864014 -0.008673621 -0.007888042 -0.007425243 1000
lala 22 0.15 1 first 8 1 308 5 2.7 0.01999831199646 1 0 1 0 -0.006021965 -0.006447589 -0.005844872 1000 1000 1000 -0.006021965 -0.006447589 -0.005844872 1000 1000 1000 -0.004190224 -0.004264095 -0.003657593 -0.003156699 -0.003213813 1000 -0.004190224 -0.004264095 -0.003657593 -0.003156699 -0.003213813 1000
lala 17 0.15 1 second 2 1 309 5 3.6 0.259998083114624 -1 0 1 1 -0.005552696 -0.005371124 -0.004933726 -0.004813789 -0.004533861 1000 -0.005552696 -0.005371124 -0.004933726 -0.004813789 -0.004533861 1000 -0.005489536 -0.004931646 -0.004313832 -0.004457961 -0.004710464 1000 -0.005489536 -0.004931646 -0.004313832 -0.004457961 -0.004710464 1000
lala 18 0.075 1 second 15 1 310 5 2.5625 0.419997930526733 0 1 1 1 -0.005886622 -0.007381273 -0.007538325 -0.007627229 -0.007349142 1000 -0.005886622 -0.007381273 -0.007538325 -0.007627229 -0.007349142 1000 -0.008320612 -0.007926098 -0.007639763 -0.00789176 -0.007959596 1000 -0.008320612 -0.007926098 -0.007639763 -0.00789176 -0.007959596 1000
lala 10 0.6 1 first 13 1 311 4 1.92 1.11999726295471 0 1 1 1 -0.008931621 -0.009162745 -0.008944646 1000 1000 1000 -0.008931621 -0.009162745 -0.008944646 1000 1000 1000 -0.009150206 -0.008713165 -0.008949623 -0.008770595 -0.008203887 1000 -0.009150206 -0.008713165 -0.008949623 -0.008770595 -0.008203887 1000
lala 19 0.0375 0 first 15 1 312 5 2.525 0.39999794960022 0 1 -1 1 -0.0105327 -0.01002426 -0.009502199 1000 1000 1000 -0.0105327 -0.01002426 -0.009502199 1000 1000 1000 -0.008535146 -0.008292481 -0.008698042 -0.008994834 -0.008577454 1000 -0.008535146 -0.008292481 -0.008698042 -0.008994834 -0.008577454 1000
lala 18 0.01875 1 first 17 1 313 6 2.93625 1.05999732017517 0 1 1 1 -0.006133837 -0.005614559 -0.00651058 1000 1000 1000 -0.006133837 -0.005614559 -0.00651058 1000 1000 1000 -0.007160452 -0.00712362 -0.007206686 -0.007374439 -0.007325532 1000 -0.007160452 -0.00712362 -0.007206686 -0.007374439 -0.007325532 1000
lala 14 0.075 1 second 0 1 314 4 2.34 0.499997854232788 -1 0 1 1 -0.006294619 -0.007397722 -0.007689256 -0.007672994 -0.007571526 1000 -0.006294619 -0.007397722 -0.007689256 -0.007672994 -0.007571526 1000 -0.009452151 -0.007721336 -0.00917054 -0.008016841 -0.007669014 1000 -0.009452151 -0.007721336 -0.00917054 -0.008016841 -0.007669014 1000
lala 13 0.3 0 second 12 1 315 4 1.44 0.01999831199646 0 0 -1 0 -0.008342001 -0.008128253 -0.00879823 -0.008030298 -0.008158136 1000 -0.008342001 -0.008128253 -0.00879823 -0.008030298 -0.008158136 1000 -0.00803167 -0.00823451 -0.007634235 -0.007435776 -0.007829743 1000 -0.00803167 -0.00823451 -0.007634235 -0.007435776 -0.007829743 1000
lala 14 0.15 1 second 12 1 316 4 1.59 0.379997968673706 0 0 1 0 -0.009146772 -0.009256582 -0.009212078 -0.009147177 -0.009834578 1000 -0.009146772 -0.009256582 -0.009212078 -0.009147177 -0.009834578 1000 -0.009588719 -0.01009209 -0.01035349 -0.0100349 -0.0100029 1000 -0.009588719 -0.01009209 -0.01035349 -0.0100349 -0.0100029 1000
lala 19 0.3 1 second 5 1 317 6 4.98 0.0999982357025146 -1 1 1 0 -0.01026298 -0.01019977 -0.01047362 -0.01030111 -0.01004436 1000 -0.01026298 -0.01019977 -0.01047362 -0.01030111 -0.01004436 1000 -0.0118868 -0.01138266 -0.01107048 -0.01082469 -0.01076317 1000 -0.0118868 -0.01138266 -0.01107048 -0.01082469 -0.01076317 1000
lala 11 0.3 1 first 13 1 318 4 1.62 0.339998006820679 0 1 1 0 -0.01204321 -0.01251398 -0.01293253 1000 1000 1000 -0.01204321 -0.01251398 -0.01293253 1000 1000 1000 -0.0136073 -0.01352481 -0.01332763 -0.01327265 -0.01339946 1000 -0.0136073 -0.01352481 -0.01332763 -0.01327265 -0.01339946 1000
lala 12 0.3 0 first 13 1 319 4 1.32 0.179998159408569 0 1 -1 1 -0.01320117 -0.01285059 -0.01255989 1000 1000 1000 -0.01320117 -0.01285059 -0.01255989 1000 1000 1000 -0.01443154 -0.01464651 -0.01465394 -0.01449706 -0.01431265 1000 -0.01443154 -0.01464651 -0.01465394 -0.01449706 -0.01431265 1000
lala 19 0.0375 1 first 17 1 320 6 2.89875 0.579997777938843 0 1 1 0 -0.01448757 -0.01429374 -0.01396909 1000 1000 1000 -0.01448757 -0.01429374 -0.01396909 1000 1000 1000 -0.01248284 -0.01210463 -0.01208177 -0.01238217 -0.0125692 1000 -0.01248284 -0.01210463 -0.01208177 -0.01238217 -0.0125692 1000
lala 23 0.3 1 first 8 1 321 5 2.4 0.279998064041138 1 0 1 0 -0.01316387 -0.01315991 -0.01259671 1000 1000 1000 -0.01316387 -0.01315991 -0.01259671 1000 1000 1000 -0.01198565 -0.01188458 -0.01145658 -0.01171072 -0.01209806 1000 -0.01198565 -0.01188458 -0.01145658 -0.01171072 -0.01209806 1000
