subject PestNr Step_Size_OnTrial Pest_Faster Pest_Interval Condition block trial velH velH_Pest Reaction_Time velH_Subject Start_Above Response_MotionEstimation RightOrLeftxRotations_first0 xRotations_first1 xRotations_first2 xRotations_first3 xRotations_first4 xRotations_first5 yRotations_first0 yRotations_first1 yRotations_first2 yRotations_first3 yRotations_first4 yRotations_first5 xRotations_second0 xRotations_second1 xRotations_second2 xRotations_second3 xRotations_second4 xRotations_second5 yRotations_second0 yRotations_second1 yRotations_second2 yRotations_second3 yRotations_second4 yRotations_second5
lala 1 1.2 1 second 17 1 1 6 7.98 1.29999709129334 0 1 1 1 -0.008936424 -0.008545072 -0.008534611 -0.008389196 -0.007882451 1000 -0.008936424 -0.008545072 -0.008534611 -0.008389196 -0.007882451 1000 -0.007373305 -0.007675759 -0.007584685 -0.007319747 -0.00760918 1000 -0.007373305 -0.007675759 -0.007584685 -0.007319747 -0.00760918 1000
lala 1 1.2 1 first 7 1 2 4 5.32 0.879997491836548 1 1 1 1 -0.007780232 -0.00776878 -0.008148731 1000 1000 1000 -0.007780232 -0.00776878 -0.008148731 1000 1000 1000 -0.008282064 -0.008137396 -0.008529025 -0.008315589 -0.00801492 1000 -0.008282064 -0.008137396 -0.008529025 -0.008315589 -0.00801492 1000
lala 1 1.2 1 first 16 1 3 6 3.96 1.87999677658081 0 0 1 1 -0.007178466 -0.00734001 -0.007239516 1000 1000 1000 -0.007178466 -0.00734001 -0.007239516 1000 1000 1000 -0.008306592 -0.008189959 -0.007865982 -0.007893023 -0.007400478 1000 -0.008306592 -0.008189959 -0.007865982 -0.007893023 -0.007400478 1000
lala 1 1.2 0 first 12 1 4 4 2.64 0.319998025894165 0 0 -1 1 -0.00752405 -0.006931495 -0.006921893 1000 1000 1000 -0.00752405 -0.006931495 -0.006921893 1000 1000 1000 -0.007214291 -0.007031566 -0.007302382 -0.007191486 -0.007064903 1000 -0.007214291 -0.007031566 -0.007302382 -0.007191486 -0.007064903 1000
lala 2 1.2 1 second 17 1 5 6 6.780001 0.499997854232788 0 1 1 1 -0.006342121 -0.005962599 -0.006027388 -0.005833523 -0.005663727 1000 -0.006342121 -0.005962599 -0.006027388 -0.005833523 -0.005663727 1000 -0.006422813 -0.006474965 -0.006201766 -0.006655606 -0.006356061 1000 -0.006422813 -0.006474965 -0.006201766 -0.006655606 -0.006356061 1000
lala 1 1.2 1 second 15 1 6 5 6.65 0.499997854232788 0 1 1 0 -0.004973764 -0.005090802 -0.00482676 -0.005004954 -0.005469723 1000 -0.004973764 -0.005090802 -0.00482676 -0.005004954 -0.005469723 1000 -0.005728283 -0.005205272 -0.005367123 -0.00526811 -0.00486707 1000 -0.005728283 -0.005205272 -0.005367123 -0.00526811 -0.00486707 1000
lala 1 1.2 0 first 2 1 7 5 3.3 1.15999722480774 -1 0 -1 1 -0.003787156 -0.003773507 -0.004069243 1000 1000 1000 -0.003787156 -0.003773507 -0.004069243 1000 1000 1000 -0.00408707 -0.004402146 -0.004609628 -0.004374397 -0.004302951 1000 -0.00408707 -0.004402146 -0.004609628 -0.004374397 -0.004302951 1000
lala 1 1.2 1 second 9 1 8 5 6.65 0.459997892379761 1 1 1 0 -0.003777628 -0.003973861 -0.003542423 -0.003811212 -0.00360365 1000 -0.003777628 -0.003973861 -0.003542423 -0.003811212 -0.00360365 1000 -0.003192551 -0.003072532 -0.003573839 -0.003364094 -0.003211476 1000 -0.003192551 -0.003072532 -0.003573839 -0.003364094 -0.003211476 1000
lala 2 1.2 1 first 16 1 9 6 2.76 1.93999671936035 0 0 1 0 -0.002056287 -0.001774479 -0.001932759 1000 1000 1000 -0.002056287 -0.001774479 -0.001932759 1000 1000 1000 -0.002247173 -0.002029743 -0.002164857 -0.001940729 -0.001967539 1000 -0.002247173 -0.002029743 -0.002164857 -0.001940729 -0.001967539 1000
lala 2 1.2 1 second 7 1 10 4 4.12 0.799997568130493 1 1 1 1 0.0001037308 -1.177242E-05 0.0006437833 0.0004535449 0.000343825 1000 0.0001037308 -1.177242E-05 0.0006437833 0.0004535449 0.000343825 1000 0.001999417 0.001979783 0.001838189 0.002008216 0.001255784 1000 0.001999417 0.001979783 0.001838189 0.002008216 0.001255784 1000
lala 2 1.2 1 second 12 1 11 4 3.84 1.79999685287476 0 0 1 1 0.002703265 0.002812702 0.002789532 0.003078222 0.003108776 1000 0.002703265 0.002812702 0.002789532 0.003078222 0.003108776 1000 0.002842205 0.003015152 0.002539868 0.002548026 0.002897882 1000 0.002842205 0.003015152 0.002539868 0.002548026 0.002897882 1000
lala 3 1.2 0 first 12 1 12 4 2.64 0.339998006820679 0 0 -1 1 0.007157269 0.008611599 0.01015539 1000 1000 1000 0.007157269 0.008611599 0.01015539 1000 1000 1000 0.01275403 0.01284134 0.01252576 0.01366598 0.01561963 1000 0.01275403 0.01284134 0.01252576 0.01366598 0.01561963 1000
lala 2 1.2 1 first 9 1 13 5 5.45 1.81999683380127 1 1 1 0 0.01402961 0.01206374 0.01023802 1000 1000 1000 0.01402961 0.01206374 0.01023802 1000 1000 1000 -0.002657135 -0.003600183 -0.003074831 -0.003179953 -0.002976308 1000 -0.002657135 -0.003600183 -0.003074831 -0.003179953 -0.002976308 1000
lala 3 1.2 1 second 17 1 14 6 5.580001 1.15999722480774 0 1 1 0 -0.004313136 -0.003817041 -0.00428253 -0.003433425 -0.003078824 1000 -0.004313136 -0.003817041 -0.00428253 -0.003433425 -0.003078824 1000 -0.001287319 -0.001063722 -0.001258952 -0.001275817 -0.001134727 1000 -0.001287319 -0.001063722 -0.001258952 -0.001275817 -0.001134727 1000
lala 4 1.2 1 second 17 1 15 6 4.380001 0.499997854232788 0 1 1 1 0.0008769099 0.00108183 0.0007240553 0.0001081884 5.155127E-05 1000 0.0008769099 0.00108183 0.0007240553 0.0001081884 5.155127E-05 1000 -0.0003456819 -0.0003902864 -0.0003136708 -0.0005724739 0.0001124024 1000 -0.0003456819 -0.0003902864 -0.0003136708 -0.0005724739 0.0001124024 1000
lala 2 1.2 1 first 15 1 16 5 5.45 0.159998178482056 0 1 1 0 0.0005922443 0.0002729682 0.0002854533 1000 1000 1000 0.0005922443 0.0002729682 0.0002854533 1000 1000 1000 -0.0001135266 0.0001921551 0.0003854106 0.0007274898 0.001658706 1000 -0.0001135266 0.0001921551 0.0003854106 0.0007274898 0.001658706 1000
lala 1 1.2 1 second 4 1 17 6 3.96 0.519997835159302 -1 0 1 1 0.001218607 0.000675152 0.0008677393 0.001057189 0.000947602 1000 0.001218607 0.000675152 0.0008677393 0.001057189 0.000947602 1000 0.001665123 0.002155632 0.002225686 0.002947212 0.002881269 1000 0.001665123 0.002155632 0.002225686 0.002947212 0.002881269 1000
lala 5 1.2 0 first 17 1 18 6 3.180001 0.359997987747192 0 1 -1 1 0.002277191 0.001837274 0.002144992 1000 1000 1000 0.002277191 0.001837274 0.002144992 1000 1000 1000 0.003379807 0.003301386 0.003441982 0.002839739 0.003141528 1000 0.003379807 0.003301386 0.003441982 0.002839739 0.003141528 1000
lala 1 1.2 1 first 8 1 19 5 3.3 1.01999735832214 1 0 1 1 0.003052105 0.003149676 0.003552543 1000 1000 1000 0.003052105 0.003149676 0.003552543 1000 1000 1000 0.004221274 0.004037591 0.003971454 0.003638776 0.003851488 1000 0.004221274 0.004037591 0.003971454 0.003638776 0.003851488 1000
lala 1 1.2 1 first 5 1 20 6 7.98 1.7199969291687 -1 1 1 0 0.004448996 0.004947922 0.004816057 1000 1000 1000 0.004448996 0.004947922 0.004816057 1000 1000 1000 0.006104554 0.006163909 0.006292013 0.006709489 0.006454344 1000 0.006104554 0.006163909 0.006292013 0.006709489 0.006454344 1000
lala 3 1.2 0 first 16 1 21 6 1.98 0.179998159408569 0 0 -1 1 0.008519593 0.00827028 0.008328824 1000 1000 1000 0.008519593 0.00827028 0.008328824 1000 1000 1000 0.009303489 0.009110849 0.009252526 0.009255691 0.008788853 1000 0.009303489 0.009110849 0.009252526 0.009255691 0.008788853 1000
lala 1 1.2 1 first 3 1 22 5 6.65 0.479997873306274 -1 1 1 0 0.009212447 0.009219495 0.009409604 1000 1000 1000 0.009212447 0.009219495 0.009409604 1000 1000 1000 0.01051467 0.01053467 0.01051434 0.01060001 0.01028223 1000 0.01051467 0.01053467 0.01051434 0.01060001 0.01028223 1000
lala 2 1.2 1 second 2 1 23 5 4.5 1.65999698638916 -1 0 1 0 0.01164286 0.01194563 0.01173249 0.0117477 0.01191539 1000 0.01164286 0.01194563 0.01173249 0.0117477 0.01191539 1000 0.01134033 0.01109463 0.01149114 0.01140365 0.01177697 1000 0.01134033 0.01109463 0.01149114 0.01140365 0.01177697 1000
lala 4 1.2 1 first 12 1 24 4 3.84 0.539997816085815 0 0 1 0 0.01288126 0.01255027 0.01296235 1000 1000 1000 0.01288126 0.01255027 0.01296235 1000 1000 1000 0.01420803 0.013966 0.01422089 0.01370273 0.01385252 1000 0.01420803 0.013966 0.01422089 0.01370273 0.01385252 1000
lala 1 1.2 1 second 1 1 25 4 5.32 0.359997987747192 -1 1 1 1 0.0147298 0.01490383 0.01516021 0.01482678 0.01546906 1000 0.0147298 0.01490383 0.01516021 0.01482678 0.01546906 1000 0.01520502 0.01504317 0.01496396 0.01492143 0.0148087 1000 0.01520502 0.01504317 0.01496396 0.01492143 0.0148087 1000
lala 2 1.2 1 first 3 1 26 5 5.45 0.859997510910034 -1 1 1 0 0.01577366 0.01605801 0.01633741 1000 1000 1000 0.01577366 0.01605801 0.01633741 1000 1000 1000 0.01854289 0.01782222 0.01573933 0.0180159 0.01898057 1000 0.01854289 0.01782222 0.01573933 0.0180159 0.01898057 1000
lala 2 1.2 0 second 4 1 27 6 2.76 0.319998025894165 -1 0 -1 1 0.01984216 0.01937176 0.0198217 0.01968861 0.01915187 1000 0.01984216 0.01937176 0.0198217 0.01968861 0.01915187 1000 0.01996953 0.02044481 0.01999042 0.02043978 0.02073532 1000 0.01996953 0.02044481 0.01999042 0.02043978 0.02073532 1000
lala 3 1.2 1 second 4 1 28 6 3.96 0.899997472763062 -1 0 1 0 0.02049255 0.02049611 0.02005665 0.02058356 0.02064635 1000 0.02049255 0.02049611 0.02005665 0.02058356 0.02064635 1000 0.0215505 0.0214679 0.0215452 0.02137706 0.02226647 1000 0.0215505 0.0214679 0.0215452 0.02137706 0.02226647 1000
lala 1 1.2 1 second 14 1 29 5 3.3 0.739997625350952 0 0 1 1 0.02253563 0.02342249 0.02243599 0.02213027 0.02432828 1000 0.02253563 0.02342249 0.02243599 0.02213027 0.02432828 1000 0.02297234 0.02349013 0.02340933 0.02322223 0.02356473 1000 0.02297234 0.02349013 0.02340933 0.02322223 0.02356473 1000
lala 2 1.2 0 first 8 1 30 5 2.1 1.25999712944031 1 0 -1 1 0.02509083 0.02513778 0.02519924 1000 1000 1000 0.02509083 0.02513778 0.02519924 1000 1000 1000 0.008428463 0.008242818 0.009046256 0.009084503 0.009395373 1000 0.008428463 0.008242818 0.009046256 0.009084503 0.009395373 1000
lala 6 1.2 1 second 17 1 31 6 4.380001 0.279998064041138 0 1 1 1 0.01433444 0.01423526 0.01403122 0.01427945 0.01396799 1000 0.01433444 0.01423526 0.01403122 0.01427945 0.01396799 1000 0.01514577 0.01575564 0.01584258 0.01666294 0.01707215 1000 0.01514577 0.01575564 0.01584258 0.01666294 0.01707215 1000
lala 3 1.2 0 second 7 1 32 4 2.92 1.17999720573425 1 1 -1 1 0.01659708 0.01695395 0.01646765 0.01658104 0.01683803 1000 0.01659708 0.01695395 0.01646765 0.01658104 0.01683803 1000 0.01712387 0.01756659 0.0175858 0.01711585 0.017299 1000 0.01712387 0.01756659 0.0175858 0.01711585 0.017299 1000
lala 2 1.2 0 first 14 1 33 5 2.1 0.339998006820679 0 0 -1 0 0.01731139 0.0178258 0.01755448 1000 1000 1000 0.01731139 0.0178258 0.01755448 1000 1000 1000 0.01677117 0.01693149 0.01656419 0.01700184 0.01683388 1000 0.01677117 0.01693149 0.01656419 0.01700184 0.01683388 1000
lala 3 1.2 1 second 14 1 34 5 3.3 0.179998159408569 0 0 1 1 0.01784682 0.01763534 0.01809023 0.01779561 0.01803398 1000 0.01784682 0.01763534 0.01809023 0.01779561 0.01803398 1000 0.01783258 0.01790309 0.01777201 0.01810236 0.01806595 1000 0.01783258 0.01790309 0.01777201 0.01810236 0.01806595 1000
lala 2 1.2 0 second 1 1 35 4 4.12 2.97999572753906 -1 1 -1 0 0.004694039 0.005321557 0.00390752 0.005403455 0.006675356 1000 0.004694039 0.005321557 0.00390752 0.005403455 0.006675356 1000 0.00333097 -0.003160733 0.0002309831 0.001363637 -0.0002844981 1000 0.00333097 -0.003160733 0.0002309831 0.001363637 -0.0002844981 1000
lala 1 1.2 1 first 11 1 36 6 7.98 0.0399982929229736 1 1 1 1 0.002620471 0.00289354 0.002869364 1000 1000 1000 0.002620471 0.00289354 0.002869364 1000 1000 1000 0.004667411 0.004799692 0.00507329 0.005865246 0.005446967 1000 0.004667411 0.004799692 0.00507329 0.005865246 0.005446967 1000
lala 3 1.2 1 second 8 1 37 5 3.3 1.19999718666077 1 0 1 0 0.008068438 0.007676073 0.007859478 0.007496584 0.007621175 1000 0.008068438 0.007676073 0.007859478 0.007496584 0.007621175 1000 0.007853341 0.00766504 0.008029982 0.008526717 0.008108937 1000 0.007853341 0.00766504 0.008029982 0.008526717 0.008108937 1000
lala 2 1.2 1 second 5 1 38 6 6.780001 1.69999694824219 -1 1 1 0 0.01207641 0.01198464 0.01220924 0.01298624 0.01258271 1000 0.01207641 0.01198464 0.01220924 0.01298624 0.01258271 1000 0.01396896 0.01440011 0.0142751 0.0142584 0.01428302 1000 0.01396896 0.01440011 0.0142751 0.0142584 0.01428302 1000
lala 1 1.2 1 second 10 1 39 6 3.96 1.87999677658081 1 0 1 1 0.01717582 0.01709146 0.01686458 0.01716493 0.01745264 1000 0.01717582 0.01709146 0.01686458 0.01716493 0.01745264 1000 0.02239079 0.02416521 0.03142222 0.03093374 0.03117117 1000 0.02239079 0.02416521 0.03142222 0.03093374 0.03117117 1000
lala 1 1.2 0 first 0 1 40 4 2.64 0.259998083114624 -1 0 -1 0 -0.005910991 -0.005756889 -0.005800126 1000 1000 1000 -0.005910991 -0.005756889 -0.005800126 1000 1000 1000 -0.005989658 -0.005896444 -0.005760997 -0.005867357 -0.005255167 1000 -0.005989658 -0.005896444 -0.005760997 -0.005867357 -0.005255167 1000
lala 7 1.2 1 first 17 1 41 6 3.180001 0.379997968673706 0 1 1 0 -0.003875085 -0.003995353 -0.003544756 1000 1000 1000 -0.003875085 -0.003995353 -0.003544756 1000 1000 1000 -0.002579849 -0.002033462 -0.00136765 -0.001559408 -0.001311593 1000 -0.002579849 -0.002033462 -0.00136765 -0.001559408 -0.001311593 1000
lala 4 1.2 1 second 4 1 42 6 2.76 0.23999810218811 -1 0 1 0 0.002135746 0.001713635 0.00186369 0.001614316 0.001896157 1000 0.002135746 0.001713635 0.00186369 0.001614316 0.001896157 1000 0.00248702 0.002291153 0.00306783 0.003102566 0.002889656 1000 0.00248702 0.002291153 0.00306783 0.003102566 0.002889656 1000
lala 5 1.2 0 second 12 1 43 4 2.64 1.59999680519104 0 0 -1 0 0.005198567 0.004719972 0.004895915 0.004969455 0.004730704 1000 0.005198567 0.004719972 0.004895915 0.004969455 0.004730704 1000 0.005456029 0.00600608 0.005849348 0.006097308 0.006212525 1000 0.005456029 0.00600608 0.005849348 0.006097308 0.006212525 1000
lala 4 1.2 0 first 8 1 44 5 2.1 0.279998064041138 1 0 -1 0 0.009212126 0.009492763 0.009549735 1000 1000 1000 0.009212126 0.009492763 0.009549735 1000 1000 1000 0.01056886 0.01031458 0.01076891 0.01082142 0.01054056 1000 0.01056886 0.01031458 0.01076891 0.01082142 0.01054056 1000
lala 2 1.2 0 first 10 1 45 6 2.76 2.2999963760376 1 0 -1 0 0.01182175 0.0125086 0.0124783 1000 1000 1000 0.01182175 0.0125086 0.0124783 1000 1000 1000 0.01416253 0.01438527 0.01423749 0.01438911 0.01409005 1000 0.01416253 0.01438527 0.01423749 0.01438911 0.01409005 1000
lala 2 1.2 1 second 11 1 46 6 6.780001 0.319998025894165 1 1 1 1 0.0161776 0.01624255 0.01611524 0.01642726 0.01636539 1000 0.0161776 0.01624255 0.01611524 0.01642726 0.01636539 1000 0.01750075 0.01780883 0.01781162 0.01797632 0.01808689 1000 0.01750075 0.01780883 0.01781162 0.01797632 0.01808689 1000
lala 3 1.2 1 first 3 1 47 5 4.25 0.279998064041138 -1 1 1 1 0.01814055 0.01844577 0.01882133 1000 1000 1000 0.01814055 0.01844577 0.01882133 1000 1000 1000 0.01948119 0.01968446 0.01955054 0.01908215 0.01935195 1000 0.01948119 0.01968446 0.01955054 0.01908215 0.01935195 1000
lala 4 1.2 0 second 14 1 48 5 2.1 0.559997797012329 0 0 -1 1 0.02059763 0.02084651 0.02126011 0.02093861 0.0214651 1000 0.02059763 0.02084651 0.02126011 0.02093861 0.0214651 1000 0.02070053 0.02059234 0.02038382 0.0206198 0.02037443 1000 0.02070053 0.02059234 0.02038382 0.0206198 0.02037443 1000
lala 1 1.2 0 second 6 1 49 4 2.64 1.87999677658081 1 0 -1 1 0.02222457 0.02212204 0.02227906 0.02242441 0.02217707 1000 0.02222457 0.02212204 0.02227906 0.02242441 0.02217707 1000 0.02267653 0.02334864 0.02281317 0.0233822 0.02338804 1000 0.02267653 0.02334864 0.02281317 0.0233822 0.02338804 1000
lala 4 1.2 0 second 3 1 50 5 3.05 0.61999773979187 -1 1 -1 1 -0.01234663 -0.01268979 -0.0124715 -0.01255748 -0.01179339 1000 -0.01234663 -0.01268979 -0.0124715 -0.01255748 -0.01179339 1000 -0.00985613 -0.009983741 -0.008965096 -0.008727899 -0.008983717 1000 -0.00985613 -0.009983741 -0.008965096 -0.008727899 -0.008983717 1000
lala 5 1.2 0 second 4 1 51 6 1.98 0.779997587203979 -1 0 -1 1 -0.007319399 -0.007378796 -0.007366321 -0.00710117 -0.006451692 1000 -0.007319399 -0.007378796 -0.007366321 -0.00710117 -0.006451692 1000 -0.005493436 -0.005954313 -0.005768614 -0.005759737 -0.005818411 1000 -0.005493436 -0.005954313 -0.005768614 -0.005759737 -0.005818411 1000
lala 2 1.2 1 second 6 1 52 4 3.84 0.159998178482056 1 0 1 1 -0.002169289 -0.002250951 -0.002037489 -0.001836541 -0.002174054 1000 -0.002169289 -0.002250951 -0.002037489 -0.001836541 -0.002174054 1000 -0.002175832 -0.001306044 -0.001642203 -0.001506192 -0.001473848 1000 -0.002175832 -0.001306044 -0.001642203 -0.001506192 -0.001473848 1000
lala 4 1.2 0 second 7 1 53 4 4.12 1.13999724388123 1 1 -1 0 0.0008858562 0.001064519 0.001386478 0.000927783 0.001118098 1000 0.0008858562 0.001064519 0.001386478 0.000927783 0.001118098 1000 0.001331407 0.001201195 0.001264734 0.001368475 0.001328901 1000 0.001331407 0.001201195 0.001264734 0.001368475 0.001328901 1000
lala 4 1.2 0 second 16 1 54 6 3.18 0.959997415542603 0 0 -1 1 0.002708377 0.0027268 0.00322596 0.002840279 0.003316113 1000 0.002708377 0.0027268 0.00322596 0.002840279 0.003316113 1000 0.005028118 0.005285526 0.005364441 0.005766562 0.00585265 1000 0.005028118 0.005285526 0.005364441 0.005766562 0.00585265 1000
lala 3 1.2 1 first 2 1 55 5 3.3 0.339998006820679 -1 0 1 1 0.007430193 0.007520536 0.007684064 1000 1000 1000 0.007430193 0.007520536 0.007684064 1000 1000 1000 0.009267605 0.008928942 0.008871857 0.0089952 0.00872446 1000 0.009267605 0.008928942 0.008871857 0.0089952 0.00872446 1000
lala 3 1.2 1 second 11 1 56 6 5.580001 0.739997625350952 1 1 1 1 0.01013779 0.01071245 0.01155146 0.01109274 0.01161016 1000 0.01013779 0.01071245 0.01155146 0.01109274 0.01161016 1000 0.01187233 0.01155123 0.01215278 0.01173696 0.01205034 1000 0.01187233 0.01155123 0.01215278 0.01173696 0.01205034 1000
lala 2 1.2 1 first 0 1 57 4 3.84 0.479997873306274 -1 0 1 0 0.01378418 0.01435686 0.01451686 1000 1000 1000 0.01378418 0.01435686 0.01451686 1000 1000 1000 0.01403371 0.01477174 0.0149206 0.01563544 0.0159222 1000 0.01403371 0.01477174 0.0149206 0.01563544 0.0159222 1000
lala 3 1.2 1 second 1 1 58 4 5.32 0.479997873306274 -1 1 1 1 0.01759906 0.01780768 0.0176412 0.01695895 0.017527 1000 0.01759906 0.01780768 0.0176412 0.01695895 0.017527 1000 0.0188901 0.01827067 0.01864219 0.01861819 0.01871236 1000 0.0188901 0.01827067 0.01864219 0.01861819 0.01871236 1000
lala 3 1.2 1 second 9 1 59 5 4.25 1.03999733924866 1 1 1 1 0.0205764 0.02073062 0.02050027 0.02098486 0.02053082 1000 0.0205764 0.02073062 0.02050027 0.02098486 0.02053082 1000 0.02204989 0.02257173 0.02257803 0.02274409 0.02326825 1000 0.02204989 0.02257173 0.02257803 0.02274409 0.02326825 1000
lala 3 1.2 1 first 5 1 60 6 5.580001 1.89999675750732 -1 1 1 0 0.02486357 0.02476748 0.02490371 1000 1000 1000 0.02486357 0.02476748 0.02490371 1000 1000 1000 0.02756047 0.02676617 0.02555098 0.02183015 0.01722673 1000 0.02756047 0.02676617 0.02555098 0.02183015 0.01722673 1000
lala 8 1.2 0 second 17 1 61 6 1.980001 0.679997682571411 0 1 -1 0 -0.01400955 -0.01405917 -0.01352185 -0.01380934 -0.01340948 1000 -0.01400955 -0.01405917 -0.01352185 -0.01380934 -0.01340948 1000 -0.01199589 -0.01214066 -0.011776 -0.01173507 -0.0116899 1000 -0.01199589 -0.01214066 -0.011776 -0.01173507 -0.0116899 1000
lala 3 1.2 0 first 6 1 62 4 2.64 2.43999624252319 1 0 -1 0 2.81263E-05 0.003070954 0.002683234 1000 1000 1000 2.81263E-05 0.003070954 0.002683234 1000 1000 1000 -0.002658593 0.002298664 0.00435468 0.002028133 0.003938124 1000 -0.002658593 0.002298664 0.00435468 0.002028133 0.003938124 1000
lala 4 1.2 1 second 6 1 63 4 3.84 0.259998083114624 1 0 1 1 0.01818769 0.01828552 0.01914216 0.01911887 0.01970701 1000 0.01818769 0.01828552 0.01914216 0.01911887 0.01970701 1000 0.02233602 0.02191989 0.02218673 0.02227742 0.02327797 1000 0.02233602 0.02191989 0.02218673 0.02227742 0.02327797 1000
lala 3 1.2 1 first 10 1 64 6 3.96 1.01999735832214 1 0 1 0 0.02466995 0.02421296 0.02433604 1000 1000 1000 0.02466995 0.02421296 0.02433604 1000 1000 1000 0.02088776 0.02195333 0.02193307 0.02195131 0.02200137 1000 0.02088776 0.02195333 0.02193307 0.02195131 0.02200137 1000
lala 4 1.2 1 first 11 1 65 6 4.380001 0.61999773979187 1 1 1 1 0.02190349 0.02237024 0.02279358 1000 1000 1000 0.02190349 0.02237024 0.02279358 1000 1000 1000 0.02290436 0.02286086 0.02230318 0.0224945 0.02235842 1000 0.02290436 0.02286086 0.02230318 0.0224945 0.02235842 1000
lala 1 1.2 1 first 13 1 66 4 5.32 2.2999963760376 0 1 1 1 0.02469474 0.02477107 0.02433166 1000 1000 1000 0.02469474 0.02477107 0.02433166 1000 1000 1000 0.0237229 0.02320139 0.02341457 0.02298573 0.02326546 1000 0.0237229 0.02320139 0.02341457 0.02298573 0.02326546 1000
lala 6 1.2 0 second 4 1 67 6 3.18 0.839997529983521 -1 0 -1 0 0.01626875 0.01581144 0.0158204 0.01536756 0.01558523 1000 0.01626875 0.01581144 0.0158204 0.01536756 0.01558523 1000 0.01582722 0.01544705 0.01594327 0.01606246 0.015837 1000 0.01582722 0.01544705 0.01594327 0.01606246 0.015837 1000
lala 4 1.2 1 second 1 1 68 4 4.12 0.479997873306274 -1 1 1 1 0.01704591 0.01778111 0.01735045 0.01699792 0.01745692 1000 0.01704591 0.01778111 0.01735045 0.01699792 0.01745692 1000 0.01853016 0.01849573 0.01859227 0.01843852 0.01915265 1000 0.01853016 0.01849573 0.01859227 0.01843852 0.01915265 1000
lala 5 1.2 1 first 7 1 69 4 5.32 0.439997911453247 1 1 1 0 0.01887049 0.01907447 0.01870983 1000 1000 1000 0.01887049 0.01907447 0.01870983 1000 1000 1000 0.02029344 0.0194106 0.01990189 0.01919553 0.01938923 1000 0.02029344 0.0194106 0.01990189 0.01919553 0.01938923 1000
lala 9 1.2 1 first 17 1 70 6 3.180001 0.559997797012329 0 1 1 1 0.01948946 0.02004712 0.02004083 1000 1000 1000 0.01948946 0.02004712 0.02004083 1000 1000 1000 0.01920733 0.01918746 0.01873476 0.01919563 0.01887863 1000 0.01920733 0.01918746 0.01873476 0.01919563 0.01887863 1000
lala 5 1.2 0 first 8 1 71 5 3.3 0.519997835159302 1 0 -1 0 0.01901283 0.01972964 0.01983721 1000 1000 1000 0.01901283 0.01972964 0.01983721 1000 1000 1000 0.01871238 0.01935394 0.01910127 0.01896579 0.01927976 1000 0.01871238 0.01935394 0.01910127 0.01896579 0.01927976 1000
lala 6 1.2 1 second 8 1 72 5 4.5 0.119998216629028 1 0 1 1 0.01963831 0.01960779 0.01924941 0.01995382 0.01999408 1000 0.01963831 0.01960779 0.01924941 0.01995382 0.01999408 1000 0.02008857 0.0204114 0.02075089 0.0203301 0.02067108 1000 0.02008857 0.0204114 0.02075089 0.0203301 0.02067108 1000
lala 4 1.2 1 second 5 1 73 6 4.380001 1.63999700546265 -1 1 1 0 0.02067905 0.02063827 0.02055334 0.02083515 0.02046565 1000 0.02067905 0.02063827 0.02055334 0.02083515 0.02046565 1000 0.02099165 0.02145378 0.02087197 0.02096828 0.02089251 1000 0.02099165 0.02145378 0.02087197 0.02096828 0.02089251 1000
lala 5 1.2 0 first 3 1 74 5 4.25 1.37999701499939 -1 1 -1 1 0.02184063 0.02278736 0.02237475 1000 1000 1000 0.02184063 0.02278736 0.02237475 1000 1000 1000 0.02257117 0.02268908 0.02244487 0.02273653 0.02264829 1000 0.02257117 0.02268908 0.02244487 0.02273653 0.02264829 1000
lala 6 1.2 1 second 7 1 75 4 4.12 0.719997644424438 1 1 1 1 0.02369493 0.02344933 0.02395965 0.02360956 0.02413641 1000 0.02369493 0.02344933 0.02395965 0.02360956 0.02413641 1000 0.024192 0.02209691 0.02271605 0.02307786 0.02263028 1000 0.024192 0.02209691 0.02271605 0.02307786 0.02263028 1000
lala 6 1.2 1 second 3 1 76 5 5.45 1.17999720573425 -1 1 1 0 -0.01894392 -0.02019025 -0.02026992 -0.01979331 -0.01883662 1000 -0.01894392 -0.02019025 -0.02026992 -0.01979331 -0.01883662 1000 -0.01844426 -0.01828481 -0.01830808 -0.01811073 -0.0184918 1000 -0.01844426 -0.01828481 -0.01830808 -0.01811073 -0.0184918 1000
lala 5 1.2 0 second 5 1 77 6 3.180001 2.87999582290649 -1 1 -1 1 -0.01260696 -0.01205842 -0.01267108 -0.01237191 -0.01256904 1000 -0.01260696 -0.01205842 -0.01267108 -0.01237191 -0.01256904 1000 -0.01244545 -0.01204111 -0.01207458 -0.01185125 -0.01142169 1000 -0.01244545 -0.01204111 -0.01207458 -0.01185125 -0.01142169 1000
lala 7 1.2 1 second 3 1 78 5 4.25 0.739997625350952 -1 1 1 1 -0.009763643 -0.009945184 -0.009557886 -0.009611811 -0.00992618 1000 -0.009763643 -0.009945184 -0.009557886 -0.009611811 -0.00992618 1000 -0.008956483 -0.009019293 -0.009410669 -0.009098616 -0.009370082 1000 -0.008956483 -0.009019293 -0.009410669 -0.009098616 -0.009370082 1000
lala 3 1.2 0 second 0 1 79 4 2.64 0.559997797012329 -1 0 -1 1 -0.008469856 -0.008042328 -0.008511174 -0.008121721 -0.008359989 1000 -0.008469856 -0.008042328 -0.008511174 -0.008121721 -0.008359989 1000 -0.007721705 -0.007474245 -0.007330308 -0.007370557 -0.00717735 1000 -0.007721705 -0.007474245 -0.007330308 -0.007370557 -0.00717735 1000
lala 2 1.2 1 second 13 1 80 4 4.12 1.19999718666077 0 1 1 1 -0.007337791 -0.006842417 -0.007175475 -0.007520556 -0.00724363 1000 -0.007337791 -0.006842417 -0.007175475 -0.007520556 -0.00724363 1000 -0.006616489 -0.007106302 -0.007072809 -0.007417527 -0.007021438 1000 -0.006616489 -0.007106302 -0.007072809 -0.007417527 -0.007021438 1000
lala 5 1.2 1 second 16 1 81 6 4.38 0.199998140335083 0 0 1 1 -0.007379294 -0.007649919 -0.007836483 -0.007923165 -0.008302075 1000 -0.007379294 -0.007649919 -0.007836483 -0.007923165 -0.008302075 1000 -0.007686163 -0.007464014 -0.007541161 -0.00706413 -0.006922718 1000 -0.007686163 -0.007464014 -0.007541161 -0.00706413 -0.006922718 1000
lala 6 1.2 1 first 16 1 82 6 3.18 0.279998064041138 0 0 1 1 -0.006625803 -0.00644988 -0.006225165 1000 1000 1000 -0.006625803 -0.00644988 -0.006225165 1000 1000 1000 -0.006341005 -0.006678676 -0.006153867 -0.006172529 -0.006402487 1000 -0.006341005 -0.006678676 -0.006153867 -0.006172529 -0.006402487 1000
lala 6 1.2 1 first 12 1 83 4 3.84 0.899997472763062 0 0 1 0 -0.00540323 -0.004536015 -0.004947392 1000 1000 1000 -0.00540323 -0.004536015 -0.004947392 1000 1000 1000 -0.005363143 -0.005128958 -0.005547944 -0.005074 -0.005262929 1000 -0.005363143 -0.005128958 -0.005547944 -0.005074 -0.005262929 1000
lala 10 0.6 0 first 17 1 84 6 2.580001 0.159998178482056 0 1 -1 1 -0.005181304 -0.005209924 -0.0053178 1000 1000 1000 -0.005181304 -0.005209924 -0.0053178 1000 1000 1000 -0.004575445 -0.00458813 -0.004551541 -0.003928899 -0.004741644 1000 -0.004575445 -0.00458813 -0.004551541 -0.003928899 -0.004741644 1000
lala 5 1.2 0 second 1 1 85 4 2.92 0.259998083114624 -1 1 -1 0 -0.004948717 -0.004607912 -0.004534471 -0.004761772 -0.004119973 1000 -0.004948717 -0.004607912 -0.004534471 -0.004761772 -0.004119973 1000 -0.003887048 -0.003769904 -0.00311985 -0.003491429 -0.003589367 1000 -0.003887048 -0.003769904 -0.00311985 -0.003491429 -0.003589367 1000
lala 5 1.2 0 first 6 1 86 4 2.64 0.539997816085815 1 0 -1 0 -0.004211628 -0.003739696 -0.00405341 1000 1000 1000 -0.004211628 -0.003739696 -0.00405341 1000 1000 1000 -0.003226862 -0.003000945 -0.00346396 -0.003391996 -0.003552008 1000 -0.003226862 -0.003000945 -0.00346396 -0.003391996 -0.003552008 1000
lala 4 1.2 0 first 2 1 87 5 2.1 0.23999810218811 -1 0 -1 0 -0.003354078 -0.003266706 -0.002680901 1000 1000 1000 -0.003354078 -0.003266706 -0.002680901 1000 1000 1000 -0.002957402 -0.002388547 -0.002482065 -0.003230337 -0.003006415 1000 -0.002957402 -0.002388547 -0.002482065 -0.003230337 -0.003006415 1000
lala 6 1.2 1 first 5 1 88 6 4.380001 0.379997968673706 -1 1 1 0 -0.001869582 -0.002389549 -0.002196902 1000 1000 1000 -0.001869582 -0.002389549 -0.002196902 1000 1000 1000 -0.002423586 -0.00286189 -0.002572806 -0.002965715 -0.002324165 1000 -0.002423586 -0.00286189 -0.002572806 -0.002965715 -0.002324165 1000
lala 5 1.2 0 second 14 1 89 5 3.3 0.639997720718384 0 0 -1 0 -0.0009290541 -0.0009296717 -0.0009927342 -0.0004063404 -0.0007739115 1000 -0.0009290541 -0.0009296717 -0.0009927342 -0.0004063404 -0.0007739115 1000 -0.001285103 -0.0006895836 -0.0009343369 -0.0008763942 -0.000843334 1000 -0.001285103 -0.0006895836 -0.0009343369 -0.0008763942 -0.000843334 1000
lala 6 1.2 0 first 6 1 90 4 3.84 0.459997892379761 1 0 -1 0 -0.0005045992 -6.523493E-05 -0.0004740793 1000 1000 1000 -0.0005045992 -6.523493E-05 -0.0004740793 1000 1000 1000 6.5858E-05 0.0001886449 -0.0002992364 0.00016208 -7.890146E-05 1000 6.5858E-05 0.0001886449 -0.0002992364 0.00016208 -7.890146E-05 1000
lala 4 1.2 0 first 9 1 91 5 3.05 1.03999733924866 1 1 -1 1 0.000199873 -9.546499E-05 0.0004526621 1000 1000 1000 0.000199873 -9.546499E-05 0.0004526621 1000 1000 1000 0.0003232241 0.0007837318 0.0008991551 0.0003225367 0.0005487118 1000 0.0003232241 0.0007837318 0.0008991551 0.0003225367 0.0005487118 1000
lala 5 1.2 1 second 11 1 92 6 3.180001 0.899997472763062 1 1 1 0 0.0008927324 0.001036762 0.0009309456 0.001244487 0.001735102 1000 0.0008927324 0.001036762 0.0009309456 0.001244487 0.001735102 1000 0.001520415 0.001323127 0.001621949 0.001244473 0.001296209 1000 0.001520415 0.001323127 0.001621949 0.001244473 0.001296209 1000
lala 7 1.2 0 second 5 1 93 6 3.180001 0.639997720718384 -1 1 -1 1 0.002693843 0.00263129 0.002288795 0.002623728 0.002034907 1000 0.002693843 0.00263129 0.002288795 0.002623728 0.002034907 1000 0.00263811 0.003053529 0.002870286 0.003095227 0.00348135 1000 0.00263811 0.003053529 0.002870286 0.003095227 0.00348135 1000
lala 3 1.2 1 first 15 1 94 5 4.25 0.0599982738494873 0 1 1 0 0.003316543 0.003289253 0.003085541 1000 1000 1000 0.003316543 0.003289253 0.003085541 1000 1000 1000 0.004114883 0.004292014 0.004999074 0.004696173 0.004398385 1000 0.004114883 0.004292014 0.004999074 0.004696173 0.004398385 1000
lala 7 1.2 0 first 16 1 95 6 1.98 0.759997606277466 0 0 -1 0 0.004376638 0.004094283 0.003947348 1000 1000 1000 0.004376638 0.004094283 0.003947348 1000 1000 1000 0.005120025 0.005267069 0.005686576 0.005448364 0.005503793 1000 0.005120025 0.005267069 0.005686576 0.005448364 0.005503793 1000
lala 7 1.2 1 first 12 1 96 4 2.64 0.23999810218811 0 0 1 0 0.004978167 0.005813332 0.005441255 1000 1000 1000 0.004978167 0.005813332 0.005441255 1000 1000 1000 0.006548846 0.0060049 0.006010121 0.005835449 0.005705545 1000 0.006548846 0.0060049 0.006010121 0.005835449 0.005705545 1000
lala 4 1.2 1 second 10 1 97 6 2.76 1.97999668121338 1 0 1 1 0.006804386 0.006226508 0.006283332 0.00643565 0.006774071 1000 0.006804386 0.006226508 0.006283332 0.00643565 0.006774071 1000 0.006662884 0.006268863 0.006332223 0.006715133 0.006219733 1000 0.006662884 0.006268863 0.006332223 0.006715133 0.006219733 1000
lala 7 1.2 1 second 7 1 98 4 2.92 2.03999662399292 1 1 1 0 0.006688538 0.006141665 0.006313732 0.006333682 0.006350528 1000 0.006688538 0.006141665 0.006313732 0.006333682 0.006350528 1000 0.007170192 0.006883414 0.007087143 0.007392613 0.006508506 1000 0.007170192 0.006883414 0.007087143 0.007392613 0.006508506 1000
lala 4 1.2 1 first 15 1 99 5 3.05 0.439997911453247 0 1 1 1 0.005864249 0.005792107 0.00565933 1000 1000 1000 0.005864249 0.005792107 0.00565933 1000 1000 1000 0.006533385 0.006203306 0.007021969 0.006804738 0.006574044 1000 0.006533385 0.006203306 0.007021969 0.006804738 0.006574044 1000
lala 8 1.2 0 second 16 1 100 6 3.18 0.679997682571411 0 0 -1 1 -0.002836752 -0.003210878 -0.003065425 -0.003060468 -0.002410306 1000 -0.002836752 -0.003210878 -0.003065425 -0.003060468 -0.002410306 1000 -0.002844775 -0.003083408 -0.002665222 -0.003268139 -0.003279422 1000 -0.002844775 -0.003083408 -0.002665222 -0.003268139 -0.003279422 1000
lala 8 1.2 1 second 12 1 101 4 1.44 1.61999702453613 0 0 1 0 -0.002724558 -0.002891101 -0.002422231 -0.002227359 -0.002660384 1000 -0.002724558 -0.002891101 -0.002422231 -0.002227359 -0.002660384 1000 0.007636165 0.01194513 0.01639008 0.01808971 0.01432082 1000 0.007636165 0.01194513 0.01639008 0.01808971 0.01432082 1000
lala 7 1.2 1 second 8 1 102 5 3.3 0.23999810218811 1 0 1 1 0.003024264 0.00431402 0.004565181 0.005056387 0.005667391 1000 0.003024264 0.00431402 0.004565181 0.005056387 0.005667391 1000 0.008309033 0.008382961 0.008609534 0.009357599 0.009245927 1000 0.008309033 0.008382961 0.008609534 0.009357599 0.009245927 1000
lala 7 1.2 1 second 6 1 103 4 5.04 0.319998025894165 1 0 1 1 0.009769361 0.009643058 0.01029786 0.009980173 0.01019138 1000 0.009769361 0.009643058 0.01029786 0.009980173 0.01019138 1000 0.01180001 0.01162815 0.01109 0.0110517 0.01176781 1000 0.01180001 0.01162815 0.01109 0.0110517 0.01176781 1000
lala 6 1.2 0 first 14 1 104 5 4.5 0.419997930526733 0 0 -1 1 0.0130086 0.01352049 0.01321769 1000 1000 1000 0.0130086 0.01352049 0.01321769 1000 1000 1000 0.0136555 0.01416298 0.01349956 0.01426555 0.01422533 1000 0.0136555 0.01416298 0.01349956 0.01426555 0.01422533 1000
lala 8 1.2 0 second 7 1 105 4 1.72 0.319998025894165 1 1 -1 0 0.01586545 0.01564773 0.01502335 0.01511129 0.01481054 1000 0.01586545 0.01564773 0.01502335 0.01511129 0.01481054 1000 0.0157323 0.01576265 0.01626155 0.01673418 0.01623554 1000 0.0157323 0.01576265 0.01626155 0.01673418 0.01623554 1000
lala 11 0.3 1 first 17 1 106 6 2.880001 0.959997415542603 0 1 1 1 0.01887315 0.01878004 0.01869499 1000 1000 1000 0.01887315 0.01878004 0.01869499 1000 1000 1000 0.02086291 0.02065695 0.02107843 0.02063447 0.02161677 1000 0.02086291 0.02065695 0.02107843 0.02063447 0.02161677 1000
lala 9 1.2 0 first 12 1 107 4 1.32 0.01999831199646 0 0 -1 0 0.0234179 0.02291965 0.02300092 1000 1000 1000 0.0234179 0.02291965 0.02300092 1000 1000 1000 0.0104544 0.009471542 0.009131824 0.01002362 0.009413837 1000 0.0104544 0.009471542 0.009131824 0.01002362 0.009413837 1000
lala 5 1.2 1 first 9 1 108 5 4.25 1.83999681472778 1 1 1 0 0.008164098 0.008282613 0.008318145 1000 1000 1000 0.008164098 0.008282613 0.008318145 1000 1000 1000 0.01108559 0.01078155 0.01108716 0.01096945 0.0107715 1000 0.01108559 0.01078155 0.01108716 0.01096945 0.0107715 1000
lala 4 1.2 0 second 0 1 109 4 3.84 0.419997930526733 -1 0 -1 1 0.0116824 0.01225503 0.01193002 0.01163696 0.0120432 1000 0.0116824 0.01225503 0.01193002 0.01163696 0.0120432 1000 0.01374202 0.01314694 0.01325715 0.01360158 0.01380231 1000 0.01374202 0.01314694 0.01325715 0.01360158 0.01380231 1000
lala 6 1.2 1 second 1 1 110 4 4.12 0.339998006820679 -1 1 1 0 0.0151952 0.01526507 0.0153762 0.01553068 0.0161596 1000 0.0151952 0.01526507 0.0153762 0.01553068 0.0161596 1000 0.01595998 0.01588167 0.01602398 0.01539657 0.01545682 1000 0.01595998 0.01588167 0.01602398 0.01539657 0.01545682 1000
lala 6 1.2 0 first 11 1 111 6 1.980001 1.5399968624115 1 1 -1 0 0.01753663 0.0168514 0.01731189 1000 1000 1000 0.01753663 0.0168514 0.01731189 1000 1000 1000 0.01349757 0.01387092 0.014115 0.01411804 0.01474831 1000 0.01349757 0.01387092 0.014115 0.01411804 0.01474831 1000
lala 7 1.2 1 second 4 1 112 6 4.38 0.179998159408569 -1 0 1 0 0.0140936 0.01505936 0.01436223 0.01424088 0.01476583 1000 0.0140936 0.01505936 0.01436223 0.01424088 0.01476583 1000 0.01572444 0.01531539 0.01509252 0.01475733 0.0155663 1000 0.01572444 0.01531539 0.01509252 0.01475733 0.0155663 1000
lala 8 1.2 0 second 4 1 113 6 3.18 0.339998006820679 -1 0 -1 1 0.01652039 0.01595366 0.01667506 0.01682778 0.01656956 1000 0.01652039 0.01595366 0.01667506 0.01682778 0.01656956 1000 0.01699753 0.01707661 0.01740413 0.01786623 0.0170637 1000 0.01699753 0.01707661 0.01740413 0.01786623 0.0170637 1000
lala 3 1.2 1 first 13 1 114 4 2.92 0.61999773979187 0 1 1 1 0.0178517 0.01856634 0.01810418 1000 1000 1000 0.0178517 0.01856634 0.01810418 1000 1000 1000 0.01954217 0.01922484 0.01862285 0.0192235 0.01902411 1000 0.01954217 0.01922484 0.01862285 0.0192235 0.01902411 1000
lala 12 0.15 1 first 17 1 115 6 2.730001 0.279998064041138 0 1 1 1 0.02129286 0.02114363 0.02055337 1000 1000 1000 0.02129286 0.02114363 0.02055337 1000 1000 1000 0.02085216 0.01988795 0.02040861 0.02078932 0.02071299 1000 0.02085216 0.01988795 0.02040861 0.02078932 0.02071299 1000
lala 5 1.2 1 first 15 1 116 5 1.85 1.05999732017517 0 1 1 0 0.02228813 0.02251036 0.02241492 1000 1000 1000 0.02228813 0.02251036 0.02241492 1000 1000 1000 0.02225329 0.02219209 0.02197238 0.02253397 0.02195057 1000 0.02225329 0.02219209 0.02197238 0.02253397 0.02195057 1000
lala 7 1.2 1 second 11 1 117 6 3.180001 1.25999712944031 1 1 1 0 0.02179206 0.01928312 0.01563434 0.01345797 0.01166749 1000 0.02179206 0.01928312 0.01563434 0.01345797 0.01166749 1000 0.01309175 0.01352811 0.01388279 0.01499868 0.01437758 1000 0.01309175 0.01352811 0.01388279 0.01499868 0.01437758 1000
lala 6 1.2 1 first 15 1 118 5 1.65 0.959997415542603 0 1 1 1 0.01766888 0.01785804 0.01848042 1000 1000 1000 0.01766888 0.01785804 0.01848042 1000 1000 1000 0.01793531 0.01833802 0.01819722 0.01762743 0.01807655 1000 0.01793531 0.01833802 0.01819722 0.01762743 0.01807655 1000
lala 8 1.2 0 first 3 1 119 5 3.05 0.499997854232788 -1 1 -1 1 0.01848393 0.01877922 0.01845485 1000 1000 1000 0.01848393 0.01877922 0.01845485 1000 1000 1000 0.0191321 0.01884918 0.01615103 0.01528876 0.01309801 1000 0.0191321 0.01884918 0.01615103 0.01528876 0.01309801 1000
lala 7 1.2 1 first 15 1 120 5 1.65 0.359997987747192 0 1 1 0 -0.01320742 -0.01336047 -0.01290158 1000 1000 1000 -0.01320742 -0.01336047 -0.01290158 1000 1000 1000 -0.01125237 -0.01091312 -0.0108315 -0.01016412 -0.009747975 1000 -0.01125237 -0.01091312 -0.0108315 -0.01016412 -0.009747975 1000
lala 7 1.2 1 second 14 1 121 5 5.7 0.219998121261597 0 0 1 1 -0.007792789 -0.007717452 -0.006905351 -0.006567168 -0.007164252 1000 -0.007792789 -0.007717452 -0.006905351 -0.006567168 -0.007164252 1000 -0.006162344 -0.006042915 -0.006366311 -0.005992373 -0.006169323 1000 -0.006162344 -0.006042915 -0.006366311 -0.005992373 -0.006169323 1000
lala 10 0.6 0 first 12 1 122 4 1.92 0.01999831199646 0 0 -1 0 -0.004901723 -0.005330264 -0.004909652 1000 1000 1000 -0.004901723 -0.005330264 -0.004909652 1000 1000 1000 -0.003431233 -0.003484467 -0.00313076 -0.003045104 -0.002278009 1000 -0.003431233 -0.003484467 -0.00313076 -0.003045104 -0.002278009 1000
lala 4 1.2 0 first 13 1 123 4 1.72 0.479997873306274 0 1 -1 0 -0.001851565 -0.002018787 -0.002042115 1000 1000 1000 -0.001851565 -0.002018787 -0.002042115 1000 1000 1000 -0.0001724487 -0.0006271614 -0.0001746911 -0.0002267147 0.0002114705 1000 -0.0001724487 -0.0006271614 -0.0001746911 -0.0002267147 0.0002114705 1000
lala 8 1.2 0 first 8 1 124 5 2.1 0.079998254776001 1 0 -1 0 0.0006037947 0.001620354 0.0007576733 1000 1000 1000 0.0006037947 0.001620354 0.0007576733 1000 1000 1000 0.001690879 0.001478222 0.001377547 0.001719099 0.001435603 1000 0.001690879 0.001478222 0.001377547 0.001719099 0.001435603 1000
lala 11 0.6 1 first 12 1 125 4 2.52 0.419997930526733 0 0 1 1 0.003218193 0.003376889 0.002697021 1000 1000 1000 0.003218193 0.003376889 0.002697021 1000 1000 1000 0.003842736 0.003351696 0.003267222 0.00375219 0.00358949 1000 0.003842736 0.003351696 0.003267222 0.00375219 0.00358949 1000
lala 8 1.2 1 first 14 1 126 5 4.5 0.01999831199646 0 0 1 1 0.005978723 0.00605733 0.006605634 1000 1000 1000 0.005978723 0.00605733 0.006605634 1000 1000 1000 0.006329613 0.007399455 0.007226611 0.006824127 0.007071438 1000 0.006329613 0.007399455 0.007226611 0.006824127 0.007071438 1000
lala 9 1.2 1 first 14 1 127 5 3.3 0.599997758865356 0 0 1 0 0.007526187 0.00728994 0.007899754 1000 1000 1000 0.007526187 0.00728994 0.007899754 1000 1000 1000 0.0087573 0.009903685 0.009293023 0.009090068 0.009261723 1000 0.0087573 0.009903685 0.009293023 0.009090068 0.009261723 1000
lala 8 1.2 1 second 6 1 128 4 3.84 0.439997911453247 1 0 1 1 0.008403842 0.008340594 0.008920327 0.009132103 0.008528644 1000 0.008403842 0.008340594 0.008920327 0.009132103 0.008528644 1000 0.009526465 0.008793509 0.008380269 0.008704509 0.008395345 1000 0.009526465 0.008793509 0.008380269 0.008704509 0.008395345 1000
lala 10 2.4 0 second 14 1 129 5 1.65 0.079998254776001 0 0 -1 1 0.01027961 0.01094414 0.01076859 0.01132724 0.01104395 1000 0.01027961 0.01094414 0.01076859 0.01132724 0.01104395 1000 0.009656478 0.01076776 0.01019743 0.01006181 0.01042245 1000 0.009656478 0.01076776 0.01019743 0.01006181 0.01042245 1000
lala 9 1.2 0 first 7 1 130 4 2.92 0.199998140335083 1 1 -1 0 0.0103975 0.01111501 0.0112525 1000 1000 1000 0.0103975 0.01111501 0.0112525 1000 1000 1000 0.01257227 0.01251975 0.01206258 0.01239474 0.01210441 1000 0.01257227 0.01251975 0.01206258 0.01239474 0.01210441 1000
lala 8 1.2 0 second 11 1 131 6 1.980001 0.199998140335083 1 1 -1 1 0.01386434 0.014063 0.01319533 0.01384702 0.01361887 1000 0.01386434 0.014063 0.01319533 0.01384702 0.01361887 1000 0.01218589 0.01271929 0.01271339 0.01343905 0.01365525 1000 0.01218589 0.01271929 0.01271339 0.01343905 0.01365525 1000
lala 13 0.15 0 first 17 1 132 6 2.580001 0.299998044967651 0 1 -1 0 0.01382982 0.01388802 0.01407029 1000 1000 1000 0.01382982 0.01388802 0.01407029 1000 1000 1000 0.01149974 0.0120098 0.01216934 0.01182112 0.01239007 1000 0.01149974 0.0120098 0.01216934 0.01182112 0.01239007 1000
lala 5 1.2 1 second 2 1 133 5 3.3 0.639997720718384 -1 0 1 1 0.01309666 0.0133043 0.01251971 0.01257326 0.01280048 1000 0.01309666 0.0133043 0.01251971 0.01257326 0.01280048 1000 0.01312159 0.01366154 0.01349109 0.01349824 0.01428163 1000 0.01312159 0.01366154 0.01349109 0.01349824 0.01428163 1000
lala 9 1.2 1 second 11 1 134 6 3.180001 0.939997434616089 1 1 1 1 0.0145025 0.01368655 0.01379083 0.01382315 0.01400272 1000 0.0145025 0.01368655 0.01379083 0.01382315 0.01400272 1000 0.01472449 0.01478017 0.01518662 0.0151159 0.0150261 1000 0.01472449 0.01478017 0.01518662 0.0151159 0.0150261 1000
lala 10 0.6 0 second 11 1 135 6 2.580001 0.939997434616089 1 1 -1 0 0.01644582 0.01784124 0.01555764 0.01498572 0.01533799 1000 0.01644582 0.01784124 0.01555764 0.01498572 0.01533799 1000 0.01498305 0.0152699 0.01505414 0.01570443 0.01522393 1000 0.01498305 0.0152699 0.01505414 0.01570443 0.01522393 1000
lala 6 1.2 1 second 9 1 136 5 3.05 0.759997606277466 1 1 1 0 0.01652867 0.01700762 0.01634483 0.01594208 0.01625164 1000 0.01652867 0.01700762 0.01634483 0.01594208 0.01625164 1000 0.0167774 0.01582787 0.01658909 0.01654858 0.01729728 1000 0.0167774 0.01582787 0.01658909 0.01654858 0.01729728 1000
lala 14 0.075 1 first 17 1 137 6 2.655001 0.159998178482056 0 1 1 1 0.01696849 0.01691947 0.0168761 1000 1000 1000 0.01696849 0.01691947 0.0168761 1000 1000 1000 0.01663747 0.01666126 0.01699945 0.01603045 0.01595916 1000 0.01663747 0.01666126 0.01699945 0.01603045 0.01595916 1000
lala 8 1.2 1 second 5 1 138 6 4.380001 0.679997682571411 -1 1 1 0 0.01638759 0.01627438 0.01628983 0.01714315 0.01646265 1000 0.01638759 0.01627438 0.01628983 0.01714315 0.01646265 1000 0.01809398 0.01830227 0.01740776 0.01715731 0.01696148 1000 0.01809398 0.01830227 0.01740776 0.01715731 0.01696148 1000
lala 7 1.2 0 first 9 1 139 5 1.85 0.0999982357025146 1 1 -1 1 0.01852497 0.0184869 0.01911342 1000 1000 1000 0.01852497 0.0184869 0.01911342 1000 1000 1000 0.0185194 0.01896839 0.01881175 0.01934223 0.01933095 1000 0.0185194 0.01896839 0.01881175 0.01934223 0.01933095 1000
lala 12 0.3 1 first 12 1 140 4 2.22 0.299998044967651 0 0 1 0 0.01952915 0.02001381 0.0197878 1000 1000 1000 0.01952915 0.02001381 0.0197878 1000 1000 1000 0.01970727 0.01942109 0.02015915 0.02012918 0.01937831 1000 0.01970727 0.01942109 0.02015915 0.02012918 0.01937831 1000
lala 15 0.0375 1 second 17 1 141 6 2.617501 0.379997968673706 0 1 1 1 0.02088729 0.02127169 0.02111209 0.02012157 0.02027584 1000 0.02088729 0.02127169 0.02111209 0.02012157 0.02027584 1000 0.02011828 0.01968079 0.02033886 0.02019641 0.02060739 1000 0.02011828 0.01968079 0.02033886 0.02019641 0.02060739 1000
lala 5 1.2 1 first 10 1 142 6 1.98 0.319998025894165 1 0 1 1 0.02150188 0.02174225 0.02196744 1000 1000 1000 0.02150188 0.02174225 0.02196744 1000 1000 1000 0.0208481 0.02135542 0.0211987 0.02133422 0.02162732 1000 0.0208481 0.02135542 0.0211987 0.02133422 0.02162732 1000
lala 6 1.2 1 second 10 1 143 6 1.98 2.53999614715576 1 0 1 0 0.02130857 0.02085839 0.0206822 0.02103092 0.02061023 1000 0.02130857 0.02085839 0.0206822 0.02103092 0.02061023 1000 0.02104553 0.02156205 0.02109838 0.02132719 0.02057038 1000 0.02104553 0.02156205 0.02109838 0.02132719 0.02057038 1000
lala 9 1.2 1 second 3 1 144 5 4.25 0.23999810218811 -1 1 1 1 0.001469016 0.00522283 0.00592982 0.006050688 0.007792269 1000 0.001469016 0.00522283 0.00592982 0.006050688 0.007792269 1000 0.01667548 0.01590666 0.01654518 0.01681638 0.0175412 1000 0.01667548 0.01590666 0.01654518 0.01681638 0.0175412 1000
lala 7 1.2 0 first 10 1 145 6 1.98 0.339998006820679 1 0 -1 0 0.01716287 0.0177637 0.0171428 1000 1000 1000 0.01716287 0.0177637 0.0171428 1000 1000 1000 0.01842267 0.01841483 0.0188787 0.01804648 0.01782666 1000 0.01842267 0.01841483 0.0188787 0.01804648 0.01782666 1000
lala 13 0.3 1 second 12 1 146 4 1.92 0.559997797012329 0 0 1 1 0.01872018 0.01908422 0.01843376 0.01935341 0.01930169 1000 0.01872018 0.01908422 0.01843376 0.01935341 0.01930169 1000 0.01948381 0.01976415 0.0190419 0.01988691 0.01946847 1000 0.01948381 0.01976415 0.0190419 0.01988691 0.01946847 1000
lala 9 1.2 0 first 6 1 147 4 2.64 1.87999677658081 1 0 -1 0 0.01897913 0.01933953 0.0168739 1000 1000 1000 0.01897913 0.01933953 0.0168739 1000 1000 1000 0.01002623 0.01036695 0.01066448 0.0110778 0.01032638 1000 0.01002623 0.01036695 0.01066448 0.0110778 0.01032638 1000
lala 16 0.0375 0 first 17 1 148 6 2.580001 0.879997491836548 0 1 -1 1 0.01321763 0.01356898 0.0129613 1000 1000 1000 0.01321763 0.01356898 0.0129613 1000 1000 1000 0.01515309 0.01466476 0.0140549 0.01427933 0.01422346 1000 0.01515309 0.01466476 0.0140549 0.01427933 0.01422346 1000
lala 14 0.3 1 first 12 1 149 4 1.62 0.279998064041138 0 0 1 0 0.01501104 0.01546723 0.01565471 1000 1000 1000 0.01501104 0.01546723 0.01565471 1000 1000 1000 0.01545116 0.01526593 0.01563204 0.01553382 0.01483985 1000 0.01545116 0.01526593 0.01563204 0.01553382 0.01483985 1000
lala 5 1.2 1 first 13 1 150 4 2.92 0.539997816085815 0 1 1 1 -0.01416659 -0.005761292 -0.00334497 -0.004562899 -0.004172175 -0.004163963 -0.01416659 -0.005761292 -0.00334497 -0.004562899 -0.004172175 -0.004163963 -0.00114871 -0.001138303 -0.001216943 -0.0005538025 -0.0004117363 1000 -0.00114871 -0.001138303 -0.001216943 -0.0005538025 -0.0004117363 1000
lala 11 1.2 0 second 14 1 151 5 2.85 0.459997892379761 0 0 -1 0 0.001711464 0.001728105 0.002399902 0.001728146 0.001812971 1000 0.001711464 0.001728105 0.002399902 0.001728146 0.001812971 1000 0.004932654 0.004367057 0.004360979 0.004571909 0.00452333 1000 0.004932654 0.004367057 0.004360979 0.004571909 0.00452333 1000
lala 6 1.2 0 second 2 1 152 5 2.1 0.219998121261597 -1 0 -1 1 0.005091855 0.005412237 0.005469383 0.006053767 0.005384636 1000 0.005091855 0.005412237 0.005469383 0.006053767 0.005384636 1000 0.007006376 0.006862924 0.006014426 0.006275434 0.006088258 1000 0.007006376 0.006862924 0.006014426 0.006275434 0.006088258 1000
lala 7 1.2 1 first 2 1 153 5 3.3 0.079998254776001 -1 0 1 1 0.007146795 0.0062092 0.006797403 1000 1000 1000 0.007146795 0.0062092 0.006797403 1000 1000 1000 0.007814066 0.007874111 0.007938776 0.007870622 0.00802036 1000 0.007814066 0.007874111 0.007938776 0.007870622 0.00802036 1000
lala 9 1.2 1 first 4 1 154 6 4.38 0.139998197555542 -1 0 1 1 0.008080553 0.007751211 0.008339158 1000 1000 1000 0.008080553 0.007751211 0.008339158 1000 1000 1000 0.009230743 0.009501314 0.009370707 0.009929296 0.009489303 1000 0.009230743 0.009501314 0.009370707 0.009929296 0.009489303 1000
lala 8 1.2 1 first 9 1 155 5 3.05 0.279998064041138 1 1 1 1 0.009274332 0.009649424 0.009503382 1000 1000 1000 0.009274332 0.009649424 0.009503382 1000 1000 1000 0.01092109 0.01062229 0.01110853 0.01082254 0.0104457 1000 0.01092109 0.01062229 0.01110853 0.01082254 0.0104457 1000
lala 6 1.2 0 second 13 1 156 4 1.72 0.23999810218811 0 1 -1 1 0.01230692 0.01211243 0.01277044 0.01178224 0.01203924 1000 0.01230692 0.01211243 0.01277044 0.01178224 0.01203924 1000 0.01220967 0.01158011 0.01172584 0.01186181 0.01158397 1000 0.01220967 0.01158011 0.01172584 0.01186181 0.01158397 1000
lala 10 0.6 1 second 3 1 157 5 3.65 0.299998044967651 -1 1 1 1 0.01373042 0.01305024 0.01285647 0.01339537 0.01327103 1000 0.01373042 0.01305024 0.01285647 0.01339537 0.01327103 1000 0.01294292 0.01327515 0.01313039 0.0140487 0.01311742 1000 0.01294292 0.01327515 0.01313039 0.0140487 0.01311742 1000
lala 12 1.2 1 second 14 1 158 5 4.05 0.299998044967651 0 0 1 0 0.01512556 0.01499466 0.01550357 0.01560359 0.01497491 1000 0.01512556 0.01499466 0.01550357 0.01560359 0.01497491 1000 0.01591856 0.01557081 0.0146653 0.01574676 0.01542481 1000 0.01591856 0.01557081 0.0146653 0.01574676 0.01542481 1000
lala 9 1.2 1 second 16 1 159 6 4.38 0.139998197555542 0 0 1 0 0.01757962 0.01664146 0.0168054 0.01684358 0.01674475 1000 0.01757962 0.01664146 0.0168054 0.01684358 0.01674475 1000 0.01690688 0.01707274 0.01712102 0.01759223 0.01665873 1000 0.01690688 0.01707274 0.01712102 0.01759223 0.01665873 1000
lala 8 1.2 1 first 10 1 160 6 3.18 0.499997854232788 1 0 1 1 0.01897348 0.01841304 0.0188886 1000 1000 1000 0.01897348 0.01841304 0.0188886 1000 1000 1000 0.01896993 0.01948943 0.01937107 0.01865002 0.01930319 1000 0.01896993 0.01948943 0.01937107 0.01865002 0.01930319 1000
lala 8 1.2 0 second 2 1 161 5 2.1 0.319998025894165 -1 0 -1 0 0.01970363 0.01979441 0.01989763 0.01978986 0.02003535 1000 0.01970363 0.01979441 0.01989763 0.01978986 0.02003535 1000 0.02025955 0.02004136 0.02077384 0.02003382 0.02017629 1000 0.02025955 0.02004136 0.02077384 0.02003382 0.02017629 1000
lala 5 1.2 1 second 0 1 162 4 5.04 0.639997720718384 -1 0 1 0 0.02162059 0.02188031 0.02164298 0.02105792 0.02156038 1000 0.02162059 0.02188031 0.02164298 0.02105792 0.02156038 1000 0.02201502 0.02133216 0.02165807 0.02190948 0.0216684 1000 0.02201502 0.02133216 0.02165807 0.02190948 0.0216684 1000
lala 13 0.6 1 second 14 1 163 5 3.45 0.359997987747192 0 0 1 1 0.02266419 0.02290969 0.02278152 0.02222325 0.02258776 1000 0.02266419 0.02290969 0.02278152 0.02222325 0.02258776 1000 0.02350529 0.02281167 0.02305188 0.02350922 0.02319176 1000 0.02350529 0.02281167 0.02305188 0.02350922 0.02319176 1000
lala 14 0.6 1 first 14 1 164 5 2.85 0.299998044967651 0 0 1 1 0.0246449 0.02501789 0.0249662 1000 1000 1000 0.0246449 0.02501789 0.0249662 1000 1000 1000 0.01352555 0.0135718 0.01413753 0.01466498 0.01404059 1000 0.01352555 0.0135718 0.01413753 0.01466498 0.01404059 1000
lala 9 1.2 0 first 5 1 165 6 3.180001 0.379997968673706 -1 1 -1 0 0.01707098 0.01754757 0.01637761 1000 1000 1000 0.01707098 0.01754757 0.01637761 1000 1000 1000 0.01607127 0.01535991 0.01534147 0.01571132 0.01577904 1000 0.01607127 0.01535991 0.01534147 0.01571132 0.01577904 1000
lala 10 0.6 1 first 6 1 166 4 3.24 0.23999810218811 1 0 1 1 0.01712361 0.01689066 0.01713438 1000 1000 1000 0.01712361 0.01689066 0.01713438 1000 1000 1000 0.01746206 0.01817381 0.01831333 0.01791795 0.01852296 1000 0.01746206 0.01817381 0.01831333 0.01791795 0.01852296 1000
lala 7 1.2 1 first 13 1 167 4 2.92 0.319998025894165 0 1 1 1 0.01881998 0.01854043 0.01850127 1000 1000 1000 0.01881998 0.01854043 0.01850127 1000 1000 1000 0.02128445 0.02046427 0.02087142 0.02073534 0.02140919 1000 0.02128445 0.02046427 0.02087142 0.02073534 0.02140919 1000
lala 15 0.6 0 second 14 1 168 5 2.25 0.299998044967651 0 0 -1 0 0.02059716 0.02137621 0.02121076 0.02176373 0.02152631 1000 0.02059716 0.02137621 0.02121076 0.02176373 0.02152631 1000 0.0225412 0.02284416 0.02255218 0.02200368 0.02223198 1000 0.0225412 0.02284416 0.02255218 0.02200368 0.02223198 1000
lala 10 0.6 1 second 4 1 169 6 3.78 0.319998025894165 -1 0 1 1 0.02362617 0.02442425 0.0239788 0.02428248 0.02453019 1000 0.02362617 0.02442425 0.0239788 0.02428248 0.02453019 1000 0.02472514 0.02472142 0.02492217 0.02489413 0.02522695 1000 0.02472514 0.02472142 0.02492217 0.02489413 0.02522695 1000
lala 11 0.3 0 second 6 1 170 4 2.94 0.959997415542603 1 0 -1 0 -0.01043849 -0.01131946 -0.009630258 -0.008577525 -0.009959733 1000 -0.01043849 -0.01131946 -0.009630258 -0.008577525 -0.009959733 1000 -0.0104976 -0.01061654 -0.009811566 -0.009687891 -0.00896301 1000 -0.0104976 -0.01061654 -0.009811566 -0.009687891 -0.00896301 1000
lala 10 0.6 0 second 16 1 171 6 3.78 0.319998025894165 0 0 -1 1 -0.002512681 -0.002266131 -0.002729337 -0.002238323 -0.00216633 1000 -0.002512681 -0.002266131 -0.002729337 -0.002238323 -0.00216633 1000 -0.003619498 -0.001871206 0.001739607 0.002490873 0.003591238 1000 -0.003619498 -0.001871206 0.001739607 0.002490873 0.003591238 1000
lala 11 0.6 1 second 3 1 172 5 3.05 0.61999773979187 -1 1 1 1 0.01107775 0.01215045 0.01300866 0.01331911 0.01231436 1000 0.01107775 0.01215045 0.01300866 0.01331911 0.01231436 1000 0.01371799 0.01364113 0.0134707 0.01398079 0.01410909 1000 0.01371799 0.01364113 0.0134707 0.01398079 0.01410909 1000
lala 9 1.2 0 first 10 1 173 6 1.98 0.479997873306274 1 0 -1 1 0.01552244 0.01509028 0.01570316 1000 1000 1000 0.01552244 0.01509028 0.01570316 1000 1000 1000 0.0174825 0.01793531 0.01781782 0.01814131 0.0179478 1000 0.0174825 0.01793531 0.01781782 0.01814131 0.0179478 1000
lala 6 1.2 1 first 0 1 174 4 3.84 0.479997873306274 -1 0 1 0 0.01936969 0.01885679 0.02009634 1000 1000 1000 0.01936969 0.01885679 0.02009634 1000 1000 1000 0.02177923 0.0222766 0.02226034 0.02258579 0.02263061 1000 0.02177923 0.0222766 0.02226034 0.02258579 0.02263061 1000
lala 7 1.2 0 second 0 1 175 4 2.64 0.419997930526733 -1 0 -1 0 0.02437628 0.02125134 0.01914556 0.0192104 0.02036052 1000 0.02437628 0.02125134 0.01914556 0.0192104 0.02036052 1000 0.02227431 0.02301903 0.02309162 0.0225327 0.02340748 1000 0.02227431 0.02301903 0.02309162 0.0225327 0.02340748 1000
lala 8 1.2 1 first 13 1 176 4 1.72 0.359997987747192 0 1 1 1 0.02534589 0.02522377 0.02539087 1000 1000 1000 0.02534589 0.02522377 0.02539087 1000 1000 1000 0.02124169 0.02207293 0.02220946 0.02209294 0.02248915 1000 0.02124169 0.02207293 0.02220946 0.02209294 0.02248915 1000
lala 9 1.2 1 second 9 1 177 5 1.85 3.0399956703186 1 1 1 1 0.02356991 0.02481761 0.0277073 0.03051765 0.0357697 1000 0.02356991 0.02481761 0.0277073 0.03051765 0.0357697 1000 0.03306419 0.03712762 0.03903265 0.04179815 0.04093219 1000 0.03306419 0.03712762 0.03903265 0.04179815 0.04093219 1000
lala 9 1.2 1 first 8 1 178 5 3.3 0.259998083114624 1 0 1 1 0.01133438 0.01137673 0.0120036 1000 1000 1000 0.01133438 0.01137673 0.0120036 1000 1000 1000 0.01440244 0.01466417 0.01421115 0.0146748 0.01471769 1000 0.01440244 0.01466417 0.01421115 0.0146748 0.01471769 1000
lala 10 0.6 1 first 10 1 179 6 2.58 0.839997529983521 1 0 1 0 0.01788718 0.01823823 0.01814059 1000 1000 1000 0.01788718 0.01823823 0.01814059 1000 1000 1000 0.0220967 0.02166769 0.02229481 0.02183014 0.02234015 1000 0.0220967 0.02166769 0.02229481 0.02183014 0.02234015 1000
lala 9 1.2 0 second 13 1 180 4 1.32 0.199998140335083 0 1 -1 0 0.02443839 0.02420086 0.02447447 0.0239777 0.02486746 1000 0.02443839 0.02420086 0.02447447 0.0239777 0.02486746 1000 0.02513187 0.02518459 0.0258007 0.02536801 0.02556261 1000 0.02513187 0.02518459 0.0258007 0.02536801 0.02556261 1000
lala 7 1.2 1 first 1 1 181 4 2.92 0.199998140335083 -1 1 1 1 0.02522091 0.02416804 0.02346615 1000 1000 1000 0.02522091 0.02416804 0.02346615 1000 1000 1000 0.021385 0.02185223 0.02221678 0.02152873 0.02185517 1000 0.021385 0.02185223 0.02221678 0.02152873 0.02185517 1000
lala 16 0.3 1 first 14 1 182 5 2.55 0.419997930526733 0 0 1 0 0.02253572 0.02261686 0.02229795 1000 1000 1000 0.02253572 0.02261686 0.02229795 1000 1000 1000 0.02448007 0.02443988 0.02395064 0.02364402 0.0240267 1000 0.02448007 0.02443988 0.02395064 0.02364402 0.0240267 1000
lala 17 0.15 1 second 14 1 183 5 2.4 0.759997606277466 0 0 1 0 0.02386752 0.02375465 0.02413628 0.02386978 0.0245498 1000 0.02386752 0.02375465 0.02413628 0.02386978 0.0245498 1000 0.0240505 0.02335349 0.02329649 0.02316697 0.02394234 1000 0.0240505 0.02335349 0.02329649 0.02316697 0.02394234 1000
lala 8 1.2 0 second 15 1 184 5 1.65 0.679997682571411 0 1 -1 0 0.02382644 0.02085592 0.01966575 0.01826097 0.01804411 1000 0.02382644 0.02085592 0.01966575 0.01826097 0.01804411 1000 0.01239718 0.01202817 0.01301873 0.01277182 0.01267849 1000 0.01239718 0.01202817 0.01301873 0.01277182 0.01267849 1000
lala 17 0.01875 0 first 17 1 185 6 2.598751 0.519997835159302 0 1 -1 1 0.0165216 0.01655397 0.01682912 1000 1000 1000 0.0165216 0.01655397 0.01682912 1000 1000 1000 0.0167877 0.01745173 0.01723069 0.01718226 0.01777546 1000 0.0167877 0.01745173 0.01723069 0.01718226 0.01777546 1000
lala 10 0.6 1 second 13 1 186 4 1.92 0.759997606277466 0 1 1 0 0.01820536 0.01857889 0.01826783 0.01888382 0.01835187 1000 0.01820536 0.01857889 0.01826783 0.01888382 0.01835187 1000 0.01866383 0.01968746 0.01951221 0.01921649 0.01963647 1000 0.01866383 0.01968746 0.01951221 0.01921649 0.01963647 1000
lala 8 1.2 1 second 0 1 187 4 3.84 0.01999831199646 -1 0 1 1 0.01996694 0.02049493 0.01974678 0.01986861 0.02038539 1000 0.01996694 0.02049493 0.01974678 0.01986861 0.02038539 1000 0.02042114 0.02060337 0.02054573 0.02030551 0.02104457 1000 0.02042114 0.02060337 0.02054573 0.02030551 0.02104457 1000
lala 9 1.2 1 first 0 1 188 4 2.64 0.219998121261597 -1 0 1 1 0.02126751 0.02090224 0.02045205 1000 1000 1000 0.02126751 0.02090224 0.02045205 1000 1000 1000 0.02174239 0.0215772 0.02169518 0.0214883 0.02238162 1000 0.02174239 0.0215772 0.02169518 0.0214883 0.02238162 1000
lala 10 1.2 0 first 9 1 189 5 1.65 0.01999831199646 1 1 -1 1 0.02170238 0.02246205 0.02212156 1000 1000 1000 0.02170238 0.02246205 0.02212156 1000 1000 1000 0.02367404 0.0235974 0.0237838 0.02354122 0.02309064 1000 0.02367404 0.0235974 0.0237838 0.02354122 0.02309064 1000
lala 10 0.6 0 first 5 1 190 6 3.780001 0.259998083114624 -1 1 -1 0 0.02359863 0.02380317 0.02399893 1000 1000 1000 0.02359863 0.02380317 0.02399893 1000 1000 1000 0.02447797 0.02443808 0.02392359 0.02443753 0.02391962 1000 0.02447797 0.02443808 0.02392359 0.02443753 0.02391962 1000
lala 8 1.2 0 first 1 1 191 4 1.72 0.339998006820679 -1 1 -1 1 0.02416129 0.02393535 0.02478982 1000 1000 1000 0.02416129 0.02393535 0.02478982 1000 1000 1000 0.02435274 0.02539639 0.02473738 0.0243619 0.02473381 1000 0.02435274 0.02539639 0.02473738 0.0243619 0.02473381 1000
lala 10 1.2 0 second 0 1 192 4 1.44 0.299998044967651 -1 0 -1 0 0.02091998 0.0189614 0.01909328 0.01937214 0.01989736 1000 0.02091998 0.0189614 0.01909328 0.01937214 0.01989736 1000 0.02115065 0.02115671 0.02157912 0.02096784 0.02167463 1000 0.02115065 0.02115671 0.02157912 0.02096784 0.02167463 1000
lala 18 0.01875 0 second 17 1 193 6 2.617501 0.279998064041138 0 1 -1 1 0.02305789 0.02355334 0.02323379 0.02299991 0.02330037 1000 0.02305789 0.02355334 0.02323379 0.02299991 0.02330037 1000 0.02265985 0.02268795 0.02316378 0.02351688 0.02442924 1000 0.02265985 0.02268795 0.02316378 0.02351688 0.02442924 1000
lala 11 0.3 0 first 10 1 194 6 2.28 0.339998006820679 1 0 -1 0 0.02398482 0.0238191 0.0243905 1000 1000 1000 0.02398482 0.0238191 0.0243905 1000 1000 1000 0.02549393 0.02548119 0.02591494 0.02528991 0.02544475 1000 0.02549393 0.02548119 0.02591494 0.02528991 0.02544475 1000
lala 11 0.6 0 first 9 1 195 5 2.25 0.279998064041138 1 1 -1 1 0.02479354 0.02490757 0.02478008 1000 1000 1000 0.02479354 0.02490757 0.02478008 1000 1000 1000 0.02592309 0.02565021 0.02594184 0.02542266 0.02536866 1000 0.02592309 0.02565021 0.02594184 0.02542266 0.02536866 1000
lala 11 0.3 0 first 11 1 196 6 2.880001 0.99999737739563 1 1 -1 1 0.02610992 0.02589879 0.02605349 1000 1000 1000 0.02610992 0.02589879 0.02605349 1000 1000 1000 0.00411667 0.004526389 0.005490283 0.00485124 0.005536362 1000 0.00411667 0.004526389 0.005490283 0.00485124 0.005536362 1000
lala 12 0.15 0 first 6 1 197 4 3.09 0.259998083114624 1 0 -1 0 0.01222468 0.01206784 0.0120591 1000 1000 1000 0.01222468 0.01206784 0.0120591 1000 1000 1000 0.01557342 0.01617231 0.01678336 0.01598857 0.01636589 1000 0.01557342 0.01617231 0.01678336 0.01598857 0.01636589 1000
lala 11 0.3 1 first 16 1 198 6 4.08 0.419997930526733 0 0 1 0 0.01725099 0.01648155 0.01651136 1000 1000 1000 0.01725099 0.01648155 0.01651136 1000 1000 1000 0.01848776 0.01842916 0.01845073 0.01832555 0.0183151 1000 0.01848776 0.01842916 0.01845073 0.01832555 0.0183151 1000
lala 13 0.15 0 first 6 1 199 4 3.24 0.639997720718384 1 0 -1 0 0.01897922 0.01967847 0.01915606 1000 1000 1000 0.01897922 0.01967847 0.01915606 1000 1000 1000 0.02089958 0.02037653 0.02070509 0.02083744 0.02062807 1000 0.02089958 0.02037653 0.02070509 0.02083744 0.02062807 1000
lala 11 0.3 1 first 13 1 200 4 1.62 0.459997892379761 0 1 1 1 -0.01599566 -0.007977289 -0.00126809 -0.002462125 -0.0036994 -0.004471433 -0.01599566 -0.007977289 -0.00126809 -0.002462125 -0.0036994 -0.004471433 0.0003009232 -0.0002941711 -4.769831E-05 0.00020816 0.0002291868 1000 0.0003009232 -0.0002941711 -4.769831E-05 0.00020816 0.0002291868 1000
lala 9 1.2 1 second 1 1 201 4 2.92 1.99999666213989 -1 1 1 1 0.001742241 0.001822867 0.002226825 0.003055555 0.002644413 1000 0.001742241 0.001822867 0.002226825 0.003055555 0.002644413 1000 0.003123785 0.002739106 0.002529294 0.002674524 0.002830007 1000 0.003123785 0.002739106 0.002529294 0.002674524 0.002830007 1000
lala 12 0.6 0 second 3 1 202 5 2.45 0.519997835159302 -1 1 -1 1 0.006110675 0.006008105 0.006621284 0.005975516 0.006294585 1000 0.006110675 0.006008105 0.006621284 0.005975516 0.006294585 1000 0.009146748 0.008452844 0.008723236 0.008747039 0.008890907 1000 0.009146748 0.008452844 0.008723236 0.008747039 0.008890907 1000
lala 12 0.6 1 first 9 1 203 5 2.85 0.939997434616089 1 1 1 0 0.008794041 0.008434484 0.007682997 1000 1000 1000 0.008794041 0.008434484 0.007682997 1000 1000 1000 0.008766207 0.00869318 0.008920975 0.008700272 0.009338446 1000 0.008766207 0.00869318 0.008920975 0.008700272 0.009338446 1000
lala 9 1.2 1 first 15 1 204 5 2.85 0.319998025894165 0 1 1 1 0.01143667 0.01147594 0.01105906 1000 1000 1000 0.01143667 0.01147594 0.01105906 1000 1000 1000 0.0122517 0.01153574 0.0123971 0.01237912 0.01254312 1000 0.0122517 0.01153574 0.0123971 0.01237912 0.01254312 1000
lala 13 0.3 0 first 9 1 205 5 2.55 0.359997987747192 1 1 -1 1 0.01189127 0.01212416 0.01215254 1000 1000 1000 0.01189127 0.01212416 0.01215254 1000 1000 1000 0.01283261 0.01290358 0.01369136 0.01300893 0.01276724 1000 0.01283261 0.01290358 0.01369136 0.01300893 0.01276724 1000
lala 10 0.6 1 first 8 1 206 5 2.7 0.299998044967651 1 0 1 1 0.01284145 0.01173968 0.01230781 1000 1000 1000 0.01284145 0.01173968 0.01230781 1000 1000 1000 0.01172608 0.01214001 0.01212417 0.01267494 0.01256267 1000 0.01172608 0.01214001 0.01212417 0.01267494 0.01256267 1000
lala 18 0.15 0 second 14 1 207 5 2.25 0.299998044967651 0 0 -1 1 0.01213342 0.01198023 0.01230194 0.01230685 0.01166015 1000 0.01213342 0.01198023 0.01230194 0.01230685 0.01166015 1000 0.01478379 0.01429989 0.01406394 0.01438441 0.01424727 1000 0.01478379 0.01429989 0.01406394 0.01438441 0.01424727 1000
lala 11 0.6 1 second 5 1 208 6 4.380001 0.379997968673706 -1 1 1 0 0.01665027 0.01675588 0.01708398 0.01663038 0.01796233 1000 0.01665027 0.01675588 0.01708398 0.01663038 0.01796233 1000 0.01766933 0.01759175 0.01791094 0.01713342 0.0175364 1000 0.01766933 0.01759175 0.01791094 0.01713342 0.0175364 1000
lala 19 0.01875 0 second 17 1 209 6 2.636251 0.279998064041138 0 1 -1 0 0.01960072 0.01927262 0.01826649 0.01987397 0.0207143 1000 0.01960072 0.01927262 0.01826649 0.01987397 0.0207143 1000 0.01949683 0.01983795 0.01942639 0.01984058 0.01941044 1000 0.01949683 0.01983795 0.01942639 0.01984058 0.01941044 1000
lala 14 0.15 0 second 9 1 210 5 2.7 0.39999794960022 1 1 -1 0 0.0204302 0.02030704 0.0209654 0.02038272 0.02049849 1000 0.0204302 0.02030704 0.0209654 0.02038272 0.02049849 1000 0.02055247 0.02011155 0.02037645 0.02024445 0.02032517 1000 0.02055247 0.02011155 0.02037645 0.02024445 0.02032517 1000
lala 14 0.15 1 first 6 1 211 4 3.39 0.079998254776001 1 0 1 1 0.02149694 0.02190149 0.0229872 1000 1000 1000 0.02149694 0.02190149 0.0229872 1000 1000 1000 0.02255739 0.02329895 0.02278842 0.02261655 0.02341524 1000 0.02255739 0.02329895 0.02278842 0.02261655 0.02341524 1000
lala 10 0.6 0 second 1 1 212 4 2.32 3.67999505996704 -1 1 -1 1 0.02445583 0.02431418 0.02423761 0.02453097 0.02388993 1000 0.02445583 0.02431418 0.02423761 0.02453097 0.02388993 1000 0.02455649 0.02527265 0.02441904 0.02477238 0.02462588 1000 0.02455649 0.02527265 0.02441904 0.02477238 0.02462588 1000
lala 11 0.6 0 first 8 1 213 5 2.1 5.13999366760254 1 0 -1 0 0.013798 0.01439246 0.01319973 1000 1000 1000 0.013798 0.01439246 0.01319973 1000 1000 1000 0.02334535 0.03081997 0.03586036 0.03393178 0.03138185 1000 0.02334535 0.03081997 0.03586036 0.03393178 0.03138185 1000
lala 11 0.6 1 second 4 1 214 6 3.18 16.6602454185486 -1 0 1 0 0.001555525 0.001251811 0.002401843 0.00269597 0.002751064 1000 0.001555525 0.001251811 0.002401843 0.00269597 0.002751064 1000 0.004212813 0.00414735 0.003984552 0.003324703 0.003263712 1000 0.004212813 0.00414735 0.003984552 0.003324703 0.003263712 1000
lala 10 1.2 1 first 7 1 215 4 4.12 0.439997911453247 1 1 1 0 -0.01523682 -0.01635872 -0.01731094 1000 1000 1000 -0.01523682 -0.01635872 -0.01731094 1000 1000 1000 -0.01252543 -0.01211456 -0.01188239 -0.01119703 -0.01139505 1000 -0.01252543 -0.01211456 -0.01188239 -0.01119703 -0.01139505 1000
lala 12 0.3 0 second 8 1 216 5 2.4 0.419997930526733 1 0 -1 1 -0.009177379 -0.008973575 -0.008458462 -0.007248531 -0.007747927 1000 -0.009177379 -0.008973575 -0.008458462 -0.007248531 -0.007747927 1000 -0.004364688 -0.00409422 -0.004631694 -0.00399284 -0.003981037 1000 -0.004364688 -0.00409422 -0.004631694 -0.00399284 -0.003981037 1000
lala 15 0.6 0 second 12 1 217 4 1.32 0.23999810218811 0 0 -1 0 0.005365381 0.005727943 0.004777016 0.005482949 0.006115272 1000 0.005365381 0.005727943 0.004777016 0.005482949 0.006115272 1000 0.006724522 0.002674985 0.0035758 0.004514589 0.004231795 1000 0.006724522 0.002674985 0.0035758 0.004514589 0.004231795 1000
lala 13 0.3 0 second 3 1 218 5 2.75 0.419997930526733 -1 1 -1 0 0.003800931 0.001467256 -0.001149833 -0.001271057 -0.0009937278 1000 0.003800931 0.001467256 -0.001149833 -0.001271057 -0.0009937278 1000 -0.0004205771 5.88171E-05 -0.0004583159 0.0004653139 0.0007196972 1000 -0.0004205771 5.88171E-05 -0.0004583159 0.0004653139 0.0007196972 1000
lala 11 0.6 0 second 0 1 219 4 2.04 0.299998044967651 -1 0 -1 1 0.005640874 0.006535068 0.006069101 0.006613609 0.00667066 1000 0.005640874 0.006535068 0.006069101 0.006613609 0.00667066 1000 0.009113977 0.009182627 0.009149263 0.009640012 0.009389928 1000 0.009113977 0.009182627 0.009149263 0.009640012 0.009389928 1000
lala 13 0.3 0 second 8 1 220 5 2.7 0.23999810218811 1 0 -1 1 0.01223168 0.01185125 0.01233223 0.01231835 0.01284609 1000 0.01223168 0.01185125 0.01233223 0.01231835 0.01284609 1000 0.01408163 0.01344459 0.01415802 0.01381227 0.01457471 1000 0.01408163 0.01344459 0.01415802 0.01381227 0.01457471 1000
lala 12 0.15 0 second 16 1 221 6 3.93 0.219998121261597 0 0 -1 0 0.0157798 0.01555499 0.01591556 0.01591353 0.01688656 1000 0.0157798 0.01555499 0.01591556 0.01591353 0.01688656 1000 0.01754886 0.01766513 0.01846225 0.01836183 0.01762495 1000 0.01754886 0.01766513 0.01846225 0.01836183 0.01762495 1000
lala 15 0.075 1 first 6 1 222 4 3.315 0.159998178482056 1 0 1 0 0.01861009 0.01838342 0.0186682 1000 1000 1000 0.01861009 0.01838342 0.0186682 1000 1000 1000 0.02193289 0.02202644 0.02251021 0.02180026 0.02183982 1000 0.02193289 0.02202644 0.02251021 0.02180026 0.02183982 1000
lala 16 0.075 1 second 6 1 223 4 3.24 1.8599967956543 1 0 1 0 0.02253175 0.02279046 0.02278104 0.02341982 0.02317161 1000 0.02253175 0.02279046 0.02278104 0.02341982 0.02317161 1000 0.02456348 0.02467753 0.02372129 0.0242995 0.024312 1000 0.02456348 0.02467753 0.02372129 0.0242995 0.024312 1000
lala 12 0.3 0 second 11 1 224 6 3.180001 0.259998083114624 1 1 -1 1 0.006140376 0.003412819 0.001551117 0.0003986749 -0.001015514 1000 0.006140376 0.003412819 0.001551117 0.0003986749 -0.001015514 1000 -0.01607437 -0.01556499 -0.01529667 -0.01466244 -0.01455143 1000 -0.01607437 -0.01556499 -0.01529667 -0.01466244 -0.01455143 1000
lala 14 0.3 0 second 3 1 225 5 3.05 0.219998121261597 -1 1 -1 0 -0.0100282 -0.00958323 -0.009554368 -0.008703242 -0.009165718 1000 -0.0100282 -0.00958323 -0.009554368 -0.008703242 -0.009165718 1000 -0.005393827 -0.004408619 -0.005074755 -0.004919553 -0.004562405 1000 -0.005393827 -0.004408619 -0.005074755 -0.004919553 -0.004562405 1000
lala 11 0.6 1 second 7 1 226 4 3.52 0.219998121261597 1 1 1 0 -0.002730236 -0.002179191 -0.001788201 -0.002112901 -0.002158827 1000 -0.002730236 -0.002179191 -0.001788201 -0.002112901 -0.002158827 1000 -0.0003104618 -0.0006724792 -0.0007841288 -0.0003661507 -0.0001204629 1000 -0.0003104618 -0.0006724792 -0.0007841288 -0.0003661507 -0.0001204629 1000
lala 20 0.0375 1 first 17 1 227 6 2.673751 0.279998064041138 0 1 1 1 0.001731381 0.0008780442 0.001286997 1000 1000 1000 0.001731381 0.0008780442 0.001286997 1000 1000 1000 0.003161148 0.002982809 0.00349939 0.003197933 0.003639617 1000 0.003161148 0.002982809 0.00349939 0.003197933 0.003639617 1000
lala 13 0.075 0 second 16 1 228 6 4.005 0.339998006820679 0 0 -1 0 0.003961812 0.003997665 0.00448846 0.004282821 0.004809493 1000 0.003961812 0.003997665 0.00448846 0.004282821 0.004809493 1000 0.006055539 0.005771332 0.005791815 0.005760256 0.004417037 1000 0.006055539 0.005771332 0.005791815 0.005760256 0.004417037 1000
lala 21 0.01875 0 second 17 1 229 6 2.655001 0.01999831199646 0 1 -1 1 0.006153294 0.006039792 0.006644599 0.006470178 0.006593619 1000 0.006153294 0.006039792 0.006644599 0.006470178 0.006593619 1000 0.008152851 0.007941226 0.00755177 0.007970383 0.007834701 1000 0.008152851 0.007941226 0.00755177 0.007970383 0.007834701 1000
lala 12 0.3 0 first 13 1 230 4 1.32 0.179998159408569 0 1 -1 1 0.009025784 0.008581859 0.008905739 1000 1000 1000 0.009025784 0.008581859 0.008905739 1000 1000 1000 0.01005132 0.01035717 0.01026252 0.009662793 0.01008681 1000 0.01005132 0.01035717 0.01026252 0.009662793 0.01008681 1000
lala 12 0.3 1 first 5 1 231 6 4.080001 0.359997987747192 -1 1 1 1 0.01009099 0.01067631 0.01009792 1000 1000 1000 0.01009099 0.01067631 0.01009792 1000 1000 1000 0.01239221 0.01215307 0.01211997 0.01249859 0.01231429 1000 0.01239221 0.01215307 0.01211997 0.01249859 0.01231429 1000
lala 15 0.3 0 second 3 1 232 5 3.35 0.279998064041138 -1 1 -1 1 0.01477533 0.01411426 0.01461219 0.01454019 0.01443181 1000 0.01477533 0.01411426 0.01461219 0.01454019 0.01443181 1000 0.01352645 0.01343277 0.01348503 0.01425905 0.01377161 1000 0.01352645 0.01343277 0.01348503 0.01425905 0.01377161 1000
lala 17 0.075 1 second 6 1 233 4 3.165 0.279998064041138 1 0 1 0 0.0159509 0.0163251 0.01634645 0.01683338 0.01618395 1000 0.0159509 0.0163251 0.01634645 0.01683338 0.01618395 1000 0.01654977 0.01698771 0.01640114 0.01623578 0.01676861 1000 0.01654977 0.01698771 0.01640114 0.01623578 0.01676861 1000
lala 22 0.009375 0 first 17 1 234 6 2.664376 0.139998197555542 0 1 -1 1 0.01817174 0.0173788 0.01803105 1000 1000 1000 0.01817174 0.0173788 0.01803105 1000 1000 1000 0.02067866 0.01960541 0.02002587 0.02013686 0.0199097 1000 0.02067866 0.01960541 0.02002587 0.02013686 0.0199097 1000
lala 10 0.6 1 first 15 1 235 5 2.25 0.199998140335083 0 1 1 1 0.02066327 0.0201391 0.02066066 1000 1000 1000 0.02066327 0.0201391 0.02066066 1000 1000 1000 0.02203634 0.021554 0.02206996 0.02208956 0.02183549 1000 0.02203634 0.021554 0.02206996 0.02208956 0.02183549 1000
lala 15 0.15 0 first 9 1 236 5 2.85 0.39999794960022 1 1 -1 1 0.02207616 0.02246552 0.02322982 1000 1000 1000 0.02207616 0.02246552 0.02322982 1000 1000 1000 0.02408047 0.02475227 0.02516666 0.02490588 0.0253018 1000 0.02408047 0.02475227 0.02516666 0.02490588 0.0253018 1000
lala 18 0.15 1 second 6 1 237 4 3.015 0.299998044967651 1 0 1 1 0.01083457 0.01183235 0.01207129 0.01281382 0.01281385 1000 0.01083457 0.01183235 0.01207129 0.01281382 0.01281385 1000 0.01668271 0.01769017 0.01714495 0.01659296 0.01706569 1000 0.01668271 0.01769017 0.01714495 0.01659296 0.01706569 1000
lala 13 0.3 0 second 11 1 238 6 3.480001 0.39999794960022 1 1 -1 0 0.01719453 0.01720945 0.01613586 0.01669896 0.01676969 1000 0.01719453 0.01720945 0.01613586 0.01669896 0.01676969 1000 0.01946015 0.01978751 0.01996893 0.0205951 0.02080132 1000 0.01946015 0.01978751 0.01996893 0.0205951 0.02080132 1000
lala 16 0.3 0 second 12 1 239 4 1.62 0.39999794960022 0 0 -1 1 0.02202293 0.02146204 0.02165166 0.02082627 0.0193884 1000 0.02202293 0.02146204 0.02165166 0.02082627 0.0193884 1000 -0.01718301 -0.02062038 -0.02414616 -0.02822853 -0.02923856 1000 -0.01718301 -0.02062038 -0.02414616 -0.02822853 -0.02923856 1000
lala 14 0.6 1 second 11 1 240 6 4.080001 0.139998197555542 1 1 1 0 0.00510242 0.005545307 0.005299527 0.006321141 0.006995583 1000 0.00510242 0.005545307 0.005299527 0.006321141 0.006995583 1000 0.006030975 0.006834251 0.007209327 0.006663359 0.006756669 1000 0.006030975 0.006834251 0.007209327 0.006663359 0.006756669 1000
lala 11 0.6 0 first 15 1 241 5 1.65 0.01999831199646 0 1 -1 0 0.005552814 0.006419931 0.006279056 1000 1000 1000 0.005552814 0.006419931 0.006279056 1000 1000 1000 0.006602673 0.006318256 0.006805514 0.006726906 0.007070103 1000 0.006602673 0.006318256 0.006805514 0.006726906 0.007070103 1000
lala 23 0.009375 1 first 17 1 242 6 2.673751 0.439997911453247 0 1 1 0 0.008266662 0.008347691 0.008310151 1000 1000 1000 0.008266662 0.008347691 0.008310151 1000 1000 1000 0.008570141 0.008957803 0.008907082 0.009200206 0.01008949 1000 0.008570141 0.008957803 0.008907082 0.009200206 0.01008949 1000
lala 11 0.3 0 second 1 1 243 4 2.62 0.159998178482056 -1 1 -1 1 0.01214459 0.01290927 0.01261092 0.01262458 0.0127184 1000 0.01214459 0.01290927 0.01261092 0.01262458 0.0127184 1000 0.01315054 0.01331249 0.01329074 0.01313806 0.01331136 1000 0.01315054 0.01331249 0.01329074 0.01313806 0.01331136 1000
lala 24 0.0046875 0 second 17 1 244 6 2.669063 0.759997606277466 0 1 -1 1 0.01378623 0.01326131 0.01374384 0.01342777 0.01359351 1000 0.01378623 0.01326131 0.01374384 0.01342777 0.01359351 1000 0.01491462 0.01464694 0.01478944 0.01504561 0.01454196 1000 0.01491462 0.01464694 0.01478944 0.01504561 0.01454196 1000
lala 19 0.075 1 first 14 1 245 5 2.325 0.479997873306274 0 0 1 1 0.01595718 0.01668517 0.01657618 1000 1000 1000 0.01595718 0.01668517 0.01657618 1000 1000 1000 0.01749681 0.01758288 0.01726332 0.0179503 0.01860814 1000 0.01749681 0.01758288 0.01726332 0.0179503 0.01860814 1000
lala 13 0.15 1 first 13 1 246 4 1.47 1.17999720573425 0 1 1 0 0.01590969 0.01311855 0.008790081 1000 1000 1000 0.01590969 0.01311855 0.008790081 1000 1000 1000 -0.002068364 -0.002267019 -0.002265073 -0.00193415 -0.001869281 1000 -0.002068364 -0.002267019 -0.002265073 -0.00193415 -0.001869281 1000
lala 14 0.075 1 first 16 1 247 6 4.08 0.01999831199646 0 0 1 1 -0.002089632 -0.002059797 -0.002086489 1000 1000 1000 -0.002089632 -0.002059797 -0.002086489 1000 1000 1000 -0.0002219614 -0.0004095834 -0.0004922571 0.00040631 -0.0001175883 1000 -0.0002219614 -0.0004095834 -0.0004922571 0.00040631 -0.0001175883 1000
lala 14 0.3 1 first 8 1 248 5 3 0.219998121261597 1 0 1 0 -0.0009538002 -0.0008515668 -0.0005827011 1000 1000 1000 -0.0009538002 -0.0008515668 -0.0005827011 1000 1000 1000 0.000279265 0.000409283 0.0003668916 0.001198803 0.0006927738 1000 0.000279265 0.000409283 0.0003668916 0.001198803 0.0006927738 1000
lala 16 0.15 0 first 9 1 249 5 3 0.339998006820679 1 1 -1 1 0.0005707786 0.001007339 0.001269819 1000 1000 1000 0.0005707786 0.001007339 0.001269819 1000 1000 1000 0.001292591 0.00160652 0.001091116 0.001328482 0.001001047 1000 0.001292591 0.00160652 0.001091116 0.001328482 0.001001047 1000
lala 17 0.3 1 first 12 1 250 4 1.92 0.0999982357025146 0 0 1 0 -0.00493384 0.00551346 0.006424122 0.005687065 0.005149009 0.003568255 -0.00493384 0.00551346 0.006424122 0.005687065 0.005149009 0.003568255 0.004063938 0.004267571 0.00471407 0.004455566 0.004726245 1000 0.004063938 0.004267571 0.00471407 0.004455566 0.004726245 1000
lala 12 0.3 0 second 15 1 251 5 1.95 0.259998083114624 0 1 -1 1 0.003843089 0.003924691 0.003474326 0.00397245 0.003797962 1000 0.003843089 0.003924691 0.003474326 0.00397245 0.003797962 1000 0.003722137 0.004187475 0.004045077 0.003776131 0.004182693 1000 0.003722137 0.004187475 0.004045077 0.003776131 0.004182693 1000
lala 17 0.3 1 second 9 1 252 5 3.3 0.319998025894165 1 1 1 0 0.003195861 0.003223998 0.002439243 0.001314673 0.001994412 1000 0.003195861 0.003223998 0.002439243 0.001314673 0.001994412 1000 0.001950386 0.001612792 0.002004769 0.001757635 0.002216518 1000 0.001950386 0.001612792 0.002004769 0.001757635 0.002216518 1000
lala 15 0.3 1 second 11 1 253 6 3.780001 0.279998064041138 1 1 1 0 0.002647383 0.003039906 0.002680055 0.00280516 0.002703993 1000 0.002647383 0.003039906 0.002680055 0.00280516 0.002703993 1000 0.001979589 0.001994176 0.002406236 0.001761167 0.002124877 1000 0.001979589 0.001994176 0.002406236 0.001761167 0.002124877 1000
lala 12 0.6 0 first 0 1 254 4 2.64 0.279998064041138 -1 0 -1 0 0.003375936 0.003151652 0.002706592 1000 1000 1000 0.003375936 0.003151652 0.002706592 1000 1000 1000 0.002536462 0.001911334 0.001948486 0.002188757 0.001732034 1000 0.002536462 0.001911334 0.001948486 0.002188757 0.001732034 1000
lala 13 0.3 1 first 15 1 255 5 2.25 0.219998121261597 0 1 1 1 0.003334886 0.003442904 0.003735295 1000 1000 1000 0.003334886 0.003442904 0.003735295 1000 1000 1000 0.00216059 0.002714641 0.002479433 0.00261161 0.003000747 1000 0.00216059 0.002714641 0.002479433 0.00261161 0.003000747 1000
lala 12 0.6 1 second 7 1 256 4 2.92 0.259998083114624 1 1 1 0 0.003750953 0.003543217 0.003780598 0.003263276 0.003606256 1000 0.003750953 0.003543217 0.003780598 0.003263276 0.003606256 1000 0.004000914 0.004312578 0.004336066 0.005097284 0.004550175 1000 0.004000914 0.004312578 0.004336066 0.005097284 0.004550175 1000
lala 25 0.00234375 0 first 17 1 257 6 2.671407 0.23999810218811 0 1 -1 0 0.005673748 0.005528742 0.005744239 1000 1000 1000 0.005673748 0.005528742 0.005744239 1000 1000 1000 0.005023994 0.005419419 0.006086003 0.005616862 0.006016045 1000 0.005023994 0.005419419 0.006086003 0.005616862 0.006016045 1000
lala 18 0.15 1 first 9 1 258 5 3.15 0.119998216629028 1 1 1 1 0.00558062 0.005696373 0.005276538 1000 1000 1000 0.00558062 0.005696373 0.005276538 1000 1000 1000 0.006880465 0.006729761 0.006883018 0.007001429 0.006746153 1000 0.006880465 0.006729761 0.006883018 0.007001429 0.006746153 1000
lala 26 0.00234375 0 first 17 1 259 6 2.673751 0.159998178482056 0 1 -1 0 0.006748653 0.006281051 0.005846587 1000 1000 1000 0.006748653 0.006281051 0.005846587 1000 1000 1000 0.006822403 0.006469755 0.006827657 0.006596869 0.006513841 1000 0.006822403 0.006469755 0.006827657 0.006596869 0.006513841 1000
lala 12 0.3 1 second 1 1 260 4 2.92 0.279998064041138 -1 1 1 0 0.006410382 0.006876419 0.006285217 0.006717055 0.006852646 1000 0.006410382 0.006876419 0.006285217 0.006717055 0.006852646 1000 0.007020892 0.007339073 0.007148066 0.006985075 0.007325725 1000 0.007020892 0.007339073 0.007148066 0.006985075 0.007325725 1000
lala 13 0.6 1 second 7 1 261 4 2.32 1.21999716758728 1 1 1 1 0.006784203 0.007288983 0.007394643 0.007763374 0.008284737 1000 0.006784203 0.007288983 0.007394643 0.007763374 0.008284737 1000 0.008025866 0.007942053 0.007913545 0.007323564 0.00755661 1000 0.008025866 0.007942053 0.007913545 0.007323564 0.00755661 1000
lala 19 0.3 0 first 6 1 262 4 2.715 0.23999810218811 1 0 -1 1 0.007753245 0.008044117 0.007749564 1000 1000 1000 0.007753245 0.008044117 0.007749564 1000 1000 1000 0.008268663 0.008292516 0.008256999 0.008756575 0.008736539 1000 0.008268663 0.008292516 0.008256999 0.008756575 0.008736539 1000
lala 16 0.6 1 second 3 1 263 5 3.95 0.23999810218811 -1 1 1 1 0.008544125 0.008541779 0.00810234 0.008509786 0.008552424 1000 0.008544125 0.008541779 0.00810234 0.008509786 0.008552424 1000 0.009703122 0.01017512 0.01016896 0.01007563 0.01006602 1000 0.009703122 0.01017512 0.01016896 0.01007563 0.01006602 1000
lala 12 0.15 0 first 10 1 264 6 2.43 0.279998064041138 1 0 -1 1 0.009736405 0.009400917 0.009334446 1000 1000 1000 0.009736405 0.009400917 0.009334446 1000 1000 1000 0.01019292 0.009672243 0.01001779 0.009700455 0.009481398 1000 0.01019292 0.009672243 0.01001779 0.009700455 0.009481398 1000
lala 13 0.15 0 first 10 1 265 6 2.58 0.279998064041138 1 0 -1 1 0.009524704 0.01047794 0.009912931 1000 1000 1000 0.009524704 0.01047794 0.009912931 1000 1000 1000 0.01112612 0.01078128 0.01035621 0.01087942 0.01071845 1000 0.01112612 0.01078128 0.01035621 0.01087942 0.01071845 1000
lala 27 0.00234375 1 second 17 1 266 6 2.676094 0.479997873306274 0 1 1 0 0.01224727 0.01221877 0.01203046 0.0125006 0.01234614 1000 0.01224727 0.01221877 0.01203046 0.0125006 0.01234614 1000 0.01182123 0.01207401 0.01174098 0.01207015 0.01193918 1000 0.01182123 0.01207401 0.01174098 0.01207015 0.01193918 1000
lala 13 0.3 0 first 5 1 267 6 3.780001 0.359997987747192 -1 1 -1 0 0.01282651 0.01271935 0.01301215 1000 1000 1000 0.01282651 0.01271935 0.01301215 1000 1000 1000 0.01280292 0.01239984 0.0126879 0.01216708 0.01248664 1000 0.01280292 0.01239984 0.0126879 0.01216708 0.01248664 1000
lala 12 0.6 0 second 4 1 268 6 2.58 0.119998216629028 -1 0 -1 1 0.01444679 0.01460432 0.01422015 0.01446054 0.01408584 1000 0.01444679 0.01460432 0.01422015 0.01446054 0.01408584 1000 0.01404525 0.01408033 0.01440264 0.01397107 0.01448672 1000 0.01404525 0.01408033 0.01440264 0.01397107 0.01448672 1000
lala 14 1.2 0 second 7 1 269 4 1.32 3.53999519348145 1 1 -1 0 0.01566739 0.0158566 0.01502122 0.01542377 0.01508307 1000 0.01566739 0.0158566 0.01502122 0.01542377 0.01508307 1000 0.01495635 0.01551632 0.01579009 0.01566145 0.01647808 1000 0.01495635 0.01551632 0.01579009 0.01566145 0.01647808 1000
lala 13 0.3 0 first 4 1 270 6 2.88 0.699997663497925 -1 0 -1 1 -0.01756215 -0.01761703 -0.01737428 1000 1000 1000 -0.01756215 -0.01761703 -0.01737428 1000 1000 1000 -0.01433721 -0.01378307 -0.01362631 -0.01352531 -0.01327591 1000 -0.01433721 -0.01378307 -0.01362631 -0.01352531 -0.01327591 1000
lala 19 0.15 0 first 9 1 271 5 3 0.23999810218811 1 1 -1 1 -0.0109084 -0.01090706 -0.01093094 1000 1000 1000 -0.0109084 -0.01090706 -0.01093094 1000 1000 1000 -0.009674958 -0.009769281 -0.009624658 -0.009651085 -0.008373694 1000 -0.009674958 -0.009769281 -0.009624658 -0.009651085 -0.008373694 1000
lala 13 0.6 0 second 0 1 272 4 3.24 0.319998025894165 -1 0 -1 1 -0.007527021 -0.00717399 -0.007848935 -0.007674153 -0.007940814 1000 -0.007527021 -0.00717399 -0.007848935 -0.007674153 -0.007940814 1000 -0.007324394 -0.00645134 -0.006631464 -0.00665684 -0.006266952 1000 -0.007324394 -0.00645134 -0.006631464 -0.00665684 -0.006266952 1000
lala 14 0.15 0 first 5 1 273 6 3.930001 0.39999794960022 -1 1 -1 0 -0.004067617 -0.003795951 -0.004127015 1000 1000 1000 -0.004067617 -0.003795951 -0.004127015 1000 1000 1000 -0.002791539 -0.002830446 -0.001936611 -0.001843753 -0.002017956 1000 -0.002791539 -0.002830446 -0.001936611 -0.001843753 -0.002017956 1000
lala 16 0.3 1 first 11 1 274 6 3.480001 0.199998140335083 1 1 1 1 -0.00149774 -0.001906062 -0.001735313 1000 1000 1000 -0.00149774 -0.001906062 -0.001735313 1000 1000 1000 -0.0002147771 3.579984E-05 -6.068059E-05 0.0001794429 -0.0002429561 1000 -0.0002147771 3.579984E-05 -6.068059E-05 0.0001794429 -0.0002429561 1000
lala 15 0.15 1 second 5 1 275 6 4.080001 0.499997854232788 -1 1 1 0 0.0001451747 0.0007191236 0.0007723282 0.001467944 0.001634039 1000 0.0001451747 0.0007191236 0.0007723282 0.001467944 0.001634039 1000 0.00136893 0.001641169 0.001241777 0.001120645 0.001539352 1000 0.00136893 0.001641169 0.001241777 0.001120645 0.001539352 1000
lala 14 1.2 1 first 0 1 276 4 4.44 0.079998254776001 -1 0 1 1 0.001717948 0.001472167 0.002386813 1000 1000 1000 0.001717948 0.001472167 0.002386813 1000 1000 1000 0.001935044 0.002055505 0.002041985 0.0015253 0.001963627 1000 0.001935044 0.002055505 0.002041985 0.0015253 0.001963627 1000
lala 13 0.15 0 second 1 1 277 4 2.77 0.479997873306274 -1 1 -1 1 0.004075461 0.004279096 0.004176601 0.004268136 0.003741487 1000 0.004075461 0.004279096 0.004176601 0.004268136 0.003741487 1000 0.00297206 0.003450455 0.00307652 0.003190167 0.003400697 1000 0.00297206 0.003450455 0.00307652 0.003190167 0.003400697 1000
lala 15 0.6 1 first 7 1 278 4 1.92 1.49999690055847 1 1 1 1 0.01736441 0.01699422 0.0147616 1000 1000 1000 0.01736441 0.01699422 0.0147616 1000 1000 1000 -0.01021844 -0.00890277 -0.002177374 0.001592528 0.004743459 1000 -0.01021844 -0.00890277 -0.002177374 0.001592528 0.004743459 1000
lala 14 0.075 0 second 13 1 279 4 1.395 0.299998044967651 0 1 -1 0 0.007335856 0.008094105 0.008614115 0.009044636 0.01049684 1000 0.007335856 0.008094105 0.008614115 0.009044636 0.01049684 1000 0.01103548 0.01153241 0.01237481 0.01200164 0.01236214 1000 0.01103548 0.01153241 0.01237481 0.01200164 0.01236214 1000
lala 17 0.3 1 second 11 1 280 6 3.180001 1.23999714851379 1 1 1 0 0.0157361 0.01630873 0.01599011 0.01652679 0.01625908 1000 0.0157361 0.01630873 0.01599011 0.01652679 0.01625908 1000 0.01666402 0.01706978 0.01677061 0.01747806 0.01745405 1000 0.01666402 0.01706978 0.01677061 0.01747806 0.01745405 1000
lala 14 0.075 0 second 1 1 281 4 2.845 0.319998025894165 -1 1 -1 0 0.0204074 0.02008458 0.02077306 0.02052106 0.02031266 1000 0.0204074 0.02008458 0.02077306 0.02052106 0.02031266 1000 0.0223339 0.02175466 0.02220697 0.02233775 0.02239818 1000 0.0223339 0.02175466 0.02220697 0.02233775 0.02239818 1000
lala 15 0.075 1 first 1 1 282 4 2.92 0.339998006820679 -1 1 1 1 0.02349851 0.02363586 0.02331074 1000 1000 1000 0.02349851 0.02363586 0.02331074 1000 1000 1000 0.02555704 0.02238393 0.01474098 0.00980899 0.008123586 1000 0.02555704 0.02238393 0.01474098 0.00980899 0.008123586 1000
lala 18 0.15 0 first 12 1 283 4 1.77 0.319998025894165 0 0 -1 1 0.01159893 0.01064887 0.01073492 1000 1000 1000 0.01159893 0.01064887 0.01073492 1000 1000 1000 0.01425219 0.01430168 0.0141169 0.01399351 0.01441465 1000 0.01425219 0.01430168 0.0141169 0.01399351 0.01441465 1000
lala 16 0.075 1 first 5 1 284 6 4.005001 0.01999831199646 -1 1 1 1 0.01541879 0.01489498 0.01583227 1000 1000 1000 0.01541879 0.01489498 0.01583227 1000 1000 1000 0.01591292 0.01678018 0.016192 0.01574605 0.01675991 1000 0.01591292 0.01678018 0.016192 0.01574605 0.01675991 1000
lala 16 0.0375 0 first 1 1 285 4 2.8825 0.179998159408569 -1 1 -1 0 0.01695409 0.01660767 0.01730265 1000 1000 1000 0.01695409 0.01660767 0.01730265 1000 1000 1000 0.01888153 0.01948823 0.0191815 0.01893058 0.01977643 1000 0.01888153 0.01948823 0.0191815 0.01893058 0.01977643 1000
lala 18 0.6 0 second 11 1 286 6 2.580001 0.479997873306274 1 1 -1 1 0.02077216 0.0212436 0.02216057 0.02156567 0.02184163 1000 0.02077216 0.0212436 0.02216057 0.02156567 0.02184163 1000 0.02221969 0.02199773 0.02297102 0.02253842 0.02280411 1000 0.02221969 0.02199773 0.02297102 0.02253842 0.02280411 1000
lala 19 0.3 1 first 11 1 287 6 2.880001 0.339998006820679 1 1 1 0 0.02425037 0.02487475 0.02401709 1000 1000 1000 0.02425037 0.02487475 0.02401709 1000 1000 1000 0.0226423 0.02195681 0.02202266 0.02226236 0.02206607 1000 0.0226423 0.02195681 0.02202266 0.02226236 0.02206607 1000
lala 16 0.3 0 first 7 1 288 4 1.62 0.01999831199646 1 1 -1 0 0.02328805 0.02335841 0.02357592 1000 1000 1000 0.02328805 0.02335841 0.02357592 1000 1000 1000 0.02303055 0.02273329 0.02337672 0.02323583 0.02325024 1000 0.02303055 0.02273329 0.02337672 0.02323583 0.02325024 1000
lala 15 0.6 1 second 0 1 289 4 3.84 0.0599982738494873 -1 0 1 1 0.0246942 0.02385383 0.02418306 0.02385932 0.02439314 1000 0.0246942 0.02385383 0.02418306 0.02385932 0.02439314 1000 0.02365288 0.02335297 0.0238201 0.02371683 0.02340344 1000 0.02365288 0.02335297 0.0238201 0.02371683 0.02340344 1000
lala 15 0.15 1 first 8 1 290 5 2.85 1.57999682426453 1 0 1 0 0.02488873 0.02476719 0.02471043 1000 1000 1000 0.02488873 0.02476719 0.02471043 1000 1000 1000 0.02372913 0.02359675 0.02425606 0.02376657 0.02388643 1000 0.02372913 0.02359675 0.02425606 0.02376657 0.02388643 1000
lala 20 0.15 0 second 11 1 291 6 2.730001 1.73999691009521 1 1 -1 0 0.02293799 0.02355131 0.02365965 0.02467817 0.02423075 1000 0.02293799 0.02355131 0.02365965 0.02467817 0.02423075 1000 0.02402501 0.02447933 0.02407362 0.02356495 0.02422236 1000 0.02402501 0.02447933 0.02407362 0.02356495 0.02422236 1000
lala 17 0.15 0 second 7 1 292 4 1.77 1.15999722480774 1 1 -1 1 0.00813177 0.00816764 0.008539315 0.007732955 0.008157487 1000 0.00813177 0.00816764 0.008539315 0.007732955 0.008157487 1000 0.01581929 0.01510161 0.01460357 0.0121008 0.00997327 1000 0.01581929 0.01510161 0.01460357 0.0121008 0.00997327 1000
lala 17 0.3 1 second 3 1 293 5 3.65 0.339998006820679 -1 1 1 0 -0.0059821 -0.00630222 -0.006719167 -0.006053246 -0.005687229 1000 -0.0059821 -0.00630222 -0.006719167 -0.006053246 -0.005687229 1000 -0.004854679 -0.004416323 -0.004371442 -0.003819701 -0.003708448 1000 -0.004854679 -0.004416323 -0.004371442 -0.003819701 -0.003708448 1000
lala 21 0.075 1 second 11 1 294 6 2.805001 1.25999712944031 1 1 1 1 -0.01674847 -0.0189789 -0.02051103 -0.02154567 -0.02305881 1000 -0.01674847 -0.0189789 -0.02051103 -0.02154567 -0.02305881 1000 -0.01160171 0.001993013 0.006995279 0.007284925 0.008487367 1000 -0.01160171 0.001993013 0.006995279 0.007284925 0.008487367 1000
lala 9 1.2 1 first 2 1 295 5 3.3 0.319998025894165 -1 0 1 0 0.01040636 0.01286112 0.01422311 1000 1000 1000 0.01040636 0.01286112 0.01422311 1000 1000 1000 0.01481705 0.0152988 0.01530957 0.01556497 0.01611398 1000 0.01481705 0.0152988 0.01530957 0.01556497 0.01611398 1000
lala 22 0.0375 1 second 11 1 296 6 2.767501 0.499997854232788 1 1 1 0 0.01829516 0.01835051 0.01829954 0.01833144 0.01865474 1000 0.01829516 0.01835051 0.01829954 0.01833144 0.01865474 1000 0.01973994 0.02048934 0.02053877 0.02066894 0.02051225 1000 0.01973994 0.02048934 0.02053877 0.02066894 0.02051225 1000
lala 19 0.075 0 first 12 1 297 4 1.845 0.439997911453247 0 0 -1 1 0.02071755 0.02090398 0.0206573 1000 1000 1000 0.02071755 0.02090398 0.0206573 1000 1000 1000 0.02131662 0.02092371 0.02128886 0.02144757 0.02148564 1000 0.02131662 0.02092371 0.02128886 0.02144757 0.02148564 1000
lala 16 0.6 1 second 0 1 298 4 3.24 0.839997529983521 -1 0 1 1 0.02295157 0.02280988 0.02304234 0.0227739 0.02316149 1000 0.02295157 0.02280988 0.02304234 0.0227739 0.02316149 1000 0.02466612 0.0247745 0.02518772 0.02507609 0.025642 1000 0.02466612 0.0247745 0.02518772 0.02507609 0.025642 1000
lala 20 0.075 1 second 9 1 299 5 3.075 0.339998006820679 1 1 1 1 0.01480654 0.01472371 0.01470955 0.01494914 0.01449903 1000 0.01480654 0.01472371 0.01470955 0.01494914 0.01449903 1000 0.01468812 0.01505746 0.01487322 0.01464491 0.01499346 1000 0.01468812 0.01505746 0.01487322 0.01464491 0.01499346 1000
lala 17 0.6 1 second 0 1 300 4 2.64 0.659997701644897 -1 0 1 1 -0.005763331 -0.005108526 -0.004665711 -0.004974451 -0.004401937 1000 -0.005763331 -0.005108526 -0.004665711 -0.004974451 -0.004401937 1000 -0.001803183 -0.001386957 -0.001363828 -0.001285336 -0.0007237239 1000 -0.001803183 -0.001386957 -0.001363828 -0.001285336 -0.0007237239 1000
lala 14 0.15 0 second 10 1 301 6 2.73 0.259998083114624 1 0 -1 0 0.0003300961 -0.0004198782 -6.174624E-05 -0.0001247743 0.0002463107 1000 0.0003300961 -0.0004198782 -6.174624E-05 -0.0001247743 0.0002463107 1000 0.0007743587 0.0005384654 0.001559752 0.00198323 0.001694771 1000 0.0007743587 0.0005384654 0.001559752 0.00198323 0.001694771 1000
lala 15 0.0375 1 first 16 1 302 6 4.0425 0.199998140335083 0 0 1 0 0.003366502 0.003987351 0.003805205 1000 1000 1000 0.003366502 0.003987351 0.003805205 1000 1000 1000 0.0058369 0.005214413 0.005640546 0.005441365 0.00603276 1000 0.0058369 0.005214413 0.005640546 0.005441365 0.00603276 1000
lala 17 0.01875 0 first 1 1 303 4 2.90125 0.799997568130493 -1 1 -1 0 0.007251174 0.007534735 0.007509336 1000 1000 1000 0.007251174 0.007534735 0.007509336 1000 1000 1000 0.008246287 0.007623557 0.007990879 0.008853832 0.00948306 1000 0.008246287 0.007623557 0.007990879 0.008853832 0.00948306 1000
lala 23 0.0375 1 first 11 1 304 6 2.730001 0.719997644424438 1 1 1 0 0.01380583 0.006820881 -0.001969187 1000 1000 1000 0.01380583 0.006820881 -0.001969187 1000 1000 1000 -0.01999502 -0.009370152 -0.004278583 -0.0009550883 0.001164379 1000 -0.01999502 -0.009370152 -0.004278583 -0.0009550883 0.001164379 1000
lala 24 0.0375 1 first 11 1 305 6 2.692501 0.499997854232788 1 1 1 1 0.01731437 0.01796012 0.01801781 1000 1000 1000 0.01731437 0.01796012 0.01801781 1000 1000 1000 0.02732187 0.02400367 0.01617011 0.01426419 0.01547309 1000 0.02732187 0.02400367 0.01617011 0.01426419 0.01547309 1000
lala 16 0.0375 1 first 16 1 306 6 4.005 0.23999810218811 0 0 1 0 0.01302798 0.01282694 0.012584 1000 1000 1000 0.01302798 0.01282694 0.012584 1000 1000 1000 0.01312298 0.01363835 0.01319822 0.01369454 0.01442957 1000 0.01312298 0.01363835 0.01319822 0.01369454 0.01442957 1000
lala 15 0.3 1 second 10 1 307 6 3.03 0.219998121261597 1 0 1 1 0.01616423 0.01619796 0.01607512 0.01715318 0.01679864 1000 0.01616423 0.01619796 0.01607512 0.01715318 0.01679864 1000 0.01812358 0.01916564 0.01874935 0.01907649 0.0190871 1000 0.01812358 0.01916564 0.01874935 0.01907649 0.0190871 1000
lala 20 0.0375 1 first 14 1 308 5 2.2875 1.95999670028687 0 0 1 1 0.02094753 0.02062257 0.02026824 1000 1000 1000 0.02094753 0.02062257 0.02026824 1000 1000 1000 0.01822224 0.01673194 0.01201685 0.005711277 0.002024024 1000 0.01822224 0.01673194 0.01201685 0.005711277 0.002024024 1000
lala 14 0.15 1 first 15 1 309 5 2.1 0.559997797012329 0 1 1 1 0.009653589 0.01038685 0.01039224 1000 1000 1000 0.009653589 0.01038685 0.01039224 1000 1000 1000 0.02331608 0.02338924 0.02404823 0.02342113 0.02429805 1000 0.02331608 0.02338924 0.02404823 0.02342113 0.02429805 1000
lala 17 0.075 1 second 5 1 310 6 3.930001 0.759997606277466 -1 1 1 0 -0.008602137 -0.008958991 -0.008330748 -0.007873595 -0.008638518 1000 -0.008602137 -0.008958991 -0.008330748 -0.007873595 -0.008638518 1000 -0.007731388 -0.007790247 -0.009249333 -0.008866101 -0.008840202 1000 -0.007731388 -0.007790247 -0.009249333 -0.008866101 -0.008840202 1000
lala 18 0.075 0 first 5 1 311 6 3.855001 0.359997987747192 -1 1 -1 0 -0.008259672 -0.008068338 -0.007229824 1000 1000 1000 -0.008259672 -0.008068338 -0.007229824 1000 1000 1000 -0.003684139 -0.002958783 -0.003324518 -0.002875241 -0.00259688 1000 -0.003684139 -0.002958783 -0.003324518 -0.002875241 -0.00259688 1000
lala 28 0.001171875 0 second 17 1 312 6 2.674922 0.279998064041138 0 1 -1 1 0.0003579702 -0.0002020516 0.0002482936 8.120662E-05 1.887995E-05 1000 0.0003579702 -0.0002020516 0.0002482936 8.120662E-05 1.887995E-05 1000 0.0008218762 0.0003714628 0.0004572019 0.001178728 0.0003175715 1000 0.0008218762 0.0003714628 0.0004572019 0.001178728 0.0003175715 1000
lala 18 0.01875 1 second 1 1 313 4 2.92 0.319998025894165 -1 1 1 1 0.001416083 0.001183053 0.001358356 0.001499175 0.001454918 1000 0.001416083 0.001183053 0.001358356 0.001499175 0.001454918 1000 0.002818825 0.002632351 0.002296277 0.002980975 0.002349105 1000 0.002818825 0.002632351 0.002296277 0.002980975 0.002349105 1000
lala 20 0.075 0 first 12 1 314 4 1.92 0.639997720718384 0 0 -1 1 0.003551122 0.003880642 0.003531973 1000 1000 1000 0.003551122 0.003880642 0.003531973 1000 1000 1000 0.004862279 0.005269256 0.005292765 0.006051392 0.00604326 1000 0.004862279 0.005269256 0.005292765 0.006051392 0.00604326 1000
lala 29 0.0005859375 0 second 17 1 315 6 2.675508 0.119998216629028 0 1 -1 1 0.01020005 0.009723046 0.01065886 0.01078596 0.01083237 1000 0.01020005 0.009723046 0.01065886 0.01078596 0.01083237 1000 0.01262846 0.01247523 0.01302469 0.01398503 0.01347827 1000 0.01262846 0.01247523 0.01302469 0.01398503 0.01347827 1000
lala 21 0.0375 0 first 14 1 316 5 2.25 0.01999831199646 0 0 -1 0 0.01385845 0.01399321 0.01396549 1000 1000 1000 0.01385845 0.01399321 0.01396549 1000 1000 1000 0.01632711 0.0165123 0.0174314 0.0169033 0.01716364 1000 0.01632711 0.0165123 0.0174314 0.0169033 0.01716364 1000
lala 14 0.3 0 second 4 1 317 6 3.18 0.0999982357025146 -1 0 -1 0 0.0177674 0.01839738 0.01830257 0.0181783 0.01890531 1000 0.0177674 0.01839738 0.01830257 0.0181783 0.01890531 1000 0.01997508 0.0195947 0.02052297 0.02035989 0.02071078 1000 0.01997508 0.0195947 0.02052297 0.02035989 0.02071078 1000
lala 10 0.6 1 first 2 1 318 5 2.7 0.119998216629028 -1 0 1 1 0.02064946 0.0204341 0.02116767 1000 1000 1000 0.02064946 0.0204341 0.02116767 1000 1000 1000 0.021789 0.02196827 0.02273351 0.0219965 0.02248651 1000 0.021789 0.02196827 0.02273351 0.0219965 0.02248651 1000
lala 15 0.15 1 second 15 1 319 5 1.95 0.539997816085815 0 1 1 0 0.02257691 0.0231985 0.02289097 0.02359658 0.02362569 1000 0.02257691 0.0231985 0.02289097 0.02359658 0.02362569 1000 0.02440433 0.02504071 0.02545702 0.02474703 0.02514137 1000 0.02440433 0.02504071 0.02545702 0.02474703 0.02514137 1000
lala 16 0.15 1 first 10 1 320 6 2.88 0.319998025894165 1 0 1 0 0.0194639 0.01277154 0.01142657 1000 1000 1000 0.0194639 0.01277154 0.01142657 1000 1000 1000 0.01192593 0.01193871 0.01193847 0.01293105 0.01280096 1000 0.01192593 0.01193871 0.01193847 0.01293105 0.01280096 1000
lala 16 0.15 1 first 15 1 321 5 1.8 0.279998064041138 0 1 1 1 0.01386486 0.01489411 0.01463654 1000 1000 1000 0.01386486 0.01489411 0.01463654 1000 1000 1000 0.01486228 0.01504814 0.01484604 0.01537618 0.01479849 1000 0.01486228 0.01504814 0.01484604 0.01537618 0.01479849 1000
lala 17 0.15 1 second 10 1 322 6 2.73 0.219998121261597 1 0 1 1 0.01499843 0.0146556 0.01488028 0.01471364 0.01450399 1000 0.01499843 0.0146556 0.01488028 0.01471364 0.01450399 1000 0.01450603 0.01472913 0.01456421 0.01500411 0.01482765 1000 0.01450603 0.01472913 0.01456421 0.01500411 0.01482765 1000
lala 21 0.0375 1 second 9 1 323 5 3.0375 1.25999712944031 1 1 1 1 0.01494955 0.01515853 0.01443848 0.01517834 0.01521039 1000 0.01494955 0.01515853 0.01443848 0.01517834 0.01521039 1000 0.01493501 0.01494283 0.01565394 0.01534327 0.01577975 1000 0.01493501 0.01494283 0.01565394 0.01534327 0.01577975 1000
lala 11 0.6 1 second 2 1 324 5 2.1 0.419997930526733 -1 0 1 1 0.01595019 0.01615052 0.01616554 0.01595219 0.016518 1000 0.01595019 0.01615052 0.01616554 0.01595219 0.016518 1000 0.01640937 0.01566105 0.01569659 0.01564809 0.0161012 1000 0.01640937 0.01566105 0.01569659 0.01564809 0.0161012 1000
lala 22 0.01875 1 first 14 1 325 5 2.26875 0.139998197555542 0 0 1 1 0.01596138 0.01607807 0.01653038 1000 1000 1000 0.01596138 0.01607807 0.01653038 1000 1000 1000 0.01711433 0.01724965 0.01700054 0.01747007 0.01733468 1000 0.01711433 0.01724965 0.01700054 0.01747007 0.01733468 1000
lala 18 1.2 0 first 0 1 326 4 1.44 0.579997777938843 -1 0 -1 0 0.01724979 0.01835046 0.01770636 1000 1000 1000 0.01724979 0.01835046 0.01770636 1000 1000 1000 0.01912449 0.0189569 0.01914329 0.01924922 0.01921641 1000 0.01912449 0.0189569 0.01914329 0.01924922 0.01921641 1000
lala 17 0.3 0 second 15 1 327 5 1.65 0.339998006820679 0 1 -1 1 0.02032771 0.02016325 0.02066372 0.0199151 0.0203507 1000 0.02032771 0.02016325 0.02066372 0.0199151 0.0203507 1000 0.02139767 0.020482 0.02101946 0.02095031 0.02041132 1000 0.02139767 0.020482 0.02101946 0.02095031 0.02041132 1000
lala 19 0.0375 0 second 5 1 328 6 3.892501 0.699997663497925 -1 1 -1 0 0.02238257 0.02214039 0.02203625 0.02215524 0.02231242 1000 0.02238257 0.02214039 0.02203625 0.02215524 0.02231242 1000 0.02239722 0.02251437 0.02287946 0.02214796 0.02283385 1000 0.02239722 0.02251437 0.02287946 0.02214796 0.02283385 1000
lala 21 0.075 0 first 12 1 329 4 1.995 0.459997892379761 0 0 -1 1 0.02326825 0.02405035 0.02362439 1000 1000 1000 0.02326825 0.02405035 0.02362439 1000 1000 1000 0.02430157 0.02432548 0.02407577 0.0239154 0.02413009 1000 0.02430157 0.02432548 0.02407577 0.0239154 0.02413009 1000
lala 16 0.15 0 second 8 1 330 5 2.7 0.299998044967651 1 0 -1 0 0.013733 0.01329107 0.01490129 0.01550299 0.01640161 1000 0.013733 0.01329107 0.01490129 0.01550299 0.01640161 1000 0.01999192 0.01927739 0.01936606 0.01919336 0.0192648 1000 0.01999192 0.01927739 0.01936606 0.01919336 0.0192648 1000
