subject PestNr Step_Size_OnTrial Pest_Faster Pest_Interval Condition block trial velH velH_Pest Reaction_Time velH_Subject Start_Above Response_MotionEstimation RightOrLeftxRotations_first0 xRotations_first1 xRotations_first2 xRotations_first3 xRotations_first4 xRotations_first5 yRotations_first0 yRotations_first1 yRotations_first2 yRotations_first3 yRotations_first4 yRotations_first5 xRotations_second0 xRotations_second1 xRotations_second2 xRotations_second3 xRotations_second4 xRotations_second5 yRotations_second0 yRotations_second1 yRotations_second2 yRotations_second3 yRotations_second4 yRotations_second5
lala 1 1.2 0 first 9 1 1 5 6.65 0.379997968673706 1 1 -1 0 0.00593438 0.01820006 0.01481279 0.01238843 0.005243863 0.0007550281 0.00593438 0.01820006 0.01481279 0.01238843 0.005243863 0.0007550281 -0.001906199 -0.001254679 -0.0002880919 -0.0007271979 -0.0017057 1000 -0.001906199 -0.001254679 -0.0002880919 -0.0007271979 -0.0017057 1000
lala 1 1.2 0 first 14 1 2 5 3.3 0.01999831199646 0 0 -1 1 0.002408985 0.003572115 0.004091849 1000 1000 1000 0.002408985 0.003572115 0.004091849 1000 1000 1000 0.006335002 0.006601831 0.008293552 0.009023514 0.009418393 1000 0.006335002 0.006601831 0.008293552 0.009023514 0.009418393 1000
lala 1 1.2 1 first 3 1 3 5 6.65 0.499997854232788 -1 1 1 1 0.01123931 0.01154839 0.01131575 1000 1000 1000 0.01123931 0.01154839 0.01131575 1000 1000 1000 0.01109476 0.01090705 0.01125731 0.01135758 0.01152345 1000 0.01109476 0.01090705 0.01125731 0.01135758 0.01152345 1000
lala 1 1.2 0 first 2 1 4 5 3.3 0.0399982929229736 -1 0 -1 0 0.01178718 0.01227519 0.01232207 1000 1000 1000 0.01178718 0.01227519 0.01232207 1000 1000 1000 0.01254259 0.0124264 0.01213912 0.01217736 0.01193712 1000 0.01254259 0.0124264 0.01213912 0.01217736 0.01193712 1000
lala 1 1.2 0 first 4 1 5 6 3.96 0.459997892379761 -1 0 -1 0 0.01203065 0.01260941 0.01229637 1000 1000 1000 0.01203065 0.01260941 0.01229637 1000 1000 1000 0.01296552 0.01346136 0.01445198 0.01467752 0.01520063 1000 0.01296552 0.01346136 0.01445198 0.01467752 0.01520063 1000
lala 1 1.2 1 second 13 1 6 4 5.32 0.01999831199646 0 1 1 0 0.01375044 0.01263088 0.01297453 0.01336384 0.01357846 1000 0.01375044 0.01263088 0.01297453 0.01336384 0.01357846 1000 0.01320514 0.01355704 0.01366263 0.01352552 0.01419069 1000 0.01320514 0.01355704 0.01366263 0.01352552 0.01419069 1000
lala 1 1.2 0 first 6 1 7 4 2.64 0.459997892379761 1 0 -1 1 0.01242193 0.012044 0.01206277 1000 1000 1000 0.01242193 0.012044 0.01206277 1000 1000 1000 0.01432007 0.01540839 0.0159781 0.01606879 0.01601912 1000 0.01432007 0.01540839 0.0159781 0.01606879 0.01601912 1000
lala 1 1.2 1 second 17 1 8 6 7.98 0.01999831199646 0 1 1 1 0.01744185 0.0170262 0.01696954 0.0163671 0.01623564 1000 0.01744185 0.0170262 0.01696954 0.0163671 0.01623564 1000 0.01547898 0.01469479 0.01348863 0.01425481 0.01308099 1000 0.01547898 0.01469479 0.01348863 0.01425481 0.01308099 1000
lala 2 1.2 0 second 13 1 9 4 4.12 0.379997968673706 0 1 -1 0 -0.001869234 -0.0005518724 0.002250425 0.005169114 0.006017293 1000 -0.001869234 -0.0005518724 0.002250425 0.005169114 0.006017293 1000 0.008994577 0.009388635 0.01017267 0.01030578 0.009593321 1000 0.008994577 0.009388635 0.01017267 0.01030578 0.009593321 1000
lala 2 1.2 0 first 3 1 10 5 5.45 0.539997816085815 -1 1 -1 0 0.009764142 0.01067056 0.01155789 1000 1000 1000 0.009764142 0.01067056 0.01155789 1000 1000 1000 0.01313808 0.01307365 0.01365569 0.01340055 0.01341685 1000 0.01313808 0.01307365 0.01365569 0.01340055 0.01341685 1000
lala 2 1.2 1 second 14 1 11 5 4.5 1.43999695777893 0 0 1 1 0.01580711 0.01585258 0.01624923 0.01617894 0.01633899 1000 0.01580711 0.01585258 0.01624923 0.01617894 0.01633899 1000 0.01745406 0.01761599 0.01788083 0.01779368 0.0178899 1000 0.01745406 0.01761599 0.01788083 0.01779368 0.0178899 1000
lala 2 1.2 0 second 6 1 12 4 3.84 1.29999709129334 1 0 -1 1 0.01636179 0.01640552 0.01676272 0.01676055 0.01674076 1000 0.01636179 0.01640552 0.01676272 0.01676055 0.01674076 1000 0.01656942 0.01644382 0.01699361 0.0173127 0.01701895 1000 0.01656942 0.01644382 0.01699361 0.0173127 0.01701895 1000
lala 1 1.2 0 second 12 1 13 4 2.64 0.739997625350952 0 0 -1 0 0.01913857 0.01911422 0.01927604 0.01905738 0.01959733 1000 0.01913857 0.01911422 0.01927604 0.01905738 0.01959733 1000 0.02059491 0.02047066 0.02070391 0.02055877 0.02099828 1000 0.02059491 0.02047066 0.02070391 0.02055877 0.02099828 1000
lala 3 1.2 1 second 13 1 14 4 5.32 0.339998006820679 0 1 1 1 0.02108073 0.02126811 0.02158264 0.02151661 0.02131981 1000 0.02108073 0.02126811 0.02158264 0.02151661 0.02131981 1000 0.02230602 0.02225147 0.02209812 0.02243369 0.02245091 1000 0.02230602 0.02225147 0.02209812 0.02243369 0.02245091 1000
lala 3 1.2 1 second 3 1 15 5 6.65 1.23999714851379 -1 1 1 0 0.02287539 0.02313842 0.02295042 0.02286551 0.02310815 1000 0.02287539 0.02313842 0.02295042 0.02286551 0.02310815 1000 0.02202676 0.02264638 0.02298597 0.02269858 0.02239875 1000 0.02202676 0.02264638 0.02298597 0.02269858 0.02239875 1000
lala 2 1.2 1 first 4 1 16 6 5.16 0.459997892379761 -1 0 1 1 0.02163036 0.02161109 0.02219 1000 1000 1000 0.02163036 0.02161109 0.02219 1000 1000 1000 0.01923327 0.01926501 0.01963316 0.01929827 0.01989722 1000 0.01923327 0.01926501 0.01963316 0.01929827 0.01989722 1000
lala 3 1.2 0 first 6 1 17 4 5.04 0.219998121261597 1 0 -1 0 0.02139695 0.02164214 0.02167899 1000 1000 1000 0.02139695 0.02164214 0.02167899 1000 1000 1000 0.02278356 0.02259698 0.02303818 0.02288346 0.02233481 1000 0.02278356 0.02259698 0.02303818 0.02288346 0.02233481 1000
lala 2 1.2 1 second 9 1 18 5 7.85 0.179998159408569 1 1 1 0 0.02088342 0.02122194 0.02110464 0.02089192 0.02084616 1000 0.02088342 0.02122194 0.02110464 0.02089192 0.02084616 1000 0.02112514 0.02093089 0.02149284 0.02181108 0.02172001 1000 0.02112514 0.02093089 0.02149284 0.02181108 0.02172001 1000
lala 1 1.2 1 second 1 1 19 4 5.32 0.199998140335083 -1 1 1 1 0.02141693 0.02139404 0.02222188 0.02221937 0.02198553 1000 0.02141693 0.02139404 0.02222188 0.02221937 0.02198553 1000 0.02297152 0.02318612 0.0228157 0.02320015 0.02442842 1000 0.02297152 0.02318612 0.0228157 0.02320015 0.02442842 1000
lala 4 1.2 1 second 6 1 20 4 6.24 0.39999794960022 1 0 1 1 0.0221797 0.02183658 0.02202142 0.02138858 0.02171971 1000 0.0221797 0.02183658 0.02202142 0.02138858 0.02171971 1000 0.02104126 0.02070577 0.02049262 0.02081391 0.021031 1000 0.02104126 0.02070577 0.02049262 0.02081391 0.021031 1000
lala 1 1.2 1 first 0 1 21 4 2.64 0.839997529983521 -1 0 1 0 0.01988977 0.01916955 0.01862974 1000 1000 1000 0.01988977 0.01916955 0.01862974 1000 1000 1000 0.02012059 0.02018298 0.0209624 0.02130562 0.02072884 1000 0.02012059 0.02018298 0.0209624 0.02130562 0.02072884 1000
lala 1 1.2 1 first 15 1 22 5 6.65 0.539997816085815 0 1 1 1 0.02244294 0.02235829 0.02233136 1000 1000 1000 0.02244294 0.02235829 0.02233136 1000 1000 1000 0.0219576 0.02189443 0.02171372 0.021447 0.02175239 1000 0.0219576 0.02189443 0.02171372 0.021447 0.02175239 1000
lala 1 1.2 0 first 16 1 23 6 3.96 0.419997930526733 0 0 -1 0 0.02127013 0.02121635 0.02108243 1000 1000 1000 0.02127013 0.02121635 0.02108243 1000 1000 1000 0.02109847 0.02214275 0.02158693 0.02135672 0.02123922 1000 0.02109847 0.02214275 0.02158693 0.02135672 0.02123922 1000
lala 2 1.2 0 first 12 1 24 4 3.84 1.79999685287476 0 0 -1 1 0.01879285 0.01811524 0.018777 1000 1000 1000 0.01879285 0.01811524 0.018777 1000 1000 1000 0.02067881 0.02087024 0.02082917 0.02069689 0.02018579 1000 0.02067881 0.02087024 0.02082917 0.02069689 0.02018579 1000
lala 3 1.2 1 second 14 1 25 5 3.3 0.299998044967651 0 0 1 1 0.02152634 0.02137581 0.02106527 0.02175862 0.02214401 1000 0.02152634 0.02137581 0.02106527 0.02175862 0.02214401 1000 0.02295882 0.02316594 0.02293701 0.0231582 0.02282708 1000 0.02295882 0.02316594 0.02293701 0.0231582 0.02282708 1000
lala 1 1.2 1 second 8 1 26 5 3.3 0.459997892379761 1 0 1 0 0.02328285 0.02302765 0.02294447 0.02214743 0.02147255 1000 0.02328285 0.02302765 0.02294447 0.02214743 0.02147255 1000 0.02235157 0.02216757 0.02197732 0.02204556 0.02186948 1000 0.02235157 0.02216757 0.02197732 0.02204556 0.02186948 1000
lala 4 1.2 1 second 3 1 27 5 5.45 1.0999972820282 -1 1 1 1 0.02158405 0.02153567 0.0227541 0.02232923 0.02204869 1000 0.02158405 0.02153567 0.0227541 0.02232923 0.02204869 1000 0.02287361 0.02296756 0.02247566 0.02239909 0.02299051 1000 0.02287361 0.02296756 0.02247566 0.02239909 0.02299051 1000
lala 2 1.2 1 second 8 1 28 5 2.1 1.55999684333801 1 0 1 1 0.02198801 0.02278103 0.02279611 0.02251096 0.02249767 1000 0.02198801 0.02278103 0.02279611 0.02251096 0.02249767 1000 0.02264763 0.02237135 0.0229733 0.02301506 0.02275068 1000 0.02264763 0.02237135 0.0229733 0.02301506 0.02275068 1000
lala 1 1.2 1 second 11 1 29 6 7.98 0.39999794960022 1 1 1 0 0.02074216 0.02132959 0.02186669 0.0220296 0.02184646 1000 0.02074216 0.02132959 0.02186669 0.0220296 0.02184646 1000 0.02265362 0.02234737 0.02218587 0.02283136 0.02244051 1000 0.02265362 0.02234737 0.02218587 0.02283136 0.02244051 1000
lala 3 1.2 1 second 12 1 30 4 5.04 0.339998006820679 0 0 1 1 0.02047925 0.02088532 0.02084974 0.02042533 0.01989865 1000 0.02047925 0.02088532 0.02084974 0.02042533 0.01989865 1000 0.02052323 0.01992134 0.02005638 0.02067586 0.02061114 1000 0.02052323 0.01992134 0.02005638 0.02067586 0.02061114 1000
lala 2 1.2 0 first 0 1 31 4 1.44 1.77999687194824 -1 0 -1 1 0.02137135 0.02146396 0.02120151 1000 1000 1000 0.02137135 0.02146396 0.02120151 1000 1000 1000 0.02128037 0.02190266 0.02172172 0.02141603 0.02105051 1000 0.02128037 0.02190266 0.02172172 0.02141603 0.02105051 1000
lala 3 1.2 0 second 4 1 32 6 3.96 0.279998064041138 -1 0 -1 0 0.02304165 0.02287036 0.02242091 0.02250948 0.02260595 1000 0.02304165 0.02287036 0.02242091 0.02250948 0.02260595 1000 0.02244999 0.02241001 0.02279474 0.02203781 0.02133954 1000 0.02244999 0.02241001 0.02279474 0.02203781 0.02133954 1000
lala 2 1.2 1 first 16 1 33 6 5.16 0.01999831199646 0 0 1 0 0.02074584 0.0204543 0.02075049 1000 1000 1000 0.02074584 0.0204543 0.02075049 1000 1000 1000 0.01270289 0.01321143 0.01339813 0.01300693 0.01291777 1000 0.01270289 0.01321143 0.01339813 0.01300693 0.01291777 1000
lala 3 1.2 0 first 16 1 34 6 3.96 0.519997835159302 0 0 -1 0 0.01712285 0.01803188 0.01482253 1000 1000 1000 0.01712285 0.01803188 0.01482253 1000 1000 1000 0.0188914 0.01993476 0.02090649 0.02094683 0.02045047 1000 0.0188914 0.01993476 0.02090649 0.02094683 0.02045047 1000
lala 4 1.2 0 second 14 1 35 5 2.1 2.75999593734741 0 0 -1 0 0.0220038 0.02172657 0.02176898 0.02198606 0.02215142 1000 0.0220038 0.02172657 0.02176898 0.02198606 0.02215142 1000 0.02331024 0.02317746 0.02362437 0.02341258 0.02353124 1000 0.02331024 0.02317746 0.02362437 0.02341258 0.02353124 1000
lala 4 1.2 1 first 16 1 36 6 5.16 0.39999794960022 0 0 1 1 0.02133032 0.02124255 0.02173658 1000 1000 1000 0.02133032 0.02124255 0.02173658 1000 1000 1000 0.02188365 0.02243735 0.02285789 0.02267385 0.02281802 1000 0.02188365 0.02243735 0.02285789 0.02267385 0.02281802 1000
lala 4 1.2 0 first 4 1 37 6 5.16 1.3999969959259 -1 0 -1 0 0.02347542 0.02364752 0.02454208 1000 1000 1000 0.02347542 0.02364752 0.02454208 1000 1000 1000 0.0244975 0.02404425 0.0235905 0.02372308 0.02316012 1000 0.0244975 0.02404425 0.0235905 0.02372308 0.02316012 1000
lala 2 1.2 1 first 15 1 38 5 5.45 2.41999626159668 0 1 1 0 0.0243054 0.02325336 0.0233108 1000 1000 1000 0.0243054 0.02325336 0.0233108 1000 1000 1000 0.02152891 0.02175067 0.02234674 0.02268809 0.02280165 1000 0.02152891 0.02175067 0.02234674 0.02268809 0.02280165 1000
lala 2 1.2 0 first 2 1 39 5 4.5 0.899997472763062 -1 0 -1 0 0.02098361 0.02201684 0.02243049 1000 1000 1000 0.02098361 0.02201684 0.02243049 1000 1000 1000 0.02142033 0.02163677 0.02160834 0.02119753 0.02137097 1000 0.02142033 0.02163677 0.02160834 0.02119753 0.02137097 1000
lala 2 1.2 0 first 11 1 40 6 6.780001 0.839997529983521 1 1 -1 0 0.02208616 0.02212296 0.02251658 1000 1000 1000 0.02208616 0.02212296 0.02251658 1000 1000 1000 0.02121692 0.02113642 0.02103145 0.02117372 0.02075871 1000 0.02121692 0.02113642 0.02103145 0.02117372 0.02075871 1000
lala 4 1.2 1 first 13 1 41 4 4.12 0.919997453689575 0 1 1 0 0.02110893 0.021656 0.02227174 1000 1000 1000 0.02110893 0.021656 0.02227174 1000 1000 1000 0.02233909 0.02234719 0.02239844 0.02240404 0.02202792 1000 0.02233909 0.02234719 0.02239844 0.02240404 0.02202792 1000
lala 5 1.2 1 second 14 1 42 5 3.3 2.27999639511108 0 0 1 1 0.0213684 0.02148122 0.02076722 0.02068381 0.02133598 1000 0.0213684 0.02148122 0.02076722 0.02068381 0.02133598 1000 0.02250879 0.02256952 0.02238621 0.02234857 0.02234044 1000 0.02250879 0.02256952 0.02238621 0.02234857 0.02234044 1000
lala 2 1.2 0 second 1 1 43 4 4.12 0.319998025894165 -1 1 -1 1 0.02038085 0.01924705 0.01846944 0.01827141 0.01844792 1000 0.02038085 0.01924705 0.01846944 0.01827141 0.01844792 1000 0.01872336 0.02046395 0.02032595 0.02144789 0.02341507 1000 0.01872336 0.02046395 0.02032595 0.02144789 0.02341507 1000
lala 1 1.2 0 first 5 1 44 6 7.98 0.23999810218811 -1 1 -1 0 0.01097337 0.006685013 0.001158955 1000 1000 1000 0.01097337 0.006685013 0.001158955 1000 1000 1000 0.01337913 0.013027 0.01258271 0.01202174 0.01102983 1000 0.01337913 0.013027 0.01258271 0.01202174 0.01102983 1000
lala 6 1.2 0 second 14 1 45 5 2.1 0.319998025894165 0 0 -1 0 0.01207489 0.0140363 0.01484575 0.01550436 0.01574644 1000 0.01207489 0.0140363 0.01484575 0.01550436 0.01574644 1000 0.014633 0.0133238 0.01289848 0.01236295 0.0130985 1000 0.014633 0.0133238 0.01289848 0.01236295 0.0130985 1000
lala 3 1.2 1 second 9 1 46 5 6.650001 0.559997797012329 1 1 1 1 0.01396818 0.01465655 0.01517875 0.01543004 0.01517196 1000 0.01396818 0.01465655 0.01517875 0.01543004 0.01517196 1000 0.01444948 0.01436875 0.01500214 0.01539843 0.01546734 1000 0.01444948 0.01436875 0.01500214 0.01539843 0.01546734 1000
lala 7 1.2 1 second 14 1 47 5 3.3 0.559997797012329 0 0 1 1 0.01636875 0.01621793 0.01667768 0.01711584 0.01709376 1000 0.01636875 0.01621793 0.01667768 0.01711584 0.01709376 1000 0.01845452 0.01749465 0.01704646 0.01742957 0.01759764 1000 0.01845452 0.01749465 0.01704646 0.01742957 0.01759764 1000
lala 3 1.2 1 first 11 1 48 6 7.98 0.01999831199646 1 1 1 0 0.0163568 0.0171818 0.01777858 1000 1000 1000 0.0163568 0.0171818 0.01777858 1000 1000 1000 0.01935865 0.01900555 0.01907759 0.01914879 0.01912784 1000 0.01935865 0.01900555 0.01907759 0.01914879 0.01912784 1000
lala 8 1.2 0 second 14 1 49 5 2.1 0.23999810218811 0 0 -1 0 0.0205883 0.02016032 0.01996279 0.0199543 0.01972927 1000 0.0205883 0.02016032 0.01996279 0.0199543 0.01972927 1000 0.01997573 0.02058968 0.02072921 0.02083549 0.02071879 1000 0.01997573 0.02058968 0.02072921 0.02083549 0.02071879 1000
lala 2 1.2 1 first 5 1 50 6 9.18 0.179998159408569 -1 1 1 0 0.01569344 0.01677048 0.01707833 0.01695582 0.01659727 0.01635161 0.01569344 0.01677048 0.01707833 0.01695582 0.01659727 0.01635161 0.01562655 0.01549818 0.01626234 0.01656985 0.01684687 1000 0.01562655 0.01549818 0.01626234 0.01656985 0.01684687 1000
lala 3 1.2 0 first 0 1 51 4 2.64 2.159996509552 -1 0 -1 0 0.01804684 0.0181005 0.01845395 1000 1000 1000 0.01804684 0.0181005 0.01845395 1000 1000 1000 0.02006985 0.01977305 0.02003864 0.02043824 0.02008812 1000 0.02006985 0.01977305 0.02003864 0.02043824 0.02008812 1000
lala 4 1.2 1 second 9 1 52 5 5.450001 0.23999810218811 1 1 1 0 0.02210908 0.02228276 0.02314943 0.02326474 0.02294408 1000 0.02210908 0.02228276 0.02314943 0.02326474 0.02294408 1000 0.02187202 0.02213686 0.02181609 0.02196352 0.02242214 1000 0.02187202 0.02213686 0.02181609 0.02196352 0.02242214 1000
lala 1 1.2 0 first 7 1 53 4 5.32 2.35999631881714 1 1 -1 1 0.02338689 0.02319399 0.0233481 1000 1000 1000 0.02338689 0.02319399 0.0233481 1000 1000 1000 0.02276982 0.0229822 0.02332215 0.02425604 0.02391378 1000 0.02276982 0.0229822 0.02332215 0.02425604 0.02391378 1000
lala 5 1.2 1 second 13 1 54 4 2.92 0.539997816085815 0 1 1 1 0.02468442 0.02422034 0.02409398 0.02403461 0.02430857 1000 0.02468442 0.02422034 0.02409398 0.02403461 0.02430857 1000 0.02324577 0.02321409 0.02380004 0.02377776 0.02363971 1000 0.02324577 0.02321409 0.02380004 0.02377776 0.02363971 1000
lala 3 1.2 1 first 1 1 55 4 5.32 0.499997854232788 -1 1 1 0 0.02384871 0.02501312 0.02577259 1000 1000 1000 0.02384871 0.02501312 0.02577259 1000 1000 1000 0.02340981 0.02326044 0.02344475 0.02357046 0.02317926 1000 0.02340981 0.02326044 0.02344475 0.02357046 0.02317926 1000
lala 1 1.2 1 second 10 1 56 6 3.96 0.819997549057007 1 0 1 1 0.02350614 0.02280589 0.02334575 0.02386775 0.02374281 1000 0.02350614 0.02280589 0.02334575 0.02386775 0.02374281 1000 0.02415529 0.02461327 0.02387933 0.02359654 0.02395679 1000 0.02415529 0.02461327 0.02387933 0.02359654 0.02395679 1000
lala 5 1.2 0 first 4 1 57 6 6.36 1.59999680519104 -1 0 -1 0 0.02398691 0.02431433 0.02421094 1000 1000 1000 0.02398691 0.02431433 0.02421094 1000 1000 1000 0.02613939 0.02648299 0.02655668 0.02525368 0.02338015 1000 0.02613939 0.02648299 0.02655668 0.02525368 0.02338015 1000
lala 5 1.2 0 second 16 1 58 6 3.96 2.93999576568604 0 0 -1 0 0.02104672 0.02128898 0.02115946 0.02141889 0.02097076 1000 0.02104672 0.02128898 0.02115946 0.02141889 0.02097076 1000 0.01908045 0.01971686 0.019696 0.01943772 0.01957132 1000 0.01908045 0.01971686 0.019696 0.01943772 0.01957132 1000
lala 2 1.2 1 first 17 1 59 6 6.780001 1.95999670028687 0 1 1 1 0.01880644 0.0185765 0.01839965 1000 1000 1000 0.01880644 0.0185765 0.01839965 1000 1000 1000 0.01890356 0.01865372 0.01910259 0.01961273 0.01930321 1000 0.01890356 0.01865372 0.01910259 0.01961273 0.01930321 1000
lala 5 1.2 1 second 3 1 60 5 4.25 0.259998083114624 -1 1 1 1 0.01875072 0.01940475 0.01961935 0.01949386 0.01899 1000 0.01875072 0.01940475 0.01961935 0.01949386 0.01899 1000 0.01992112 0.01982483 0.01964495 0.02029981 0.02032232 1000 0.01992112 0.01982483 0.01964495 0.02029981 0.02032232 1000
lala 3 1.2 1 second 17 1 61 6 5.580001 0.179998159408569 0 1 1 0 0.02021397 0.02034767 0.02107475 0.02098237 0.02081199 1000 0.02021397 0.02034767 0.02107475 0.02098237 0.02081199 1000 0.02123217 0.02171437 0.02125075 0.02107915 0.02163161 1000 0.02123217 0.02171437 0.02125075 0.02107915 0.02163161 1000
lala 6 1.2 1 second 16 1 62 6 5.16 0.119998216629028 0 0 1 0 0.02137914 0.02132047 0.0210545 0.02068743 0.02130693 1000 0.02137914 0.02132047 0.0210545 0.02068743 0.02130693 1000 0.02157175 0.02154429 0.02109473 0.02086428 0.02087132 1000 0.02157175 0.02154429 0.02109473 0.02086428 0.02087132 1000
lala 7 1.2 1 first 16 1 63 6 3.96 0.299998044967651 0 0 1 0 0.02108395 0.02147131 0.02181838 1000 1000 1000 0.02108395 0.02147131 0.02181838 1000 1000 1000 0.0222102 0.02152225 0.0218781 0.02240084 0.02244419 1000 0.0222102 0.02152225 0.0218781 0.02240084 0.02244419 1000
lala 5 1.2 0 first 6 1 64 4 5.04 0.679997682571411 1 0 -1 1 0.02187536 0.02248475 0.02241915 1000 1000 1000 0.02187536 0.02248475 0.02241915 1000 1000 1000 0.02273042 0.02276282 0.02351942 0.02329495 0.02335459 1000 0.02273042 0.02276282 0.02351942 0.02329495 0.02335459 1000
lala 6 1.2 0 second 3 1 65 5 3.05 0.479997873306274 -1 1 -1 1 0.02162472 0.02122774 0.02041088 0.02063883 0.02154884 1000 0.02162472 0.02122774 0.02041088 0.02063883 0.02154884 1000 0.02262029 0.02206616 0.02232977 0.02256987 0.02262677 1000 0.02262029 0.02206616 0.02232977 0.02256987 0.02262677 1000
lala 4 1.2 0 first 1 1 66 4 4.12 0.39999794960022 -1 1 -1 1 0.02300183 0.02321295 0.02318259 1000 1000 1000 0.02300183 0.02321295 0.02318259 1000 1000 1000 0.02128917 0.02217732 0.02289262 0.02364092 0.02399904 1000 0.02128917 0.02217732 0.02289262 0.02364092 0.02399904 1000
lala 4 1.2 0 second 0 1 67 4 3.84 0.499997854232788 -1 0 -1 0 0.02569526 0.0243777 0.02339145 0.02338506 0.02359798 1000 0.02569526 0.0243777 0.02339145 0.02338506 0.02359798 1000 0.02440523 0.02419739 0.02418178 0.02390431 0.02362964 1000 0.02440523 0.02419739 0.02418178 0.02390431 0.02362964 1000
lala 6 1.2 1 first 6 1 68 4 6.24 0.419997930526733 1 0 1 1 0.02337249 0.02333971 0.02310969 1000 1000 1000 0.02337249 0.02333971 0.02310969 1000 1000 1000 0.02371637 0.02384536 0.02447696 0.02408615 0.02407809 1000 0.02371637 0.02384536 0.02447696 0.02408615 0.02407809 1000
lala 4 1.2 0 first 12 1 69 4 3.84 0.639997720718384 0 0 -1 0 0.02411592 0.02412272 0.02461738 1000 1000 1000 0.02411592 0.02412272 0.02461738 1000 1000 1000 0.02327065 0.02282287 0.02248339 0.02241709 0.0221108 1000 0.02327065 0.02282287 0.02248339 0.02241709 0.0221108 1000
lala 4 1.2 1 second 17 1 70 6 4.380001 0.579997777938843 0 1 1 1 0.02343011 0.0232526 0.02297149 0.02301771 0.02311029 1000 0.02343011 0.0232526 0.02297149 0.02301771 0.02311029 1000 0.02145532 0.0216854 0.0217979 0.02136739 0.02117673 1000 0.02145532 0.0216854 0.0217979 0.02136739 0.02117673 1000
lala 2 1.2 1 first 10 1 71 6 2.76 0.599997758865356 1 0 1 1 0.0225483 0.02237042 0.02259277 1000 1000 1000 0.0225483 0.02237042 0.02259277 1000 1000 1000 0.02356048 0.02298324 0.02310494 0.02412133 0.02402037 1000 0.02356048 0.02298324 0.02310494 0.02412133 0.02402037 1000
lala 5 1.2 1 second 9 1 72 5 4.250001 0.719997644424438 1 1 1 1 0.02230405 0.02200294 0.02223604 0.02208381 0.02254814 1000 0.02230405 0.02200294 0.02223604 0.02208381 0.02254814 1000 0.02369925 0.02379618 0.02387634 0.02361916 0.02295104 1000 0.02369925 0.02379618 0.02387634 0.02361916 0.02295104 1000
lala 3 1.2 1 first 8 1 73 5 1.65 0.839997529983521 1 0 1 0 0.02311125 0.02297134 0.02317066 1000 1000 1000 0.02311125 0.02297134 0.02317066 1000 1000 1000 0.02309519 0.02309342 0.02302865 0.02300722 0.02284235 1000 0.02309519 0.02309342 0.02302865 0.02300722 0.02284235 1000
lala 6 1.2 0 second 13 1 74 4 1.72 0.919997453689575 0 1 -1 0 0.02414205 0.02415738 0.02430546 0.02349895 0.02335837 1000 0.02414205 0.02415738 0.02430546 0.02349895 0.02335837 1000 0.02321679 0.02320146 0.02345143 0.02318295 0.02340595 1000 0.02321679 0.02320146 0.02345143 0.02318295 0.02340595 1000
lala 6 1.2 1 second 4 1 75 6 7.559999 0.959997415542603 -1 0 1 0 0.02409408 0.02425802 0.02405775 0.0242814 0.02370177 1000 0.02409408 0.02425802 0.02405775 0.0242814 0.02370177 1000 0.02325238 0.02376345 0.0235693 0.02316921 0.02269832 1000 0.02325238 0.02376345 0.0235693 0.02316921 0.02269832 1000
lala 3 1.2 0 first 5 1 76 6 7.98 0.679997682571411 -1 1 -1 0 0.02314913 0.02307239 0.02311132 1000 1000 1000 0.02314913 0.02307239 0.02311132 1000 1000 1000 0.02406278 0.02430989 0.02412802 0.02412147 0.02427619 1000 0.02406278 0.02430989 0.02412802 0.02412147 0.02427619 1000
lala 5 1.2 1 second 17 1 77 6 3.180001 0.339998006820679 0 1 1 0 0.02491 0.02566439 0.02626756 0.02688747 0.02613947 1000 0.02491 0.02566439 0.02626756 0.02688747 0.02613947 1000 0.02036396 0.02045337 0.02059982 0.02138511 0.02158613 1000 0.02036396 0.02045337 0.02059982 0.02138511 0.02158613 1000
lala 3 1.2 1 first 15 1 78 5 4.25 0.479997873306274 0 1 1 1 0.02180967 0.02170743 0.02172325 1000 1000 1000 0.02180967 0.02170743 0.02172325 1000 1000 1000 0.02183709 0.02142831 0.02172101 0.02248245 0.02247431 1000 0.02183709 0.02142831 0.02172101 0.02248245 0.02247431 1000
lala 7 1.2 1 first 6 1 79 4 5.04 1.73999691009521 1 0 1 0 0.02328401 0.0234558 0.02389189 1000 1000 1000 0.02328401 0.0234558 0.02389189 1000 1000 1000 0.02354107 0.02374959 0.0233085 0.02327253 0.02322968 1000 0.02354107 0.02374959 0.0233085 0.02327253 0.02322968 1000
lala 4 1.2 1 second 5 1 80 6 9.18 1.13999724388123 -1 1 1 0 0.02231955 0.02217709 0.02241398 0.02219877 0.02246801 1000 0.02231955 0.02217709 0.02241398 0.02219877 0.02246801 1000 0.02323439 0.02241441 0.02247951 0.02264608 0.02224487 1000 0.02323439 0.02241441 0.02247951 0.02264608 0.02224487 1000
lala 4 1.2 0 first 11 1 81 6 6.780001 0.599997758865356 1 1 -1 1 0.02116127 0.02135774 0.02171122 1000 1000 1000 0.02116127 0.02135774 0.02171122 1000 1000 1000 0.02231746 0.02178922 0.02223661 0.0223492 0.02270027 1000 0.02231746 0.02178922 0.02223661 0.0223492 0.02270027 1000
lala 8 1.2 1 first 6 1 82 4 3.84 0.719997644424438 1 0 1 0 0.02004656 0.0208117 0.02131999 1000 1000 1000 0.02004656 0.0208117 0.02131999 1000 1000 1000 0.02377977 0.02405051 0.02431798 0.02413359 0.02408314 1000 0.02377977 0.02405051 0.02431798 0.02413359 0.02408314 1000
lala 5 1.2 1 second 1 1 83 4 5.32 0.699997663497925 -1 1 1 1 0.02149363 0.02143891 0.02214907 0.02190697 0.0218944 1000 0.02149363 0.02143891 0.02214907 0.02190697 0.0218944 1000 0.02350558 0.02358135 0.02402179 0.02469519 0.02419639 1000 0.02350558 0.02358135 0.02402179 0.02469519 0.02419639 1000
lala 5 1.2 1 first 11 1 84 6 7.98 1.65999698638916 1 1 1 0 0.0243084 0.02514762 0.02533848 1000 1000 1000 0.0243084 0.02514762 0.02533848 1000 1000 1000 0.02420572 0.02398332 0.02367542 0.02397432 0.02461487 1000 0.02420572 0.02398332 0.02367542 0.02397432 0.02461487 1000
lala 9 1.2 1 second 6 1 85 4 2.64 3.25999546051025 1 0 1 0 0.02053759 0.02040417 0.02019362 0.01968069 0.02033089 1000 0.02053759 0.02040417 0.02019362 0.01968069 0.02033089 1000 0.02093455 0.0209472 0.02106656 0.02092854 0.02103978 1000 0.02093455 0.0209472 0.02106656 0.02092854 0.02103978 1000
lala 4 1.2 0 second 8 1 86 5 1.65 0.679997682571411 1 0 -1 0 0.02177758 0.02136115 0.02152349 0.02147001 0.02148907 1000 0.02177758 0.02136115 0.02152349 0.02147001 0.02148907 1000 0.02116786 0.020934 0.02101223 0.02155165 0.02152147 1000 0.02116786 0.020934 0.02101223 0.02155165 0.02152147 1000
lala 5 1.2 0 first 12 1 87 4 5.04 1.21999716758728 0 0 -1 1 0.02189928 0.0222586 0.02263647 1000 1000 1000 0.02189928 0.0222586 0.02263647 1000 1000 1000 -0.03442426 -0.04440121 -0.04354582 -0.03702633 -0.03469094 1000 -0.03442426 -0.04440121 -0.04354582 -0.03702633 -0.03469094 1000
lala 3 1.2 0 first 10 1 88 6 1.98 0.139998197555542 1 0 -1 0 0.02037835 0.02349964 0.0281729 1000 1000 1000 0.02037835 0.02349964 0.0281729 1000 1000 1000 0.02097792 0.02126831 0.0219189 0.0222501 0.02134853 1000 0.02097792 0.02126831 0.0219189 0.0222501 0.02134853 1000
lala 7 1.2 0 first 4 1 89 6 6.36 0.319998025894165 -1 0 -1 0 0.02158217 0.02062592 0.0195326 1000 1000 1000 0.02158217 0.02062592 0.0195326 1000 1000 1000 0.02289076 0.02402548 0.02520284 0.02562839 0.025338 1000 0.02289076 0.02402548 0.02520284 0.02562839 0.025338 1000
lala 4 1.2 1 second 15 1 90 5 3.05 0.39999794960022 0 1 1 1 0.02501637 0.02481872 0.02325547 0.02157853 0.02153411 1000 0.02501637 0.02481872 0.02325547 0.02157853 0.02153411 1000 0.02057025 0.02053399 0.02077279 0.02120291 0.02133369 1000 0.02057025 0.02053399 0.02077279 0.02120291 0.02133369 1000
lala 10 2.4 0 second 6 1 91 4 1.32 0.219998121261597 1 0 -1 0 0.02497178 0.025168 0.02538771 0.02567022 0.02628494 1000 0.02497178 0.025168 0.02538771 0.02567022 0.02628494 1000 0.02796301 0.02743538 0.02777896 0.02722438 0.02691983 1000 0.02796301 0.02743538 0.02777896 0.02722438 0.02691983 1000
lala 8 1.2 1 first 4 1 92 6 7.559999 1.01999735832214 -1 0 1 1 0.02019677 0.01967266 0.0180115 1000 1000 1000 0.02019677 0.01967266 0.0180115 1000 1000 1000 0.007390898 0.006799513 0.007188512 0.007788692 0.007783266 1000 0.007390898 0.006799513 0.007188512 0.007788692 0.007783266 1000
lala 6 1.2 0 second 17 1 93 6 1.980001 0.539997816085815 0 1 -1 0 0.01088047 0.01160443 0.01192613 0.01205646 0.01191993 1000 0.01088047 0.01160443 0.01192613 0.01205646 0.01191993 1000 0.01271358 0.01183183 0.01202658 0.01254891 0.01269075 1000 0.01271358 0.01183183 0.01202658 0.01254891 0.01269075 1000
lala 9 1.2 1 second 14 1 94 5 3.3 0.359997987747192 0 0 1 0 0.01519378 0.01511084 0.01514441 0.01524111 0.01578918 1000 0.01519378 0.01511084 0.01514441 0.01524111 0.01578918 1000 0.01648607 0.01643964 0.01632541 0.01594044 0.01597131 1000 0.01648607 0.01643964 0.01632541 0.01594044 0.01597131 1000
lala 6 1.2 0 second 9 1 95 5 3.050001 0.459997892379761 1 1 -1 0 0.01818687 0.01851347 0.01882902 0.01879826 0.0189928 1000 0.01818687 0.01851347 0.01882902 0.01879826 0.0189928 1000 0.01924926 0.01928626 0.02010202 0.02017358 0.01977416 1000 0.01924926 0.01928626 0.02010202 0.02017358 0.01977416 1000
lala 5 1.2 0 second 0 1 96 4 5.04 2.21999645233154 -1 0 -1 0 0.02141548 0.0218491 0.02180998 0.02187539 0.02269324 1000 0.02141548 0.0218491 0.02180998 0.02187539 0.02269324 1000 0.02592195 0.02577209 0.02525249 0.02526509 0.02509597 1000 0.02592195 0.02577209 0.02525249 0.02526509 0.02509597 1000
lala 7 1.2 1 second 9 1 97 5 4.250001 0.519997835159302 1 1 1 1 0.02542126 0.02502498 0.02507651 0.02486435 0.02462796 1000 0.02542126 0.02502498 0.02507651 0.02486435 0.02462796 1000 0.02490463 0.02457221 0.02415518 0.02400031 0.02310688 1000 0.02490463 0.02457221 0.02415518 0.02400031 0.02310688 1000
lala 6 1.2 1 first 0 1 98 4 6.24 1.43999695777893 -1 0 1 1 0.01928301 0.01966127 0.02005155 1000 1000 1000 0.01928301 0.01966127 0.02005155 1000 1000 1000 0.0209675 0.02096023 0.02158864 0.0213059 0.02105675 1000 0.0209675 0.02096023 0.02158864 0.0213059 0.02105675 1000
lala 6 1.2 0 second 12 1 99 4 6.24 0.279998064041138 0 0 -1 1 0.02200796 0.02280926 0.02326911 0.02335853 0.02311281 1000 0.02200796 0.02280926 0.02326911 0.02335853 0.02311281 1000 0.02367571 0.02377884 0.02443578 0.02460506 0.02440161 1000 0.02367571 0.02377884 0.02443578 0.02460506 0.02440161 1000
lala 8 1.2 0 second 9 1 100 5 3.050001 0.99999737739563 1 1 -1 0 0.01303835 0.0165034 0.02027166 0.02025055 0.0205216 1000 0.01303835 0.0165034 0.02027166 0.02025055 0.0205216 1000 0.02309854 0.02259545 0.02327595 0.02479566 0.02523464 1000 0.02309854 0.02259545 0.02327595 0.02479566 0.02523464 1000
lala 5 1.2 0 first 8 1 101 5 2.85 0.479997873306274 1 0 -1 0 0.01516519 0.01569937 0.0166175 1000 1000 1000 0.01516519 0.01569937 0.0166175 1000 1000 1000 0.01626796 0.01576724 0.01672346 0.01712037 0.01649702 1000 0.01626796 0.01576724 0.01672346 0.01712037 0.01649702 1000
lala 7 1.2 1 second 12 1 102 4 7.44 0.259998083114624 0 0 1 0 0.01866113 0.0193019 0.01962725 0.01990041 0.01922869 1000 0.01866113 0.0193019 0.01962725 0.01990041 0.01922869 1000 0.02187645 0.02196702 0.02213943 0.02254682 0.02253226 1000 0.02187645 0.02196702 0.02213943 0.02254682 0.02253226 1000
lala 5 1.2 0 first 15 1 103 5 1.85 0.159998178482056 0 1 -1 0 0.0238797 0.02461286 0.0250287 1000 1000 1000 0.0238797 0.02461286 0.0250287 1000 1000 1000 0.01789984 0.01832653 0.0178469 0.01761965 0.01796103 1000 0.01789984 0.01832653 0.0178469 0.01761965 0.01796103 1000
lala 6 1.2 0 second 15 1 104 5 3.05 1.35999703407288 0 1 -1 0 0.02050247 0.02094926 0.02202695 0.02259932 0.02295033 1000 0.02050247 0.02094926 0.02202695 0.02259932 0.02295033 1000 0.02397856 0.02445225 0.0249423 0.02524591 0.02503417 1000 0.02397856 0.02445225 0.0249423 0.02524591 0.02503417 1000
lala 6 1.2 1 first 8 1 105 5 4.05 1.51999688148499 1 0 1 0 0.0247549 0.02511608 0.02483042 1000 1000 1000 0.0247549 0.02511608 0.02483042 1000 1000 1000 0.02416 0.02468596 0.0244799 0.02363686 0.02302102 1000 0.02416 0.02468596 0.0244799 0.02363686 0.02302102 1000
lala 7 1.2 1 second 13 1 106 4 2.92 1.05999732017517 0 1 1 0 0.01546061 0.01617148 0.0162963 0.0165481 0.01651716 1000 0.01546061 0.01617148 0.0162963 0.0165481 0.01651716 1000 0.01627457 0.01594646 0.01621886 0.01588029 0.01573235 1000 0.01627457 0.01594646 0.01621886 0.01588029 0.01573235 1000
lala 8 1.2 0 second 16 1 107 6 2.76 0.819997549057007 0 0 -1 1 0.01362229 0.01398002 0.0138679 0.01418345 0.0144678 1000 0.01362229 0.01398002 0.0138679 0.01418345 0.0144678 1000 0.01540649 0.01473534 0.01543452 0.0156862 0.01552908 1000 0.01540649 0.01473534 0.01543452 0.0156862 0.01552908 1000
lala 7 1.2 1 first 15 1 108 5 4.25 0.599997758865356 0 1 1 1 0.0157326 0.01566491 0.01595074 1000 1000 1000 0.0157326 0.01566491 0.01595074 1000 1000 1000 0.01495154 0.01534133 0.01573873 0.01554378 0.01561436 1000 0.01495154 0.01534133 0.01573873 0.01554378 0.01561436 1000
lala 7 1.2 0 second 3 1 109 5 4.25 0.39999794960022 -1 1 -1 0 0.01628394 0.01644647 0.01718094 0.01762219 0.01753664 1000 0.01628394 0.01644647 0.01718094 0.01762219 0.01753664 1000 0.01844524 0.01859974 0.01840384 0.01812174 0.01833176 1000 0.01844524 0.01859974 0.01840384 0.01812174 0.01833176 1000
lala 9 1.2 0 first 9 1 110 5 4.250001 1.57999682426453 1 1 -1 0 0.01752385 0.01799373 0.01844485 1000 1000 1000 0.01752385 0.01799373 0.01844485 1000 1000 1000 0.01895669 0.0192375 0.01938172 0.01914234 0.01917694 1000 0.01895669 0.0192375 0.01938172 0.01914234 0.01917694 1000
lala 8 1.2 0 second 12 1 111 4 6.24 0.01999831199646 0 0 -1 0 0.02040096 0.02028948 0.02023467 0.01981801 0.02003199 1000 0.02040096 0.02028948 0.02023467 0.01981801 0.02003199 1000 0.02111421 0.02099387 0.02082095 0.02066744 0.02107277 1000 0.02111421 0.02099387 0.02082095 0.02066744 0.02107277 1000
lala 10 1.2 0 first 9 1 112 5 5.450001 2.159996509552 1 1 -1 1 0.02131743 0.02140094 0.02127766 1000 1000 1000 0.02131743 0.02140094 0.02127766 1000 1000 1000 0.02002131 0.02119649 0.02029508 0.02058823 0.02048891 1000 0.02002131 0.02119649 0.02029508 0.02058823 0.02048891 1000
lala 6 1.2 0 first 11 1 113 6 6.780001 0.899997472763062 1 1 -1 0 0.02298786 0.02278318 0.02262563 1000 1000 1000 0.02298786 0.02278318 0.02262563 1000 1000 1000 0.02319054 0.02347018 0.02368528 0.02422471 0.02429807 1000 0.02319054 0.02347018 0.02368528 0.02422471 0.02429807 1000
lala 9 1.2 0 first 16 1 114 6 3.96 0.699997663497925 0 0 -1 1 0.02503536 0.02501853 0.02506887 1000 1000 1000 0.02503536 0.02501853 0.02506887 1000 1000 1000 0.0238204 0.02374737 0.02327516 0.02307352 0.02353814 1000 0.0238204 0.02374737 0.02327516 0.02307352 0.02353814 1000
lala 8 1.2 0 second 13 1 115 4 1.72 0.719997644424438 0 1 -1 1 0.02497943 0.02485273 0.02463095 0.02448319 0.02485244 1000 0.02497943 0.02485273 0.02463095 0.02448319 0.02485244 1000 0.02468981 0.02435852 0.02431625 0.02406097 0.02443143 1000 0.02468981 0.02435852 0.02431625 0.02406097 0.02443143 1000
lala 3 1.2 0 first 2 1 116 5 5.7 0.819997549057007 -1 0 -1 0 0.02154219 0.02196275 0.02280505 1000 1000 1000 0.02154219 0.02196275 0.02280505 1000 1000 1000 0.02401579 0.02366038 0.02391266 0.02445205 0.02381469 1000 0.02401579 0.02366038 0.02391266 0.02445205 0.02381469 1000
lala 8 1.2 0 second 15 1 117 5 3.05 0.01999831199646 0 1 -1 0 0.003731695 0.002249171 2.220896E-05 -0.0009147907 -0.001628004 1000 0.003731695 0.002249171 2.220896E-05 -0.0009147907 -0.001628004 1000 -0.001397109 -0.001319806 -0.001669514 -0.001767193 -0.001828008 1000 -0.001397109 -0.001319806 -0.001669514 -0.001767193 -0.001828008 1000
lala 11 1.2 1 second 6 1 118 4 2.52 0.259998083114624 1 0 1 1 -0.00087963 -0.0008244051 -0.001028296 -0.000786714 -0.0009586071 1000 -0.00087963 -0.0008244051 -0.001028296 -0.000786714 -0.0009586071 1000 0.0002260701 0.0005217426 0.001262207 0.001501237 0.001671374 1000 0.0002260701 0.0005217426 0.001262207 0.001501237 0.001671374 1000
lala 12 0.6 0 first 6 1 119 4 1.92 0.519997835159302 1 0 -1 1 0.001895223 0.001977797 0.002239585 1000 1000 1000 0.001895223 0.001977797 0.002239585 1000 1000 1000 0.004234889 0.003829054 0.004028356 0.00462129 0.00481186 1000 0.004234889 0.003829054 0.004028356 0.00462129 0.00481186 1000
lala 9 1.2 0 second 15 1 120 5 4.25 4.33999443054199 0 1 -1 1 0.003657022 0.003444443 0.003460059 0.003676547 0.003560816 1000 0.003657022 0.003444443 0.003460059 0.003676547 0.003560816 1000 0.004945089 0.004856925 0.004728321 0.004792158 0.004818959 1000 0.004945089 0.004856925 0.004728321 0.004792158 0.004818959 1000
lala 5 1.2 0 first 5 1 121 6 7.98 0.599997758865356 -1 1 -1 0 0.008808982 0.009302029 0.009552681 1000 1000 1000 0.008808982 0.009302029 0.009552681 1000 1000 1000 0.0101259 0.01067433 0.01143905 0.01159081 0.01173076 1000 0.0101259 0.01067433 0.01143905 0.01159081 0.01173076 1000
lala 10 1.2 1 second 15 1 122 5 5.45 0.579997777938843 0 1 1 0 0.01334716 0.01318222 0.01364156 0.01435476 0.01440522 1000 0.01334716 0.01318222 0.01364156 0.01435476 0.01440522 1000 0.01521565 0.01486212 0.01467563 0.01540452 0.01584388 1000 0.01521565 0.01486212 0.01467563 0.01540452 0.01584388 1000
lala 13 0.3 0 second 6 1 123 4 2.22 0.01999831199646 1 0 -1 0 0.01532744 0.01568633 0.01601138 0.01580295 0.01547217 1000 0.01532744 0.01568633 0.01601138 0.01580295 0.01547217 1000 0.01654426 0.01698863 0.01680718 0.01659005 0.0164451 1000 0.01654426 0.01698863 0.01680718 0.01659005 0.0164451 1000
lala 6 1.2 1 second 5 1 124 6 9.18 0.61999773979187 -1 1 1 0 0.01681055 0.01736778 0.01724758 0.01726813 0.01706956 1000 0.01681055 0.01736778 0.01724758 0.01726813 0.01706956 1000 0.0163838 0.01552863 0.0147586 0.01514632 0.01603671 1000 0.0163838 0.01552863 0.0147586 0.01514632 0.01603671 1000
lala 4 1.2 1 second 10 1 125 6 3.18 2.27999639511108 1 0 1 0 0.01811003 0.01784293 0.01836002 0.01885741 0.01870957 1000 0.01811003 0.01784293 0.01836002 0.01885741 0.01870957 1000 0.01877812 0.01904964 0.01881617 0.0184567 0.01864125 1000 0.01877812 0.01904964 0.01881617 0.0184567 0.01864125 1000
lala 7 1.2 0 second 17 1 126 6 3.180001 0.119998216629028 0 1 -1 1 0.008449825 0.008728345 0.009175638 0.009358838 0.009113708 1000 0.008449825 0.008728345 0.009175638 0.009358838 0.009113708 1000 0.01274563 0.01390975 0.01397594 0.01412018 0.01442531 1000 0.01274563 0.01390975 0.01397594 0.01412018 0.01442531 1000
lala 7 1.2 0 second 5 1 127 6 7.98 0.439997911453247 -1 1 -1 0 0.01879475 0.01979933 0.02029705 0.01953566 0.01982018 1000 0.01879475 0.01979933 0.02029705 0.01953566 0.01982018 1000 0.02183069 0.02177003 0.02203385 0.02177521 0.02183979 1000 0.02183069 0.02177003 0.02203385 0.02177521 0.02183979 1000
lala 10 1.2 1 first 16 1 128 6 5.16 0.759997606277466 0 0 1 0 0.02078829 0.0213006 0.02213939 1000 1000 1000 0.02078829 0.0213006 0.02213939 1000 1000 1000 0.01517776 0.01460316 0.01456331 0.01449753 0.01469707 1000 0.01517776 0.01460316 0.01456331 0.01449753 0.01469707 1000
lala 14 0.3 1 second 6 1 129 4 2.52 1.63999700546265 1 0 1 1 0.01005352 0.009933522 0.009406064 0.009539234 0.01010392 1000 0.01005352 0.009933522 0.009406064 0.009539234 0.01010392 1000 0.01068639 0.01120783 0.01159708 0.01141652 0.01124902 1000 0.01068639 0.01120783 0.01159708 0.01141652 0.01124902 1000
lala 15 0.15 0 first 6 1 130 4 2.37 0.39999794960022 1 0 -1 0 0.01044693 0.01005893 0.0101515 1000 1000 1000 0.01044693 0.01005893 0.0101515 1000 1000 1000 0.01306787 0.0130436 0.01283903 0.012634 0.01244206 1000 0.01306787 0.0130436 0.01283903 0.012634 0.01244206 1000
lala 10 0.6 0 second 14 1 131 5 2.7 1.03999733924866 0 0 -1 1 0.01354441 0.01221447 0.01245912 0.01342322 0.01378238 1000 0.01354441 0.01221447 0.01245912 0.01342322 0.01378238 1000 0.01351228 0.01358571 0.0137996 0.0144947 0.01465694 1000 0.01351228 0.01358571 0.0137996 0.0144947 0.01465694 1000
lala 7 1.2 0 first 0 1 132 4 5.04 0.159998178482056 -1 0 -1 0 0.01663114 0.01668262 0.01664321 1000 1000 1000 0.01663114 0.01668262 0.01664321 1000 1000 1000 0.01576951 0.01525384 0.0154054 0.01515593 0.01482738 1000 0.01576951 0.01525384 0.0154054 0.01515593 0.01482738 1000
lala 4 1.2 0 second 2 1 133 5 6.9 0.499997854232788 -1 0 -1 0 0.01631853 0.01599712 0.01635623 0.01685374 0.01696885 1000 0.01631853 0.01599712 0.01635623 0.01685374 0.01696885 1000 0.01684527 0.01678058 0.01692575 0.01662396 0.01687457 1000 0.01684527 0.01678058 0.01692575 0.01662396 0.01687457 1000
lala 8 1.2 1 first 17 1 134 6 4.380001 1.05999732017517 0 1 1 0 0.0166299 0.01657076 0.01670242 1000 1000 1000 0.0166299 0.01657076 0.01670242 1000 1000 1000 0.01597418 0.01576421 0.01617914 0.01690243 0.01694255 1000 0.01597418 0.01576421 0.01617914 0.01690243 0.01694255 1000
lala 5 1.2 1 second 2 1 135 5 8.099999 0.659997701644897 -1 0 1 0 0.01916801 0.01926087 0.01937307 0.01958169 0.01929867 1000 0.01916801 0.01926087 0.01937307 0.01958169 0.01929867 1000 0.01835896 0.01824402 0.01797031 0.01803443 0.01826959 1000 0.01835896 0.01824402 0.01797031 0.01803443 0.01826959 1000
lala 8 1.2 0 first 3 1 136 5 5.45 1.95999670028687 -1 1 -1 1 0.02026664 0.02018399 0.02026074 1000 1000 1000 0.02026664 0.02018399 0.02026074 1000 1000 1000 0.009447483 0.008249971 0.006954127 0.007789466 0.01356439 1000 0.009447483 0.008249971 0.006954127 0.007789466 0.01356439 1000
lala 16 0.075 0 second 6 1 137 4 2.445 0.539997816085815 1 0 -1 0 0.02313017 0.0231207 0.0239709 0.02243352 0.02221359 1000 0.02313017 0.0231207 0.0239709 0.02243352 0.02221359 1000 0.02580863 0.02509009 0.02354496 0.02103958 0.01970296 1000 0.02580863 0.02509009 0.02354496 0.02103958 0.01970296 1000
lala 11 0.3 1 second 14 1 138 5 3 0.799997568130493 0 0 1 1 0.01788847 0.0179094 0.01782616 0.01775389 0.0180142 1000 0.01788847 0.0179094 0.01782616 0.01775389 0.0180142 1000 0.01840413 0.01805785 0.01793364 0.01813859 0.01830096 1000 0.01840413 0.01805785 0.01793364 0.01813859 0.01830096 1000
lala 11 0.6 0 first 15 1 139 5 4.85 0.959997415542603 0 1 -1 0 0.01957032 0.01968314 0.02068792 1000 1000 1000 0.01957032 0.01968314 0.02068792 1000 1000 1000 0.02187447 0.02191564 0.02213252 0.02205523 0.02178012 1000 0.02187447 0.02191564 0.02213252 0.02205523 0.02178012 1000
lala 7 1.2 1 second 11 1 140 6 7.98 0.759997606277466 1 1 1 1 0.02155014 0.02102815 0.02053178 0.0207626 0.02112124 1000 0.02155014 0.02102815 0.02053178 0.0207626 0.02112124 1000 0.02230165 0.02248845 0.02211779 0.02223356 0.0226478 1000 0.02230165 0.02248845 0.02211779 0.02223356 0.0226478 1000
lala 5 1.2 1 second 10 1 141 6 1.98 2.21999645233154 1 0 1 1 0.0222655 0.02223077 0.02231011 0.02224269 0.02259495 1000 0.0222655 0.02223077 0.02231011 0.02224269 0.02259495 1000 0.02288073 0.02262542 0.02236559 0.02197753 0.02183089 1000 0.02288073 0.02262542 0.02236559 0.02197753 0.02183089 1000
lala 9 1.2 1 second 3 1 142 5 6.65 2.7399959564209 -1 1 1 1 0.02344241 0.02362048 0.01593767 0.008021327 0.004117291 1000 0.02344241 0.02362048 0.01593767 0.008021327 0.004117291 1000 0.01220789 0.01102812 0.01222553 0.01098161 0.007114021 1000 0.01220789 0.01102812 0.01222553 0.01098161 0.007114021 1000
lala 6 1.2 0 second 2 1 143 5 6.9 0.339998006820679 -1 0 -1 0 0.01508442 0.01529185 0.01590854 0.01636984 0.01655366 1000 0.01508442 0.01529185 0.01590854 0.01636984 0.01655366 1000 0.01820869 0.0176441 0.01689085 0.01660173 0.01610848 1000 0.01820869 0.0176441 0.01689085 0.01660173 0.01610848 1000
lala 6 1.2 0 first 10 1 144 6 1.98 0.459997892379761 1 0 -1 0 0.01765348 0.01788948 0.01801733 1000 1000 1000 0.01765348 0.01788948 0.01801733 1000 1000 1000 0.01871297 0.01878273 0.01866709 0.01870001 0.01855909 1000 0.01871297 0.01878273 0.01866709 0.01870001 0.01855909 1000
lala 10 0.6 0 second 3 1 145 5 6.05 0.719997644424438 -1 1 -1 0 0.0202126 0.02134237 0.02130918 0.02143972 0.02271393 1000 0.0202126 0.02134237 0.02130918 0.02143972 0.02271393 1000 0.02517373 0.02528978 0.02523033 0.02540493 0.02578118 1000 0.02517373 0.02528978 0.02523033 0.02540493 0.02578118 1000
lala 9 1.2 1 first 13 1 146 4 2.92 0.859997510910034 0 1 1 0 0.02284416 0.02311856 0.02344025 1000 1000 1000 0.02284416 0.02311856 0.02344025 1000 1000 1000 0.02486804 0.02474264 0.02468587 0.02527208 0.02559005 1000 0.02486804 0.02474264 0.02468587 0.02527208 0.02559005 1000
lala 7 1.2 0 first 2 1 147 5 8.099999 2.85999584197998 -1 0 -1 1 0.02370766 0.02441721 0.02457811 1000 1000 1000 0.02370766 0.02441721 0.02457811 1000 1000 1000 0.02091324 0.02094118 0.02114334 0.0211561 0.02094642 1000 0.02091324 0.02094118 0.02114334 0.0211561 0.02094642 1000
lala 11 2.4 1 second 9 1 148 5 7.850001 0.299998044967651 1 1 1 0 0.0201924 0.01972311 0.01974114 0.02001137 0.01979585 1000 0.0201924 0.01972311 0.01974114 0.02001137 0.01979585 1000 0.02071798 0.0208512 0.02092801 0.02105986 0.02072997 1000 0.02071798 0.0208512 0.02092801 0.02105986 0.02072997 1000
lala 9 1.2 1 second 17 1 149 6 3.180001 0.179998159408569 0 1 1 1 0.02105386 0.02084832 0.02044428 0.02070613 0.02111163 1000 0.02105386 0.02084832 0.02044428 0.02070613 0.02111163 1000 0.02154741 0.02133821 0.02149763 0.02155502 0.02150254 1000 0.02154741 0.02133821 0.02149763 0.02155502 0.02150254 1000
lala 8 1.2 0 first 5 1 150 6 9.18 0.639997720718384 -1 1 -1 0 0.009334426 0.005639384 -0.005658806 -0.02787269 -0.03783306 -0.03428755 0.009334426 0.005639384 -0.005658806 -0.02787269 -0.03783306 -0.03428755 0.00649161 0.005432729 0.009367567 0.01253376 0.01799166 1000 0.00649161 0.005432729 0.009367567 0.01253376 0.01799166 1000
lala 17 0.075 0 second 6 1 151 4 2.52 1.01999735832214 1 0 -1 0 -0.006567348 -0.003471581 -0.003160047 -0.001995677 -0.000673341 1000 -0.006567348 -0.003471581 -0.003160047 -0.001995677 -0.000673341 1000 0.0001913065 -3.646895E-05 8.10612E-05 0.0007444991 0.001000767 1000 0.0001913065 -3.646895E-05 8.10612E-05 0.0007444991 0.001000767 1000
lala 12 1.2 0 first 9 1 152 5 6.650001 1.63999700546265 1 1 -1 1 -0.001825463 -0.0006511358 -3.354795E-05 1000 1000 1000 -0.001825463 -0.0006511358 -3.354795E-05 1000 1000 1000 0.003685757 0.003533617 0.003695047 0.003247633 0.002614635 1000 0.003685757 0.003533617 0.003695047 0.003247633 0.002614635 1000
lala 10 1.2 0 first 17 1 153 6 1.980001 0.919997453689575 0 1 -1 1 0.01383422 0.01351879 0.01344055 1000 1000 1000 0.01383422 0.01351879 0.01344055 1000 1000 1000 0.01725354 0.01751164 0.01714351 0.01732081 0.01808041 1000 0.01725354 0.01751164 0.01714351 0.01732081 0.01808041 1000
lala 11 0.3 1 first 3 1 154 5 6.35 2.35999631881714 -1 1 1 0 0.02102088 0.02100877 0.02086392 1000 1000 1000 0.02102088 0.02100877 0.02086392 1000 1000 1000 0.02173705 0.02093158 0.02011586 0.01995946 0.02043876 1000 0.02173705 0.02093158 0.02011586 0.01995946 0.02043876 1000
lala 18 0.075 0 second 6 1 155 4 2.595 0.299998044967651 1 0 -1 0 0.02275614 0.02290663 0.02321897 0.02291772 0.02310079 1000 0.02275614 0.02290663 0.02321897 0.02291772 0.02310079 1000 0.02305382 0.02308905 0.02341362 0.02371034 0.02372365 1000 0.02305382 0.02308905 0.02341362 0.02371034 0.02372365 1000
lala 12 0.15 0 first 14 1 156 5 2.85 1.27999711036682 0 0 -1 1 0.02467012 0.025159 0.0254787 1000 1000 1000 0.02467012 0.025159 0.0254787 1000 1000 1000 0.02442551 0.02403234 0.02376885 0.02408508 0.02413208 1000 0.02442551 0.02403234 0.02376885 0.02408508 0.02413208 1000
lala 7 1.2 0 second 8 1 157 5 2.85 0.279998064041138 1 0 -1 0 0.02319824 0.02393595 0.02407914 0.02391687 0.02374206 1000 0.02319824 0.02393595 0.02407914 0.02391687 0.02374206 1000 0.02399033 0.02351326 0.0240879 0.02377352 0.0228504 1000 0.02399033 0.02351326 0.0240879 0.02377352 0.0228504 1000
lala 8 1.2 0 first 8 1 158 5 4.05 1.19999718666077 1 0 -1 1 0.02055248 0.02069236 0.02080053 1000 1000 1000 0.02055248 0.02069236 0.02080053 1000 1000 1000 0.01240638 0.01282807 0.01359814 0.01410536 0.01401169 1000 0.01240638 0.01282807 0.01359814 0.01410536 0.01401169 1000
lala 8 1.2 0 second 2 1 159 5 9.299999 0.679997682571411 -1 0 -1 0 0.01760693 0.01795734 0.01844435 0.01818646 0.01767408 1000 0.01760693 0.01795734 0.01844435 0.01818646 0.01767408 1000 0.0184326 0.01851924 0.01869601 0.0185274 0.01836402 1000 0.0184326 0.01851924 0.01869601 0.0185274 0.01836402 1000
lala 12 0.15 1 second 3 1 160 5 6.2 0.339998006820679 -1 1 1 0 0.02338854 0.02378226 0.0229253 0.02384594 0.02409321 1000 0.02338854 0.02378226 0.0229253 0.02384594 0.02409321 1000 0.02613436 0.02634037 0.02620513 0.02630306 0.02650752 1000 0.02613436 0.02634037 0.02620513 0.02630306 0.02650752 1000
lala 9 1.2 1 second 2 1 161 5 10.5 0.39999794960022 -1 0 1 0 0.02054601 0.02053792 0.02063539 0.02079052 0.02092877 1000 0.02054601 0.02053792 0.02063539 0.02079052 0.02092877 1000 0.02173498 0.02143676 0.02159741 0.02160974 0.02136477 1000 0.02173498 0.02143676 0.02159741 0.02160974 0.02136477 1000
lala 19 0.15 0 first 6 1 162 4 2.745 0.279998064041138 1 0 -1 0 0.02142943 0.0214577 0.02164565 1000 1000 1000 0.02142943 0.0214577 0.02164565 1000 1000 1000 0.02205819 0.0224997 0.02276857 0.02243067 0.02271432 1000 0.02205819 0.0224997 0.02276857 0.02243067 0.02271432 1000
lala 13 0.075 1 first 14 1 163 5 2.925 0.579997777938843 0 0 1 0 0.02180066 0.02178954 0.021769 1000 1000 1000 0.02180066 0.02178954 0.021769 1000 1000 1000 0.02256604 0.02214578 0.02236019 0.02248434 0.02251058 1000 0.02256604 0.02214578 0.02236019 0.02248434 0.02251058 1000
lala 9 1.2 1 first 5 1 164 6 10.38 1.81999683380127 -1 1 1 0 0.02291994 0.02275603 0.02233336 1000 1000 1000 0.02291994 0.02275603 0.02233336 1000 1000 1000 0.02364139 0.02412026 0.02386803 0.02374323 0.02376207 1000 0.02364139 0.02412026 0.02386803 0.02374323 0.02376207 1000
lala 13 0.6 0 first 9 1 165 5 7.25 0.759997606277466 1 1 -1 1 0.02190878 0.02180136 0.02164715 1000 1000 1000 0.02190878 0.02180136 0.02164715 1000 1000 1000 0.0229891 0.02299218 0.02283948 0.0231749 0.02365865 1000 0.0229891 0.02299218 0.02283948 0.0231749 0.02365865 1000
lala 9 1.2 1 second 4 1 166 6 6.36 1.49999690055847 -1 0 1 1 0.02279597 0.02283655 0.02295605 0.02350365 0.02379238 1000 0.02279597 0.02283655 0.02295605 0.02350365 0.02379238 1000 0.02201757 0.02203785 0.02197899 0.02178656 0.0223227 1000 0.02201757 0.02203785 0.02197899 0.02178656 0.0223227 1000
lala 14 0.0375 0 second 14 1 167 5 2.8875 0.299998044967651 0 0 -1 0 0.02265829 0.02244481 0.02243018 0.02289345 0.02338922 1000 0.02265829 0.02244481 0.02243018 0.02289345 0.02338922 1000 0.02214215 0.02219548 0.02228928 0.02221211 0.02226163 1000 0.02214215 0.02219548 0.02228928 0.02221211 0.02226163 1000
lala 8 1.2 0 first 11 1 168 6 6.780001 0.459997892379761 1 1 -1 1 0.02328778 0.02355786 0.02349007 1000 1000 1000 0.02328778 0.02355786 0.02349007 1000 1000 1000 0.02339022 0.02325577 0.02309304 0.02302589 0.02350724 1000 0.02339022 0.02325577 0.02309304 0.02302589 0.02350724 1000
lala 10 0.6 1 second 5 1 169 6 9.78 1.0999972820282 -1 1 1 0 0.02430344 0.02415813 0.02399779 0.02383885 0.02364779 1000 0.02430344 0.02415813 0.02399779 0.02383885 0.02364779 1000 0.02420261 0.02422224 0.02388205 0.02409982 0.02433195 1000 0.02420261 0.02422224 0.02388205 0.02409982 0.02433195 1000
lala 13 0.15 0 second 3 1 170 5 6.05 0.39999794960022 -1 1 -1 1 0.02301414 0.02298617 0.02302878 0.02312109 0.02369581 1000 0.02301414 0.02298617 0.02302878 0.02312109 0.02369581 1000 0.02354774 0.02346793 0.02332613 0.02297249 0.02310846 1000 0.02354774 0.02346793 0.02332613 0.02297249 0.02310846 1000
lala 10 0.6 1 second 13 1 171 4 2.32 0.01999831199646 0 1 1 0 0.01107334 0.01111126 0.01259037 0.01131827 0.009306579 1000 0.01107334 0.01111126 0.01259037 0.01131827 0.009306579 1000 0.01596389 0.0156398 0.01766546 0.02045443 0.02321387 1000 0.01596389 0.0156398 0.01766546 0.02045443 0.02321387 1000
lala 9 1.2 0 first 12 1 172 4 7.44 1.77999687194824 0 0 -1 1 0.02409465 0.02337008 0.02164346 1000 1000 1000 0.02409465 0.02337008 0.02164346 1000 1000 1000 0.02654996 0.0272283 0.02701683 0.02666684 0.02695963 1000 0.02654996 0.0272283 0.02701683 0.02666684 0.02695963 1000
lala 6 1.2 1 second 1 1 173 4 4.12 1.79999685287476 -1 1 1 0 0.02430079 0.02447644 0.02497723 0.02520757 0.02516156 1000 0.02430079 0.02447644 0.02497723 0.02520757 0.02516156 1000 0.02406728 0.02282193 0.02216546 0.02203371 0.02212619 1000 0.02406728 0.02282193 0.02216546 0.02203371 0.02212619 1000
lala 10 0.6 0 first 2 1 174 5 9.899999 0.559997797012329 -1 0 -1 0 0.02359877 0.02366619 0.02360406 1000 1000 1000 0.02359877 0.02366619 0.02360406 1000 1000 1000 0.02597902 0.02515857 0.02448932 0.02413473 0.02468583 1000 0.02597902 0.02515857 0.02448932 0.02413473 0.02468583 1000
lala 9 1.2 1 second 11 1 175 6 7.98 2.77999591827393 1 1 1 0 0.02490266 0.02447177 0.02433165 0.02387367 0.02388393 1000 0.02490266 0.02447177 0.02433165 0.02387367 0.02388393 1000 0.02318011 0.02277325 0.02285646 0.0228783 0.02267868 1000 0.02318011 0.02277325 0.02285646 0.0228783 0.02267868 1000
lala 10 0.6 0 first 11 1 176 6 7.380001 0.61999773979187 1 1 -1 1 0.02125427 0.02118788 0.02145678 1000 1000 1000 0.02125427 0.02118788 0.02145678 1000 1000 1000 0.02342301 0.02409923 0.0243216 0.02428742 0.02417485 1000 0.02342301 0.02409923 0.0243216 0.02428742 0.02417485 1000
lala 11 0.6 0 second 13 1 177 4 1.72 0.339998006820679 0 1 -1 0 0.02002388 0.01852193 0.01765816 0.01705533 0.01684328 1000 0.02002388 0.01852193 0.01765816 0.01705533 0.01684328 1000 0.01693707 0.01668819 0.01661621 0.01695489 0.01716898 1000 0.01693707 0.01668819 0.01661621 0.01695489 0.01716898 1000
lala 11 0.6 1 first 5 1 178 6 9.179999 0.61999773979187 -1 1 1 1 0.0176239 0.01763595 0.01742683 1000 1000 1000 0.0176239 0.01763595 0.01742683 1000 1000 1000 0.01861091 0.01859301 0.01890989 0.01888283 0.019 1000 0.01861091 0.01859301 0.01890989 0.01888283 0.019 1000
lala 12 0.3 1 second 15 1 179 5 5.15 0.479997873306274 0 1 1 1 0.02137654 0.02179492 0.02186133 0.02210577 0.02245121 1000 0.02137654 0.02179492 0.02186133 0.02210577 0.02245121 1000 0.02323732 0.02320616 0.02299877 0.02346667 0.0233218 1000 0.02323732 0.02320616 0.02299877 0.02346667 0.0233218 1000
lala 10 1.2 1 first 12 1 180 4 8.639999 0.379997968673706 0 0 1 0 0.02215516 0.02201064 0.02253282 1000 1000 1000 0.02215516 0.02201064 0.02253282 1000 1000 1000 0.02330661 0.02320101 0.02362935 0.02396927 0.02397253 1000 0.02330661 0.02320101 0.02362935 0.02396927 0.02397253 1000
lala 10 1.2 0 second 4 1 181 6 5.16 0.559997797012329 -1 0 -1 1 0.02363606 0.02228544 0.02114028 0.02099543 0.02103675 1000 0.02363606 0.02228544 0.02114028 0.02099543 0.02103675 1000 0.02110784 0.02172289 0.02157682 0.0214493 0.0217829 1000 0.02110784 0.02172289 0.02157682 0.0214493 0.0217829 1000
lala 7 1.2 0 second 1 1 182 4 2.92 0.519997835159302 -1 1 -1 0 0.02161972 0.02178168 0.02265249 0.02263589 0.02236528 1000 0.02161972 0.02178168 0.02265249 0.02263589 0.02236528 1000 0.0223302 0.02217935 0.0219173 0.02133933 0.02174385 1000 0.0223302 0.02217935 0.0219173 0.02133933 0.02174385 1000
lala 14 0.6 0 first 9 1 183 5 7.85 0.559997797012329 1 1 -1 0 0.02187396 0.02236676 0.02211303 1000 1000 1000 0.02187396 0.02236676 0.02211303 1000 1000 1000 0.02287423 0.02325358 0.02345633 0.02322564 0.02310822 1000 0.02287423 0.02325358 0.02345633 0.02322564 0.02310822 1000
lala 15 0.01875 1 second 14 1 184 5 2.90625 1.11999726295471 0 0 1 1 0.02144138 0.0216009 0.02164586 0.0218412 0.02244191 1000 0.02144138 0.0216009 0.02164586 0.0218412 0.02244191 1000 0.02326401 0.02311724 0.02287898 0.02288206 0.02294551 1000 0.02326401 0.02311724 0.02287898 0.02288206 0.02294551 1000
lala 16 0.009375 0 second 14 1 185 5 2.896875 0.939997434616089 0 0 -1 0 0.0239216 0.0234552 0.02295116 0.02333026 0.02349535 1000 0.0239216 0.0234552 0.02295116 0.02333026 0.02349535 1000 0.022978 0.02327739 0.02330998 0.02309035 0.02331286 1000 0.022978 0.02327739 0.02330998 0.02309035 0.02331286 1000
lala 11 0.6 0 second 4 1 186 6 5.76 0.459997892379761 -1 0 -1 0 0.02438226 0.02448109 0.0247688 0.02468704 0.02452237 1000 0.02438226 0.02448109 0.0247688 0.02468704 0.02452237 1000 0.02397635 0.02399555 0.02355018 0.023891 0.02450485 1000 0.02397635 0.02399555 0.02355018 0.023891 0.02450485 1000
lala 11 0.6 0 first 17 1 187 6 2.580001 0.539997816085815 0 1 -1 0 0.02493628 0.02550336 0.02518228 1000 1000 1000 0.02493628 0.02550336 0.02518228 1000 1000 1000 0.0242913 0.02401604 0.02438374 0.02431806 0.02399498 1000 0.0242913 0.02401604 0.02438374 0.02431806 0.02399498 1000
lala 2 1.2 1 first 7 1 188 4 6.52 1.57999682426453 1 1 1 1 0.02324975 0.02397765 0.02423468 1000 1000 1000 0.02324975 0.02397765 0.02423468 1000 1000 1000 0.02463496 0.02418905 0.02426089 0.02402203 0.02398274 1000 0.02463496 0.02418905 0.02426089 0.02402203 0.02398274 1000
lala 15 0.6 1 first 9 1 189 5 8.450001 0.539997816085815 1 1 1 1 0.02190326 0.02139159 0.02224986 1000 1000 1000 0.02190326 0.02139159 0.02224986 1000 1000 1000 0.02398924 0.02366408 0.02356943 0.02368779 0.0237371 1000 0.02398924 0.02366408 0.02356943 0.02368779 0.0237371 1000
lala 8 1.2 0 first 0 1 190 4 6.24 0.39999794960022 -1 0 -1 1 0.02409013 0.02376808 0.0235969 1000 1000 1000 0.02409013 0.02376808 0.0235969 1000 1000 1000 0.0226874 0.02273244 0.02332643 0.02323419 0.02308168 1000 0.0226874 0.02273244 0.02332643 0.02323419 0.02308168 1000
lala 12 0.6 1 second 17 1 191 6 3.180001 0.0399982929229736 0 1 1 0 0.02479442 0.02410461 0.02360465 0.02368945 0.02400053 1000 0.02479442 0.02410461 0.02360465 0.02368945 0.02400053 1000 0.02391132 0.02383376 0.02374018 0.02404383 0.02382862 1000 0.02391132 0.02383376 0.02374018 0.02404383 0.02382862 1000
lala 17 0.0046875 0 first 14 1 192 5 2.901562 0.579997777938843 0 0 -1 0 0.02451537 0.02478213 0.02493002 1000 1000 1000 0.02451537 0.02478213 0.02493002 1000 1000 1000 0.02663952 0.02641775 0.02636906 0.02648994 0.02660187 1000 0.02663952 0.02641775 0.02636906 0.02648994 0.02660187 1000
lala 16 0.3 1 first 9 1 193 5 8.150001 2.07999658584595 1 1 1 0 0.02439696 0.0245142 0.02491437 1000 1000 1000 0.02439696 0.0245142 0.02491437 1000 1000 1000 0.02463548 0.02497944 0.02514536 0.0250319 0.024961 1000 0.02463548 0.02497944 0.02514536 0.0250319 0.024961 1000
lala 11 0.6 1 second 16 1 194 6 4.56 0.559997797012329 0 0 1 1 0.02198473 0.02210462 0.02218973 0.02222025 0.02219866 1000 0.02198473 0.02210462 0.02218973 0.02222025 0.02219866 1000 0.02267627 0.02295638 0.0233139 0.02303832 0.02285255 1000 0.02267627 0.02295638 0.0233139 0.02303832 0.02285255 1000
lala 7 1.2 0 second 10 1 195 6 3.18 1.65999698638916 1 0 -1 1 0.02240772 0.02276103 0.02294791 0.0229322 0.0230375 1000 0.02240772 0.02276103 0.02294791 0.0229322 0.0230375 1000 0.02385599 0.02367942 0.02363012 0.02385645 0.02370032 1000 0.02385599 0.02367942 0.02363012 0.02385645 0.02370032 1000
lala 8 1.2 0 second 10 1 196 6 4.38 1.61999702453613 1 0 -1 0 0.02339469 0.0235062 0.02391686 0.02403185 0.0238382 1000 0.02339469 0.0235062 0.02391686 0.02403185 0.0238382 1000 0.02371164 0.02338101 0.02316232 0.02363257 0.02363371 1000 0.02371164 0.02338101 0.02316232 0.02363257 0.02363371 1000
lala 3 1.2 1 second 7 1 197 4 5.320001 0.299998044967651 1 1 1 0 0.02171873 0.02197708 0.02210084 0.02224922 0.02232415 1000 0.02171873 0.02197708 0.02210084 0.02224922 0.02232415 1000 0.02220116 0.02231619 0.02300516 0.02308031 0.02284311 1000 0.02220116 0.02231619 0.02300516 0.02308031 0.02284311 1000
lala 17 0.3 0 second 9 1 198 5 7.85 1.97999668121338 1 1 -1 1 0.02419332 0.02381485 0.02367282 0.02387593 0.02371722 1000 0.02419332 0.02381485 0.02367282 0.02387593 0.02371722 1000 0.02212618 0.02279391 0.02289317 0.02302833 0.02342608 1000 0.02212618 0.02279391 0.02289317 0.02302833 0.02342608 1000
lala 12 0.3 0 second 13 1 199 4 2.02 0.359997987747192 0 1 -1 0 0.02332338 0.0236785 0.02381429 0.02355152 0.0232614 1000 0.02332338 0.0236785 0.02381429 0.02355152 0.0232614 1000 0.02368576 0.02341769 0.02382472 0.02427526 0.02434658 1000 0.02368576 0.02341769 0.02382472 0.02427526 0.02434658 1000
lala 8 1.2 0 first 1 1 200 4 4.12 0.679997682571411 -1 1 -1 0 0.003908496 0.007331148 0.01202893 0.01461159 0.02045375 0.02046367 0.003908496 0.007331148 0.01202893 0.01461159 0.02045375 0.02046367 0.01622327 0.01662564 0.01654484 0.01682858 0.01744877 1000 0.01622327 0.01662564 0.01654484 0.01682858 0.01744877 1000
lala 12 0.6 1 second 4 1 201 6 6.36 0.61999773979187 -1 0 1 0 0.02052076 0.02055922 0.0209633 0.02127266 0.02125517 1000 0.02052076 0.02055922 0.0209633 0.02127266 0.02125517 1000 0.0236029 0.02361795 0.02370907 0.02374725 0.02385371 1000 0.0236029 0.02361795 0.02370907 0.02374725 0.02385371 1000
lala 4 1.2 0 second 7 1 202 4 4.120001 1.7199969291687 1 1 -1 1 0.02315516 0.02376126 0.0240549 0.02416602 0.02445662 1000 0.02315516 0.02376126 0.0240549 0.02416602 0.02445662 1000 0.02511021 0.02511477 0.0249873 0.02416991 0.02310375 1000 0.02511021 0.02511477 0.0249873 0.02416991 0.02310375 1000
lala 9 1.2 1 second 8 1 203 5 5.25 0.279998064041138 1 0 1 1 0.02484459 0.02504181 0.02494016 0.02449459 0.02449129 1000 0.02484459 0.02504181 0.02494016 0.02449459 0.02449129 1000 0.02461995 0.02503655 0.02562664 0.02574121 0.02563675 1000 0.02461995 0.02503655 0.02562664 0.02574121 0.02563675 1000
lala 11 0.3 1 second 2 1 204 5 10.2 1.31999707221985 -1 0 1 1 0.01891904 0.01756424 0.02119569 0.02303214 0.02223154 1000 0.01891904 0.01756424 0.02119569 0.02303214 0.02223154 1000 0.02323142 0.02287445 0.02291822 0.02345632 0.023448 1000 0.02323142 0.02287445 0.02291822 0.02345632 0.023448 1000
lala 11 0.3 0 first 11 1 205 6 7.680001 0.579997777938843 1 1 -1 0 0.02479141 0.02348382 0.02119299 1000 1000 1000 0.02479141 0.02348382 0.02119299 1000 1000 1000 0.01494871 0.01469658 0.01513312 0.01520122 0.01534018 1000 0.01494871 0.01469658 0.01513312 0.01520122 0.01534018 1000
lala 13 0.3 1 first 4 1 206 6 6.059999 1.25999712944031 -1 0 1 1 0.01631716 0.01659878 0.0167668 1000 1000 1000 0.01631716 0.01659878 0.0167668 1000 1000 1000 0.01789755 0.01776673 0.01782132 0.01802726 0.01768153 1000 0.01789755 0.01776673 0.01782132 0.01802726 0.01768153 1000
lala 9 1.2 0 first 1 1 207 4 5.32 0.219998121261597 -1 1 -1 0 0.01379238 0.01457451 0.01605576 1000 1000 1000 0.01379238 0.01457451 0.01605576 1000 1000 1000 0.01643937 0.01658169 0.01650111 0.01626053 0.0162935 1000 0.01643937 0.01658169 0.01650111 0.01626053 0.0162935 1000
lala 9 1.2 0 first 0 1 208 4 7.44 0.179998159408569 -1 0 -1 0 0.01615233 0.01643726 0.01612754 1000 1000 1000 0.01615233 0.01643726 0.01612754 1000 1000 1000 0.01768905 0.0181028 0.01831898 0.01811523 0.01827869 1000 0.01768905 0.0181028 0.01831898 0.01811523 0.01827869 1000
lala 13 0.15 1 second 15 1 209 5 5 0.01999831199646 0 1 1 1 0.01953776 0.02005568 0.01987248 0.01957155 0.0201163 1000 0.01953776 0.02005568 0.01987248 0.01957155 0.0201163 1000 0.02119675 0.02135123 0.02213635 0.0218392 0.02178403 1000 0.02119675 0.02135123 0.02213635 0.0218392 0.02178403 1000
lala 12 0.3 0 first 11 1 210 6 7.980001 0.01999831199646 1 1 -1 1 0.02203586 0.02198243 0.02197221 1000 1000 1000 0.02203586 0.02198243 0.02197221 1000 1000 1000 0.02516415 0.02600714 0.02636936 0.02614144 0.02565497 1000 0.02516415 0.02600714 0.02636936 0.02614144 0.02565497 1000
lala 10 2.4 0 second 1 1 211 4 7.72 0.199998140335083 -1 1 -1 1 0.02139388 0.0211438 0.02103212 0.02063835 0.02081202 1000 0.02139388 0.0211438 0.02103212 0.02063835 0.02081202 1000 0.02044925 0.02046693 0.02029122 0.02051302 0.02037093 1000 0.02044925 0.02046693 0.02029122 0.02051302 0.02037093 1000
lala 10 2.4 0 first 0 1 212 4 9.84 0.179998159408569 -1 0 -1 0 0.02088836 0.02121238 0.02116348 1000 1000 1000 0.02088836 0.02121238 0.02116348 1000 1000 1000 0.02133475 0.02128629 0.02182933 0.02083917 0.02090675 1000 0.02133475 0.02128629 0.02182933 0.02083917 0.02090675 1000
lala 10 0.6 0 first 8 1 213 5 4.65 0.439997911453247 1 0 -1 1 0.02156823 0.02242154 0.02172832 1000 1000 1000 0.02156823 0.02242154 0.02172832 1000 1000 1000 0.01918121 0.01843385 0.01815715 0.0181649 0.01787964 1000 0.01918121 0.01843385 0.01815715 0.0181649 0.01787964 1000
lala 13 0.3 0 second 13 1 214 4 2.32 0.919997453689575 0 1 -1 1 0.01768346 0.01751557 0.01784316 0.0182369 0.01793034 1000 0.01768346 0.01751557 0.01784316 0.0182369 0.01793034 1000 0.01743497 0.01761681 0.01748652 0.01751157 0.01777492 1000 0.01743497 0.01761681 0.01748652 0.01751157 0.01777492 1000
lala 14 0.3 1 second 4 1 215 6 5.759999 1.33999705314636 -1 0 1 1 0.01667405 0.01640274 0.01692967 0.01727626 0.01707379 1000 0.01667405 0.01640274 0.01692967 0.01727626 0.01707379 1000 0.01673959 0.01643989 0.0166817 0.0170428 0.01684861 1000 0.01673959 0.01643989 0.0166817 0.0170428 0.01684861 1000
lala 9 1.2 0 second 10 1 216 6 5.58 0.699997663497925 1 0 -1 0 0.01699692 0.01637478 0.01630135 0.01711485 0.01798035 1000 0.01699692 0.01637478 0.01630135 0.01711485 0.01798035 1000 0.01830421 0.01807862 0.01820152 0.01811299 0.01853682 1000 0.01830421 0.01807862 0.01820152 0.01811299 0.01853682 1000
lala 10 2.4 1 second 10 1 217 6 7.98 0.359997987747192 1 0 1 1 0.01818227 0.01803679 0.01847157 0.01804724 0.01808944 1000 0.01818227 0.01803679 0.01847157 0.01804724 0.01808944 1000 0.01908685 0.01911779 0.0189417 0.0188686 0.018895 1000 0.01908685 0.01911779 0.0189417 0.0188686 0.018895 1000
lala 13 0.3 1 second 11 1 218 6 8.280001 0.539997816085815 1 1 1 0 0.02043566 0.02100616 0.02125937 0.02041155 0.01943184 1000 0.02043566 0.02100616 0.02125937 0.02041155 0.01943184 1000 0.01946078 0.01891267 0.01890541 0.01828153 0.01752508 1000 0.01946078 0.01891267 0.01890541 0.01828153 0.01752508 1000
lala 12 0.6 1 first 16 1 219 6 3.96 0.719997644424438 0 0 1 0 0.01842605 0.01896533 0.0193438 1000 1000 1000 0.01842605 0.01896533 0.0193438 1000 1000 1000 0.01985964 0.02007031 0.02010625 0.02008167 0.0202043 1000 0.01985964 0.02007031 0.02010625 0.02008167 0.0202043 1000
lala 18 0.15 1 first 9 1 220 5 8 1.89999675750732 1 1 1 1 0.01931226 0.02002138 0.02049096 1000 1000 1000 0.01931226 0.02002138 0.02049096 1000 1000 1000 0.02057541 0.02033973 0.02052549 0.02051248 0.02053306 1000 0.02057541 0.02033973 0.02052549 0.02051248 0.02053306 1000
lala 11 0.6 1 first 12 1 221 4 8.039999 0.199998140335083 0 0 1 1 0.02094469 0.02133069 0.0214306 1000 1000 1000 0.02094469 0.02133069 0.0214306 1000 1000 1000 0.02109768 0.02119496 0.02108451 0.02102338 0.02175575 1000 0.02109768 0.02119496 0.02108451 0.02102338 0.02175575 1000
lala 14 0.15 1 second 11 1 222 6 8.130001 0.419997930526733 1 1 1 1 0.02193146 0.02229708 0.02350469 0.02383748 0.02451658 1000 0.02193146 0.02229708 0.02350469 0.02383748 0.02451658 1000 0.02336018 0.01933231 0.01986794 0.01979824 0.02046229 1000 0.02336018 0.01933231 0.01986794 0.01979824 0.02046229 1000
lala 13 0.3 0 first 17 1 223 6 2.880001 0.579997777938843 0 1 -1 1 0.0207177 0.02094225 0.02170589 1000 1000 1000 0.0207177 0.02094225 0.02170589 1000 1000 1000 0.02221102 0.02200888 0.02216296 0.02201617 0.02228971 1000 0.02221102 0.02200888 0.02216296 0.02201617 0.02228971 1000
lala 20 0.3 0 second 6 1 224 4 3.045 0.39999794960022 1 0 -1 1 0.02314955 0.02307705 0.0229666 0.02297133 0.02274121 1000 0.02314955 0.02307705 0.0229666 0.02297133 0.02274121 1000 0.02301517 0.02309763 0.02270149 0.02245456 0.02262866 1000 0.02301517 0.02309763 0.02270149 0.02245456 0.02262866 1000
lala 11 0.3 1 second 8 1 225 5 4.95 1.17999720573425 1 0 1 1 0.02329017 0.02397193 0.02438488 0.0246958 0.02405083 1000 0.02329017 0.02397193 0.02438488 0.0246958 0.02405083 1000 0.02297702 0.02283847 0.02284863 0.02341049 0.02399173 1000 0.02297702 0.02283847 0.02284863 0.02341049 0.02399173 1000
lala 18 0.0046875 0 first 14 1 226 5 2.90625 1.35999703407288 0 0 -1 0 0.02315304 0.02331012 0.02369829 1000 1000 1000 0.02315304 0.02331012 0.02369829 1000 1000 1000 0.02391494 0.02347578 0.02370019 0.02427466 0.02413471 1000 0.02391494 0.02347578 0.02370019 0.02427466 0.02413471 1000
lala 14 0.075 1 second 3 1 227 5 6.125 0.759997606277466 -1 1 1 0 0.02453523 0.02474358 0.02553042 0.02565718 0.02560276 1000 0.02453523 0.02474358 0.02553042 0.02565718 0.02560276 1000 0.02638614 0.02677518 0.02655692 0.02721174 0.02714267 1000 0.02638614 0.02677518 0.02655692 0.02721174 0.02714267 1000
lala 12 0.15 1 second 2 1 228 5 10.05 2.35999631881714 -1 0 1 1 0.02510007 0.02495075 0.02481272 0.0247176 0.02467352 1000 0.02510007 0.02495075 0.02481272 0.0247176 0.02467352 1000 0.02440831 0.02480291 0.02464318 0.02462862 0.02442652 1000 0.02440831 0.02480291 0.02464318 0.02462862 0.02442652 1000
lala 15 0.0375 1 second 3 1 229 5 6.0875 0.739997625350952 -1 1 1 1 0.02259776 0.02279907 0.02329323 0.02377442 0.02404859 1000 0.02259776 0.02279907 0.02329323 0.02377442 0.02404859 1000 0.02479316 0.0248772 0.02452527 0.02482111 0.0251942 1000 0.02479316 0.0248772 0.02452527 0.02482111 0.0251942 1000
lala 12 0.6 1 second 5 1 230 6 8.579999 0.419997930526733 -1 1 1 0 0.02417004 0.02402745 0.02423719 0.02389072 0.02326054 1000 0.02417004 0.02402745 0.02423719 0.02389072 0.02326054 1000 0.02374548 0.02394382 0.02441889 0.02437227 0.02427169 1000 0.02374548 0.02394382 0.02441889 0.02437227 0.02427169 1000
lala 15 0.15 1 second 11 1 231 6 7.980001 0.379997968673706 1 1 1 1 0.02446095 0.02399174 0.02357752 0.02389092 0.02341992 1000 0.02446095 0.02399174 0.02357752 0.02389092 0.02341992 1000 0.0218044 0.02153633 0.02137032 0.02113577 0.02133093 1000 0.0218044 0.02153633 0.02137032 0.02113577 0.02133093 1000
lala 14 0.15 0 first 17 1 232 6 3.030001 0.219998121261597 0 1 -1 1 0.0209743 0.02102783 0.02149457 1000 1000 1000 0.0209743 0.02102783 0.02149457 1000 1000 1000 0.02276669 0.02278015 0.02312234 0.02296246 0.02274529 1000 0.02276669 0.02278015 0.02312234 0.02296246 0.02274529 1000
lala 12 0.15 1 second 8 1 233 5 4.8 0.419997930526733 1 0 1 1 0.02302361 0.02313495 0.02320314 0.02313907 0.02314204 1000 0.02302361 0.02313495 0.02320314 0.02313907 0.02314204 1000 0.02452262 0.02489139 0.02524636 0.02527386 0.02523321 1000 0.02452262 0.02489139 0.02524636 0.02527386 0.02523321 1000
lala 13 0.15 0 first 8 1 234 5 4.65 0.219998121261597 1 0 -1 0 0.02441151 0.02402393 0.02365762 1000 1000 1000 0.02441151 0.02402393 0.02365762 1000 1000 1000 0.01791478 0.01811186 0.01830098 0.01785774 0.01764257 1000 0.01791478 0.01811186 0.01830098 0.01785774 0.01764257 1000
lala 5 1.2 1 first 7 1 235 4 5.320001 0.459997892379761 1 1 1 1 0.01990757 0.01813494 0.01563389 1000 1000 1000 0.01990757 0.01813494 0.01563389 1000 1000 1000 0.01988845 0.01691779 0.01620034 0.01515309 0.01333376 1000 0.01988845 0.01691779 0.01620034 0.01515309 0.01333376 1000
lala 19 0.075 1 first 9 1 236 5 7.925 0.659997701644897 1 1 1 0 0.007799963 0.008903581 0.009188544 1000 1000 1000 0.007799963 0.008903581 0.009188544 1000 1000 1000 0.009714994 0.009977283 0.009579143 0.009284847 0.009527394 1000 0.009714994 0.009977283 0.009579143 0.009284847 0.009527394 1000
lala 14 0.3 1 first 13 1 237 4 2.62 0.01999831199646 0 1 1 0 0.007829064 0.007707375 0.007688247 1000 1000 1000 0.007829064 0.007707375 0.007688247 1000 1000 1000 0.007985757 0.007902544 0.007608109 0.00804938 0.008246654 1000 0.007985757 0.007902544 0.007608109 0.00804938 0.008246654 1000
lala 11 4.8 0 first 1 1 238 4 12 0.39999794960022 -1 1 -1 0 0.007794727 0.008272101 0.008134766 1000 1000 1000 0.007794727 0.008272101 0.008134766 1000 1000 1000 0.00965345 0.009643593 0.009963781 0.01013529 0.01037603 1000 0.00965345 0.009643593 0.009963781 0.01013529 0.01037603 1000
lala 16 0.15 1 second 11 1 239 6 7.830001 0.439997911453247 1 1 1 1 0.01038656 0.01123798 0.01136 0.01118032 0.01074586 1000 0.01038656 0.01123798 0.01136 0.01118032 0.01074586 1000 0.01176373 0.01172976 0.01174373 0.01174305 0.01165442 1000 0.01176373 0.01172976 0.01174373 0.01174305 0.01165442 1000
lala 20 0.075 1 second 9 1 240 5 7.85 0.39999794960022 1 1 1 1 0.01142655 0.01118226 0.01121454 0.01084916 0.01117708 1000 0.01142655 0.01118226 0.01121454 0.01084916 0.01117708 1000 0.01119049 0.01141654 0.01165936 0.01145733 0.01167546 1000 0.01119049 0.01141654 0.01165936 0.01145733 0.01167546 1000
lala 21 0.6 0 first 6 1 241 4 3.645 1.19999718666077 1 0 -1 1 0.01183428 0.01229967 0.01262584 1000 1000 1000 0.01183428 0.01229967 0.01262584 1000 1000 1000 0.01391735 0.01411751 0.01452725 0.01446846 0.01430015 1000 0.01391735 0.01411751 0.01452725 0.01446846 0.01430015 1000
lala 14 0.15 1 first 15 1 242 5 4.85 1.17999720573425 0 1 1 1 0.0151828 0.01547211 0.0151141 1000 1000 1000 0.0151828 0.01547211 0.0151141 1000 1000 1000 0.01510184 0.01524183 0.01506536 0.01516382 0.01551685 1000 0.01510184 0.01524183 0.01506536 0.01516382 0.01551685 1000
lala 12 0.6 1 first 12 1 243 4 7.439999 0.919997453689575 0 0 1 1 0.01591981 0.01651029 0.01641056 1000 1000 1000 0.01591981 0.01651029 0.01641056 1000 1000 1000 0.01630219 0.01637243 0.01629322 0.01648128 0.01645008 1000 0.01630219 0.01637243 0.01629322 0.01648128 0.01645008 1000
lala 13 0.6 0 first 16 1 244 6 3.36 2.27999639511108 0 0 -1 1 0.0162089 0.0163484 0.01695857 1000 1000 1000 0.0162089 0.0163484 0.01695857 1000 1000 1000 0.01684524 0.01675968 0.01649133 0.01643924 0.01644454 1000 0.01684524 0.01675968 0.01649133 0.01643924 0.01644454 1000
lala 21 0.075 0 first 9 1 245 5 7.775001 0.979997396469116 1 1 -1 1 0.004928299 0.005813512 0.007874395 1000 1000 1000 0.004928299 0.005813512 0.007874395 1000 1000 1000 0.01521024 0.01502585 0.0156569 0.01626751 0.01581678 1000 0.01521024 0.01502585 0.0156569 0.01626751 0.01581678 1000
lala 13 0.15 0 first 2 1 246 5 9.9 1.37999701499939 -1 0 -1 1 0.01348904 0.01118635 0.007499499 1000 1000 1000 0.01348904 0.01118635 0.007499499 1000 1000 1000 0.01920507 0.01806291 0.01467839 0.01340888 0.01358197 1000 0.01920507 0.01806291 0.01467839 0.01340888 0.01358197 1000
lala 12 9.6 0 first 1 1 247 4 12 0.959997415542603 -1 1 -1 1 0.02332243 0.02423882 0.02423048 1000 1000 1000 0.02332243 0.02423882 0.02423048 1000 1000 1000 0.02471351 0.02514011 0.02551722 0.02566284 0.0263026 1000 0.02471351 0.02514011 0.02551722 0.02566284 0.0263026 1000
lala 11 4.8 1 second 0 1 248 4 12 0.319998025894165 -1 0 1 1 0.02042173 0.02038951 0.02030811 0.01998523 0.01942521 1000 0.02042173 0.02038951 0.02030811 0.01998523 0.01942521 1000 0.01976886 0.01979458 0.01910505 0.01875529 0.01884348 1000 0.01976886 0.01979458 0.01910505 0.01875529 0.01884348 1000
lala 13 0.6 1 second 12 1 249 4 6.839999 0.559997797012329 0 0 1 1 0.01864775 0.01871899 0.0188098 0.01918969 0.0193413 1000 0.01864775 0.01871899 0.0188098 0.01918969 0.0193413 1000 0.01985826 0.02032745 0.0201315 0.02018665 0.0203305 1000 0.01985826 0.02032745 0.0201315 0.02018665 0.0203305 1000
lala 14 0.075 1 first 8 1 250 5 4.725 0.61999773979187 1 0 1 1 -0.01338671 -0.002226628 0.005759241 0.01299268 0.02374808 0.02153348 -0.01338671 -0.002226628 0.005759241 0.01299268 0.02374808 0.02153348 0.02322973 0.02390818 0.02425704 0.02519576 0.02497292 1000 0.02322973 0.02390818 0.02425704 0.02519576 0.02497292 1000
lala 14 0.3 0 second 16 1 251 6 3.66 0.979997396469116 0 0 -1 0 0.01867371 0.01788099 0.0182799 0.01836868 0.01830497 1000 0.01867371 0.01788099 0.0182799 0.01836868 0.01830497 1000 0.01819071 0.01857368 0.01941126 0.02030217 0.02078194 1000 0.01819071 0.01857368 0.01941126 0.02030217 0.02078194 1000
lala 11 1.2 1 second 10 1 252 6 6.78 0.719997644424438 1 0 1 0 0.02464139 0.02503832 0.02544622 0.02584371 0.0256571 1000 0.02464139 0.02503832 0.02544622 0.02584371 0.0256571 1000 0.02689581 0.02700274 0.02704139 0.02728219 0.02728923 1000 0.02689581 0.02700274 0.02704139 0.02728219 0.02728923 1000
lala 15 0.15 0 second 17 1 253 6 3.180001 1.25999712944031 0 1 -1 1 0.01884468 0.01654397 0.01524169 0.01493474 0.01488596 1000 0.01884468 0.01654397 0.01524169 0.01493474 0.01488596 1000 0.01252118 0.01293003 0.01289029 0.01309561 0.01301037 1000 0.01252118 0.01293003 0.01289029 0.01309561 0.01301037 1000
lala 22 0.0375 0 second 9 1 254 5 7.8125 1.31999707221985 1 1 -1 0 0.01529296 0.01570641 0.01590688 0.01615527 0.01603583 1000 0.01529296 0.01570641 0.01590688 0.01615527 0.01603583 1000 0.01693166 0.01725811 0.01697956 0.01704295 0.01716755 1000 0.01693166 0.01725811 0.01697956 0.01704295 0.01716755 1000
lala 15 0.3 0 first 4 1 255 6 5.459999 0.439997911453247 -1 0 -1 0 0.02050417 0.02107153 0.02138833 1000 1000 1000 0.02050417 0.02107153 0.02138833 1000 1000 1000 0.02123755 0.02097241 0.02105509 0.02079709 0.02057966 1000 0.02123755 0.02097241 0.02105509 0.02079709 0.02057966 1000
lala 16 0.15 0 first 4 1 256 6 5.609999 0.379997968673706 -1 0 -1 1 0.02000616 0.02032121 0.02087267 1000 1000 1000 0.02000616 0.02032121 0.02087267 1000 1000 1000 0.02339065 0.02317102 0.02322055 0.0227859 0.02272129 1000 0.02339065 0.02317102 0.02322055 0.0227859 0.02272129 1000
lala 13 1.2 0 second 5 1 257 6 7.379999 1.35999703407288 -1 1 -1 1 0.0216209 0.02190935 0.02267828 0.0225706 0.02223098 1000 0.0216209 0.02190935 0.02267828 0.0225706 0.02223098 1000 0.02455845 0.02436627 0.02395007 0.0241455 0.02418351 1000 0.02455845 0.02436627 0.02395007 0.0241455 0.02418351 1000
lala 14 0.6 0 first 5 1 258 6 7.979999 0.39999794960022 -1 1 -1 1 0.02242436 0.02230023 0.02219832 1000 1000 1000 0.02242436 0.02230023 0.02219832 1000 1000 1000 0.02141963 0.02127923 0.02113642 0.0208017 0.02002281 1000 0.02141963 0.02127923 0.02113642 0.0208017 0.02002281 1000
lala 15 0.15 1 first 13 1 259 4 2.47 0.01999831199646 0 1 1 1 0.02050731 0.01921434 0.01691625 1000 1000 1000 0.02050731 0.01921434 0.01691625 1000 1000 1000 0.01261671 0.01255956 0.01309499 0.01355262 0.01328636 1000 0.01261671 0.01255956 0.01309499 0.01355262 0.01328636 1000
lala 12 2.4 1 second 0 1 260 4 9.6 1.55999684333801 -1 0 1 1 0.013613 0.01383284 0.0136237 0.01390409 0.01414863 1000 0.013613 0.01383284 0.0136237 0.01390409 0.01414863 1000 0.01418635 0.01402218 0.0135909 0.0137025 0.01302316 1000 0.01418635 0.01402218 0.0135909 0.0137025 0.01302316 1000
lala 15 0.3 1 first 16 1 261 6 3.96 0.61999773979187 0 0 1 1 0.01400531 0.01400136 0.01442008 1000 1000 1000 0.01400531 0.01400136 0.01442008 1000 1000 1000 0.01462512 0.01456388 0.0144687 0.01442001 0.01415729 1000 0.01462512 0.01456388 0.0144687 0.01442001 0.01415729 1000
lala 12 1.2 1 first 10 1 262 6 5.58 1.59999680519104 1 0 1 1 0.01406902 0.01433356 0.01438365 1000 1000 1000 0.01406902 0.01433356 0.01438365 1000 1000 1000 0.01565583 0.01592485 0.01610086 0.01579023 0.0156266 1000 0.01565583 0.01592485 0.01610086 0.01579023 0.0156266 1000
lala 15 0.0375 1 second 8 1 263 5 4.6875 0.839997529983521 1 0 1 1 0.01643378 0.01682509 0.0170059 0.01691313 0.01725746 1000 0.01643378 0.01682509 0.0170059 0.01691313 0.01725746 1000 0.01684185 0.0170699 0.0175707 0.0173126 0.0170489 1000 0.01684185 0.0170699 0.0175707 0.0173126 0.0170489 1000
lala 16 0.0375 1 second 3 1 264 5 6.05 2.75999593734741 -1 1 1 0 0.01694262 0.01766001 0.01780047 0.01740872 0.01753178 1000 0.01694262 0.01766001 0.01780047 0.01740872 0.01753178 1000 0.01874867 0.01900462 0.01925358 0.01926956 0.01930966 1000 0.01874867 0.01900462 0.01925358 0.01926956 0.01930966 1000
lala 13 1.2 0 second 10 1 265 6 4.38 0.939997434616089 1 0 -1 1 0.0190877 0.01892052 0.01934489 0.01937299 0.0190902 1000 0.0190877 0.01892052 0.01934489 0.01937299 0.0190902 1000 0.01947354 0.0191793 0.01958345 0.0191859 0.01938109 1000 0.01947354 0.0191793 0.01958345 0.0191859 0.01938109 1000
lala 14 0.075 0 first 2 1 266 5 9.974999 1.17999720573425 -1 0 -1 0 0.01985416 0.02060916 0.02044692 1000 1000 1000 0.01985416 0.02060916 0.02044692 1000 1000 1000 0.02043939 0.02037629 0.02054892 0.02056319 0.02043613 1000 0.02043939 0.02037629 0.02054892 0.02056319 0.02043613 1000
lala 13 2.4 1 second 0 1 267 4 7.2 0.899997472763062 -1 0 1 0 0.02080931 0.02073783 0.02146987 0.0216899 0.02187525 1000 0.02080931 0.02073783 0.02146987 0.0216899 0.02187525 1000 0.02282725 0.02271655 0.02269475 0.0230985 0.02309593 1000 0.02282725 0.02271655 0.02269475 0.0230985 0.02309593 1000
lala 15 0.15 1 second 15 1 268 5 4.7 2.45999622344971 0 1 1 1 0.0244681 0.02458767 0.02311001 0.02645013 0.03017547 1000 0.0244681 0.02458767 0.02311001 0.02645013 0.03017547 1000 0.03347517 0.03184098 0.02898024 0.02819439 0.02687711 1000 0.03347517 0.03184098 0.02898024 0.02819439 0.02687711 1000
lala 15 0.075 0 first 2 1 269 5 10.05 0.739997625350952 -1 0 -1 0 0.02270084 0.02285721 0.02338032 1000 1000 1000 0.02270084 0.02285721 0.02338032 1000 1000 1000 0.02588711 0.02537371 0.02436756 0.02424678 0.02413458 1000 0.02588711 0.02537371 0.02436756 0.02424678 0.02413458 1000
lala 16 0.15 0 first 13 1 270 4 2.319999 0.01999831199646 0 1 -1 1 0.01434081 0.01433091 0.01418352 1000 1000 1000 0.01434081 0.01433091 0.01418352 1000 1000 1000 0.01672104 0.01658292 0.01664757 0.01686478 0.01657876 1000 0.01672104 0.01658292 0.01664757 0.01686478 0.01657876 1000
lala 17 0.0375 1 second 3 1 271 5 6.0125 2.43999624252319 -1 1 1 1 0.01776183 0.01743541 0.01739484 0.01745533 0.01727084 1000 0.01776183 0.01743541 0.01739484 0.01745533 0.01727084 1000 0.01975285 0.01850514 0.01829938 0.01827249 0.01836487 1000 0.01975285 0.01850514 0.01829938 0.01827249 0.01836487 1000
lala 17 0.15 0 second 4 1 272 6 5.759999 0.699997663497925 -1 0 -1 1 0.02003339 0.0199105 0.02002908 0.02020789 0.02036438 1000 0.02003339 0.0199105 0.02002908 0.02020789 0.02036438 1000 0.02255058 0.02248545 0.02251635 0.0225766 0.02324115 1000 0.02255058 0.02248545 0.02251635 0.0225766 0.02324115 1000
lala 6 1.2 0 second 7 1 273 4 4.120001 0.719997644424438 1 1 -1 1 0.02547796 0.02507551 0.02440415 0.02420338 0.02394274 1000 0.02547796 0.02507551 0.02440415 0.02420338 0.02394274 1000 0.02193479 0.02259122 0.02303411 0.02326097 0.02311511 1000 0.02193479 0.02259122 0.02303411 0.02326097 0.02311511 1000
lala 18 0.075 0 second 3 1 274 5 5.9375 2.03999662399292 -1 1 -1 1 0.02316684 0.023685 0.02416909 0.02394368 0.02376126 1000 0.02316684 0.023685 0.02416909 0.02394368 0.02376126 1000 0.02358934 0.02321023 0.0234911 0.02399523 0.02441451 1000 0.02358934 0.02321023 0.0234911 0.02399523 0.02441451 1000
lala 19 0.0375 0 first 3 1 275 5 5.975 0.819997549057007 -1 1 -1 0 0.02296597 0.02261547 0.02301128 1000 1000 1000 0.02296597 0.02261547 0.02301128 1000 1000 1000 0.02401783 0.02397911 0.02401642 0.02380928 0.02410409 1000 0.02401783 0.02397911 0.02401642 0.02380928 0.02410409 1000
lala 16 0.0375 1 second 8 1 276 5 4.65 0.379997968673706 1 0 1 0 0.02375928 0.02361621 0.02310814 0.02339061 0.02379942 1000 0.02375928 0.02361621 0.02310814 0.02339061 0.02379942 1000 0.0241458 0.02377942 0.02380557 0.02445374 0.02438286 1000 0.0241458 0.02377942 0.02380557 0.02445374 0.02438286 1000
lala 14 1.2 1 second 12 1 277 4 5.639999 0.179998159408569 0 0 1 0 0.02443298 0.02423221 0.02416946 0.02372125 0.02328386 1000 0.02443298 0.02423221 0.02416946 0.02372125 0.02328386 1000 0.02147028 0.02185497 0.02160363 0.02200722 0.02236503 1000 0.02147028 0.02185497 0.02160363 0.02200722 0.02236503 1000
lala 15 0.6 0 first 5 1 278 6 8.579999 0.519997835159302 -1 1 -1 1 0.02279829 0.02276706 0.0229427 1000 1000 1000 0.02279829 0.02276706 0.0229427 1000 1000 1000 0.02427691 0.02440225 0.02403964 0.02455775 0.02511191 1000 0.02427691 0.02440225 0.02403964 0.02455775 0.02511191 1000
lala 16 0.3 1 second 15 1 279 5 4.4 0.139998197555542 0 1 1 0 0.02288972 0.02256761 0.02277372 0.02282739 0.02292667 1000 0.02288972 0.02256761 0.02277372 0.02282739 0.02292667 1000 0.02400517 0.02450887 0.02468388 0.02473818 0.02472235 1000 0.02400517 0.02450887 0.02468388 0.02473818 0.02472235 1000
lala 16 0.6 1 first 5 1 280 6 9.179999 0.499997854232788 -1 1 1 1 0.02489223 0.02495908 0.0250542 1000 1000 1000 0.02489223 0.02495908 0.0250542 1000 1000 1000 0.02077598 0.02054967 0.02087389 0.02126709 0.02135932 1000 0.02077598 0.02054967 0.02087389 0.02126709 0.02135932 1000
lala 16 0.15 1 second 16 1 281 6 3.81 0.01999831199646 0 0 1 0 0.02178789 0.02175614 0.0222483 0.02236282 0.02259972 1000 0.02178789 0.02175614 0.0222483 0.02236282 0.02259972 1000 0.02251149 0.02200342 0.0217347 0.02167341 0.02107237 1000 0.02251149 0.02200342 0.0217347 0.02167341 0.02107237 1000
lala 17 0.6 0 first 15 1 282 5 3.8 0.819997549057007 0 1 -1 0 0.02091225 0.02099872 0.02064529 1000 1000 1000 0.02091225 0.02099872 0.02064529 1000 1000 1000 0.02176814 0.02213889 0.02210173 0.0220344 0.02179115 1000 0.02176814 0.02213889 0.02210173 0.0220344 0.02179115 1000
lala 14 0.6 1 first 10 1 283 6 4.98 0.379997968673706 1 0 1 1 0.02161862 0.02136103 0.0213927 1000 1000 1000 0.02161862 0.02136103 0.0213927 1000 1000 1000 0.01907955 0.01879479 0.01882375 0.01929921 0.01936081 1000 0.01907955 0.01879479 0.01882375 0.01929921 0.01936081 1000
lala 19 0.0046875 0 first 14 1 284 5 2.910937 1.41999697685242 0 0 -1 1 0.0204965 0.0204612 0.0205827 1000 1000 1000 0.0204965 0.0204612 0.0205827 1000 1000 1000 0.02041508 0.0201213 0.01958224 0.0192104 0.01948655 1000 0.02041508 0.0201213 0.01958224 0.0192104 0.01948655 1000
lala 18 0.3 1 second 15 1 285 5 4.1 1.37999701499939 0 1 1 1 0.0199855 0.02043822 0.02064164 0.02063353 0.02035328 1000 0.0199855 0.02043822 0.02064164 0.02063353 0.02035328 1000 0.01997962 0.02019634 0.01997071 0.01999145 0.02011391 1000 0.01997962 0.02019634 0.01997071 0.01999145 0.02011391 1000
lala 16 0.15 0 second 17 1 286 6 3.330001 0.879997491836548 0 1 -1 0 0.01815899 0.01831272 0.01867019 0.01852637 0.0185275 1000 0.01815899 0.01831272 0.01867019 0.01852637 0.0185275 1000 0.01958573 0.01918418 0.01913558 0.01932769 0.01927683 1000 0.01958573 0.01918418 0.01913558 0.01932769 0.01927683 1000
lala 17 0.15 0 second 16 1 287 6 3.66 1.89999675750732 0 0 -1 0 0.01848095 0.01823249 0.01841061 0.01892988 0.01862274 1000 0.01848095 0.01823249 0.01841061 0.01892988 0.01862274 1000 0.01993403 0.0202546 0.0199841 0.0200628 0.02008095 1000 0.01993403 0.0202546 0.0199841 0.0200628 0.02008095 1000
lala 23 0.0375 1 second 9 1 288 5 7.85 0.499997854232788 1 1 1 0 0.01923355 0.0195609 0.01961368 0.01985952 0.02029608 1000 0.01923355 0.0195609 0.01961368 0.01985952 0.02029608 1000 0.02039426 0.02017579 0.02082646 0.02069953 0.02031984 1000 0.02039426 0.02017579 0.02082646 0.02069953 0.02031984 1000
lala 16 0.075 0 second 2 1 289 5 10.125 0.079998254776001 -1 0 -1 1 0.02097787 0.02099227 0.02123325 0.02112948 0.02153867 1000 0.02097787 0.02099227 0.02123325 0.02112948 0.02153867 1000 0.02141201 0.02139641 0.02150309 0.02157211 0.02161762 1000 0.02141201 0.02139641 0.02150309 0.02157211 0.02161762 1000
lala 15 2.4 1 first 12 1 290 4 3.239999 0.379997968673706 0 0 1 0 0.02094077 0.02059885 0.02046363 1000 1000 1000 0.02094077 0.02059885 0.02046363 1000 1000 1000 0.0200613 0.02016118 0.02072826 0.02029442 0.02029228 1000 0.0200613 0.02016118 0.02072826 0.02029442 0.02029228 1000
lala 20 0.009375 1 second 14 1 291 5 2.920312 0.61999773979187 0 0 1 1 0.0212477 0.0216326 0.02217846 0.02189219 0.02159739 1000 0.0212477 0.0216326 0.02217846 0.02189219 0.02159739 1000 0.02000518 0.01997763 0.02001355 0.02014586 0.01996379 1000 0.02000518 0.01997763 0.02001355 0.02014586 0.01996379 1000
lala 17 0.0375 1 second 8 1 292 5 4.6125 0.499997854232788 1 0 1 1 0.02113773 0.02146292 0.02131606 0.02091799 0.02082127 1000 0.02113773 0.02146292 0.02131606 0.02091799 0.02082127 1000 0.0205974 0.02054844 0.02090017 0.02069542 0.02017229 1000 0.0205974 0.02054844 0.02090017 0.02069542 0.02017229 1000
lala 17 0.075 1 first 13 1 293 4 2.395 0.719997644424438 0 1 1 0 0.01920188 0.01981314 0.02021403 1000 1000 1000 0.01920188 0.01981314 0.02021403 1000 1000 1000 0.02079115 0.02057484 0.0209653 0.02071254 0.02074899 1000 0.02079115 0.02057484 0.0209653 0.02071254 0.02074899 1000
lala 18 0.15 0 second 4 1 294 6 5.909999 0.899997472763062 -1 0 -1 0 0.01988279 0.01997047 0.01983596 0.0201499 0.01985669 1000 0.01988279 0.01997047 0.01983596 0.0201499 0.01985669 1000 0.01983606 0.02051266 0.02021629 0.02006969 0.01995107 1000 0.01983606 0.02051266 0.02021629 0.02006969 0.01995107 1000
lala 7 1.2 1 second 7 1 295 4 5.320001 0.919997453689575 1 1 1 1 0.02006681 0.02035089 0.0203918 0.02001834 0.01944249 1000 0.02006681 0.02035089 0.0203918 0.02001834 0.01944249 1000 0.01914089 0.01908695 0.01971046 0.01957003 0.01941743 1000 0.01914089 0.01908695 0.01971046 0.01957003 0.01941743 1000
lala 15 0.3 1 second 10 1 296 6 4.68 0.379997968673706 1 0 1 0 0.02096473 0.02089528 0.02062278 0.0201707 0.02062041 1000 0.02096473 0.02089528 0.02062278 0.0201707 0.02062041 1000 0.01909795 0.01854553 0.01925667 0.01940868 0.01943007 1000 0.01909795 0.01854553 0.01925667 0.01940868 0.01943007 1000
lala 13 19.2 1 first 1 1 297 4 12 0.219998121261597 -1 1 1 0 0.01987822 0.02026966 0.01995013 1000 1000 1000 0.01987822 0.02026966 0.01995013 1000 1000 1000 0.02118535 0.02105735 0.02128849 0.02169856 0.02176232 1000 0.02118535 0.02105735 0.02128849 0.02169856 0.02176232 1000
lala 21 0.0046875 0 second 14 1 298 5 2.915625 0.659997701644897 0 0 -1 1 0.02130245 0.02139871 0.02197484 0.02183774 0.02166094 1000 0.02130245 0.02139871 0.02197484 0.02183774 0.02166094 1000 0.02226889 0.02238173 0.02225893 0.02268095 0.0227831 1000 0.02226889 0.02238173 0.02225893 0.02268095 0.0227831 1000
lala 17 0.15 1 first 2 1 299 5 10.275 0.219998121261597 -1 0 1 0 0.02102867 0.02084733 0.02075575 1000 1000 1000 0.02102867 0.02084733 0.02075575 1000 1000 1000 0.01955534 0.01944371 0.01996476 0.01971707 0.01963211 1000 0.01955534 0.01944371 0.01996476 0.01971707 0.01963211 1000
lala 16 0.3 0 first 10 1 300 6 4.38 0.259998083114624 1 0 -1 0 0.001628226 -0.001760685 0.0007726309 0.006697356 0.01141507 0.01307548 0.001628226 -0.001760685 0.0007726309 0.006697356 0.01141507 0.01307548 0.02283571 0.02229626 0.01973608 0.01607207 0.01484498 1000 0.02283571 0.02229626 0.01973608 0.01607207 0.01484498 1000
lala 17 0.15 0 first 10 1 301 6 4.53 0.659997701644897 1 0 -1 1 0.02007522 0.02176855 0.02443265 1000 1000 1000 0.02007522 0.02176855 0.02443265 1000 1000 1000 0.02208718 0.02087266 0.02068445 0.02127192 0.02180291 1000 0.02208718 0.02087266 0.02068445 0.02127192 0.02180291 1000
lala 14 9.6 0 second 1 1 302 4 2.4 2.2999963760376 -1 1 -1 0 0.02331851 0.02346543 0.02358434 0.02369293 0.02379766 1000 0.02331851 0.02346543 0.02358434 0.02369293 0.02379766 1000 0.02353944 0.02378034 0.02343619 0.02350486 0.02382438 1000 0.02353944 0.02378034 0.02343619 0.02350486 0.02382438 1000
lala 20 0.0375 0 first 3 1 303 5 6.0125 0.579997777938843 -1 1 -1 1 0.01338052 0.002596688 -0.003867911 1000 1000 1000 0.01338052 0.002596688 -0.003867911 1000 1000 1000 0.000326907 0.0012376 0.00238617 0.002356535 0.001366649 1000 0.000326907 0.0012376 0.00238617 0.002356535 0.001366649 1000
lala 18 0.075 0 second 16 1 304 6 3.735 0.579997777938843 0 0 -1 1 0.008336615 0.009041353 0.009733529 0.01070681 0.01166217 1000 0.008336615 0.009041353 0.009733529 0.01070681 0.01166217 1000 0.01143396 0.01165566 0.01201776 0.01225223 0.01246777 1000 0.01143396 0.01165566 0.01201776 0.01225223 0.01246777 1000
lala 21 0.0375 0 second 3 1 305 5 6.05 0.959997415542603 -1 1 -1 1 0.01459126 0.01478207 0.01478575 0.01468677 0.01489719 1000 0.01459126 0.01478207 0.01478575 0.01468677 0.01489719 1000 0.01525299 0.01540328 0.01528333 0.01527214 0.015079 1000 0.01525299 0.01540328 0.01528333 0.01527214 0.015079 1000
lala 18 0.075 0 first 2 1 306 5 10.2 0.479997873306274 -1 0 -1 0 0.0165636 0.01681586 0.01694712 1000 1000 1000 0.0165636 0.01681586 0.01694712 1000 1000 1000 0.01619362 0.01675468 0.01703043 0.01749388 0.01784066 1000 0.01619362 0.01675468 0.01703043 0.01749388 0.01784066 1000
lala 17 0.3 1 second 17 1 307 6 3.630001 1.05999732017517 0 1 1 0 0.0190102 0.01917006 0.01926298 0.0194624 0.01931242 1000 0.0190102 0.01917006 0.01926298 0.0194624 0.01931242 1000 0.01887138 0.0189357 0.01897235 0.0185664 0.0183 1000 0.01887138 0.0189357 0.01897235 0.0185664 0.0183 1000
lala 19 0.3 0 first 4 1 308 6 6.21 0.919997453689575 -1 0 -1 1 0.02008007 0.02042791 0.02091634 1000 1000 1000 0.02008007 0.02042791 0.02091634 1000 1000 1000 0.0209554 0.02072628 0.0205529 0.02105961 0.02177638 1000 0.0209554 0.02072628 0.0205529 0.02105961 0.02177638 1000
lala 17 0.3 1 second 5 1 309 6 8.879999 0.699997663497925 -1 1 1 0 0.02277013 0.02253648 0.02298659 0.02294328 0.02270982 1000 0.02277013 0.02253648 0.02298659 0.02294328 0.02270982 1000 0.02315109 0.0229895 0.0226944 0.02299368 0.0231029 1000 0.02315109 0.0229895 0.0226944 0.02299368 0.0231029 1000
lala 18 0.0375 0 second 13 1 310 4 2.3575 1.77999687194824 0 1 -1 0 0.02313016 0.02309613 0.02349323 0.02354468 0.02357103 1000 0.02313016 0.02309613 0.02349323 0.02354468 0.02357103 1000 0.02491482 0.02465813 0.02484651 0.02493336 0.0246074 1000 0.02491482 0.02465813 0.02484651 0.02493336 0.0246074 1000
lala 18 0.3 0 second 5 1 311 6 8.579999 1.11999726295471 -1 1 -1 0 0.02373922 0.02322467 0.02172409 0.02207889 0.0237365 1000 0.02373922 0.02322467 0.02172409 0.02207889 0.0237365 1000 0.03027414 0.02917311 0.02766855 0.0265323 0.02634166 1000 0.03027414 0.02917311 0.02766855 0.0265323 0.02634166 1000
lala 16 4.8 0 second 12 1 312 4 1.32 0.539997816085815 0 0 -1 1 0.0218751 0.02211492 0.02233624 0.02273994 0.02343386 1000 0.0218751 0.02211492 0.02233624 0.02273994 0.02343386 1000 0.02464689 0.02441989 0.02393355 0.02330376 0.02254725 1000 0.02464689 0.02441989 0.02393355 0.02330376 0.02254725 1000
lala 14 2.4 0 second 0 1 313 4 4.8 0.01999831199646 -1 0 -1 0 0.02105775 0.02099628 0.0213827 0.0215306 0.02139063 1000 0.02105775 0.02099628 0.0213827 0.0215306 0.02139063 1000 0.02197321 0.02230544 0.02205862 0.02185802 0.02230722 1000 0.02197321 0.02230544 0.02205862 0.02185802 0.02230722 1000
lala 19 0.15 0 first 5 1 314 6 8.729999 0.419997930526733 -1 1 -1 0 0.02260872 0.02274326 0.02310978 1000 1000 1000 0.02260872 0.02274326 0.02310978 1000 1000 1000 0.02206723 0.02203904 0.0219123 0.02199877 0.02168394 1000 0.02206723 0.02203904 0.0219123 0.02199877 0.02168394 1000
lala 17 0.3 1 second 11 1 315 6 7.530001 0.479997873306274 1 1 1 0 0.02226633 0.02241492 0.02287462 0.02277603 0.02249466 1000 0.02226633 0.02241492 0.02287462 0.02277603 0.02249466 1000 0.02330315 0.02332606 0.02314805 0.02337447 0.02351937 1000 0.02330315 0.02332606 0.02314805 0.02337447 0.02351937 1000
lala 18 0.15 1 second 17 1 316 6 3.480001 0.23999810218811 0 1 1 1 0.02341822 0.0233416 0.02317877 0.02343284 0.02288097 1000 0.02341822 0.0233416 0.02317877 0.02343284 0.02288097 1000 0.02293832 0.02353206 0.02332335 0.02314182 0.02325026 1000 0.02293832 0.02353206 0.02332335 0.02314182 0.02325026 1000
lala 22 0.00234375 0 first 14 1 317 5 2.917969 0.959997415542603 0 0 -1 1 0.02401538 0.02380105 0.0239532 1000 1000 1000 0.02401538 0.02380105 0.0239532 1000 1000 1000 0.02675368 0.02672769 0.02707282 0.02714076 0.02626831 1000 0.02675368 0.02672769 0.02707282 0.02714076 0.02626831 1000
lala 22 0.075 0 second 3 1 318 5 6.125 0.379997968673706 -1 1 -1 0 0.008820945 0.008383036 0.008297988 0.009490944 0.00976299 1000 0.008820945 0.008383036 0.008297988 0.009490944 0.00976299 1000 0.000330346 0.0007566327 0.0006425766 0.0001203163 0.001847791 1000 0.000330346 0.0007566327 0.0006425766 0.0001203163 0.001847791 1000
lala 19 0.15 1 second 15 1 319 5 3.95 1.87999677658081 0 1 1 1 0.003457889 0.004022427 0.004527112 0.005419327 0.006001695 1000 0.003457889 0.004022427 0.004527112 0.005419327 0.006001695 1000 0.004925482 0.004920173 0.0056224 0.006314558 0.005971598 1000 0.004925482 0.004920173 0.0056224 0.006314558 0.005971598 1000
lala 24 0.01875 0 first 9 1 320 5 7.83125 0.61999773979187 1 1 -1 0 0.00585805 0.005761317 0.006167333 1000 1000 1000 0.00585805 0.005761317 0.006167333 1000 1000 1000 0.006238325 0.006749199 0.006911925 0.007327517 0.007270879 1000 0.006238325 0.006749199 0.006911925 0.007327517 0.007270879 1000
lala 23 0.15 1 second 3 1 321 5 6.275 1.63999700546265 -1 1 1 1 0.008498826 0.008671489 0.008331996 0.008888889 0.008916797 1000 0.008498826 0.008671489 0.008331996 0.008888889 0.008916797 1000 0.008798387 0.008960633 0.008996638 0.009273998 0.00923613 1000 0.008798387 0.008960633 0.008996638 0.009273998 0.00923613 1000
lala 17 2.4 0 first 12 1 322 4 3.72 2.01999664306641 0 0 -1 1 0.009777178 0.01023641 0.01024383 1000 1000 1000 0.009777178 0.01023641 0.01024383 1000 1000 1000 0.01162025 0.01163175 0.01174853 0.01128025 0.01134467 1000 0.01162025 0.01163175 0.01174853 0.01128025 0.01134467 1000
lala 18 2.4 1 second 12 1 323 4 6.12 0.639997720718384 0 0 1 1 0.01384019 0.01365077 0.01365259 0.01389502 0.01380437 1000 0.01384019 0.01365077 0.01365259 0.01389502 0.01380437 1000 0.01478885 0.01509504 0.01472893 0.01475465 0.01493395 1000 0.01478885 0.01509504 0.01472893 0.01475465 0.01493395 1000
lala 20 0.15 1 second 15 1 324 5 3.8 1.91999673843384 0 1 1 0 0.01569195 0.01574019 0.01599153 0.01590173 0.0158701 1000 0.01569195 0.01574019 0.01599153 0.01590173 0.0158701 1000 0.0161636 0.01586563 0.01591794 0.0162409 0.01609428 1000 0.0161636 0.01586563 0.01591794 0.0162409 0.01609428 1000
lala 25 0.009375 0 first 9 1 325 5 7.840625 0.699997663497925 1 1 -1 0 0.01653158 0.01684744 0.01701537 1000 1000 1000 0.01653158 0.01684744 0.01701537 1000 1000 1000 0.01896831 0.0194009 0.01931955 0.01916563 0.01916437 1000 0.01896831 0.0194009 0.01931955 0.01916563 0.01916437 1000
lala 23 0.00234375 0 first 14 1 326 5 2.920312 2.33999633789063 0 0 -1 0 0.006512688 0.006698452 0.008268483 1000 1000 1000 0.006512688 0.006698452 0.008268483 1000 1000 1000 0.02452381 0.02521748 0.02688121 0.02662472 0.02636122 1000 0.02452381 0.02521748 0.02688121 0.02662472 0.02636122 1000
lala 26 0.009375 0 first 9 1 327 5 7.85 1.0999972820282 1 1 -1 1 0.01918153 0.01924664 0.01963649 1000 1000 1000 0.01918153 0.01924664 0.01963649 1000 1000 1000 0.02225489 0.02182405 0.02190629 0.02232709 0.02218938 1000 0.02225489 0.02182405 0.02190629 0.02232709 0.02218938 1000
lala 15 1.2 0 second 0 1 328 4 6 0.359997987747192 -1 0 -1 1 0.02401483 0.02387378 0.02422545 0.02425884 0.02426434 1000 0.02401483 0.02387378 0.02422545 0.02425884 0.02426434 1000 0.02478034 0.02459168 0.02464087 0.02475073 0.02436605 1000 0.02478034 0.02459168 0.02464087 0.02475073 0.02436605 1000
lala 20 0.15 1 first 5 1 329 6 8.879998 1.31999707221985 -1 1 1 0 0.02465546 0.02444548 0.02465233 1000 1000 1000 0.02465546 0.02444548 0.02465233 1000 1000 1000 0.02269327 0.02272407 0.02276779 0.02260074 0.02248776 1000 0.02269327 0.02272407 0.02276779 0.02260074 0.02248776 1000
lala 16 1.2 1 second 0 1 330 4 7.2 1.67999696731567 -1 0 1 1 0.02397647 0.02372467 0.02354565 0.02381005 0.02364923 1000 0.02397647 0.02372467 0.02354565 0.02381005 0.02364923 1000 0.02337743 0.02374548 0.02357193 0.02355877 0.02322228 1000 0.02337743 0.02374548 0.02357193 0.02355877 0.02322228 1000
lala 18 0.075 1 second 8 1 331 5 4.5375 0.479997873306274 1 0 1 1 0.02492823 0.02475906 0.024849 0.02478816 0.02515645 1000 0.02492823 0.02475906 0.024849 0.02478816 0.02515645 1000 0.02498291 0.02368833 0.02302609 0.02303134 0.02257279 1000 0.02498291 0.02368833 0.02302609 0.02303134 0.02257279 1000
lala 19 0.15 0 second 8 1 332 5 4.3875 0.179998159408569 1 0 -1 1 0.02259176 0.02296474 0.02342208 0.02348733 0.02321992 1000 0.02259176 0.02296474 0.02342208 0.02348733 0.02321992 1000 0.02421589 0.02411921 0.02436987 0.0247766 0.02460227 1000 0.02421589 0.02411921 0.02436987 0.0247766 0.02460227 1000
lala 15 4.8 0 second 1 1 333 4 7.2 0.39999794960022 -1 1 -1 1 0.02307959 0.02306343 0.02347416 0.02354114 0.02394821 1000 0.02307959 0.02306343 0.02347416 0.02354114 0.02394821 1000 0.02481085 0.02483448 0.02519239 0.02518426 0.0251242 1000 0.02481085 0.02483448 0.02519239 0.02518426 0.0251242 1000
lala 19 1.2 0 second 12 1 334 4 4.92 0.599997758865356 0 0 -1 1 0.02338837 0.02364163 0.02342279 0.02293074 0.02298542 1000 0.02338837 0.02364163 0.02342279 0.02293074 0.02298542 1000 0.02030294 0.02010898 0.0197636 0.01948304 0.0203168 1000 0.02030294 0.02010898 0.0197636 0.01948304 0.0203168 1000
lala 17 0.6 0 first 0 1 335 4 6.6 0.439997911453247 -1 0 -1 1 0.01923505 0.01917028 0.01979727 1000 1000 1000 0.01923505 0.01917028 0.01979727 1000 1000 1000 0.02119661 0.02118633 0.02135216 0.0214452 0.02109056 1000 0.02119661 0.02118633 0.02135216 0.0214452 0.02109056 1000
lala 20 0.6 0 second 4 1 336 6 6.809999 0.0999982357025146 -1 0 -1 0 0.02048821 0.02082365 0.02138121 0.02145403 0.02120586 1000 0.02048821 0.02082365 0.02138121 0.02145403 0.02120586 1000 0.02113268 0.02121186 0.0219133 0.02182727 0.02169207 1000 0.02113268 0.02121186 0.0219133 0.02182727 0.02169207 1000
lala 19 0.0375 0 first 2 1 337 5 10.2375 0.719997644424438 -1 0 -1 1 0.02171574 0.02170039 0.0222591 1000 1000 1000 0.02171574 0.02170039 0.0222591 1000 1000 1000 0.02263733 0.02305076 0.02361972 0.02358678 0.02354431 1000 0.02263733 0.02305076 0.02361972 0.02358678 0.02354431 1000
lala 19 0.075 1 second 16 1 338 6 3.81 0.119998216629028 0 0 1 1 0.02399818 0.02444136 0.02477191 0.0246054 0.02469655 1000 0.02399818 0.02444136 0.02477191 0.0246054 0.02469655 1000 0.02459542 0.02454349 0.02494161 0.02465271 0.0246998 1000 0.02459542 0.02454349 0.02494161 0.02465271 0.0246998 1000
lala 24 0.075 1 first 3 1 339 5 6.2 1.3999969959259 -1 1 1 0 0.02349159 0.02365495 0.02366164 1000 1000 1000 0.02349159 0.02365495 0.02366164 1000 1000 1000 0.02388656 0.02440018 0.02396088 0.02365791 0.02326458 1000 0.02388656 0.02440018 0.02396088 0.02365791 0.02326458 1000
