subject PestNr Step_Size_OnTrial Pest_Faster Pest_Interval Condition block trial velH velH_Pest Reaction_Time velH_Subject Start_Above Response_MotionEstimation RightOrLeftxRotations_first0 xRotations_first1 xRotations_first2 xRotations_first3 xRotations_first4 xRotations_first5 yRotations_first0 yRotations_first1 yRotations_first2 yRotations_first3 yRotations_first4 yRotations_first5 xRotations_second0 xRotations_second1 xRotations_second2 xRotations_second3 xRotations_second4 xRotations_second5 yRotations_second0 yRotations_second1 yRotations_second2 yRotations_second3 yRotations_second4 yRotations_second5
lala 1 1.2 1 first 12 1 1 4 2.64 2.47999620437622 0 0 1 1 -0.009188891 0.001482127 0.01244303 0.005270163 -0.001312387 -0.001353365 -0.009188891 0.001482127 0.01244303 0.005270163 -0.001312387 -0.001353365 -0.01007313 -0.01008594 -0.01076586 -0.009916314 -0.01012914 1000 -0.01007313 -0.01008594 -0.01076586 -0.009916314 -0.01012914 1000
lala 1 1.2 1 second 13 1 2 4 5.32 3.95999479293823 0 1 1 0 -0.009580431 -0.01023585 -0.009637658 -0.01001684 -0.009647178 1000 -0.009580431 -0.01023585 -0.009637658 -0.01001684 -0.009647178 1000 -0.009941389 -0.0101322 -0.01039395 -0.01021786 -0.01006472 1000 -0.009941389 -0.0101322 -0.01039395 -0.01021786 -0.01006472 1000
lala 1 1.2 1 first 2 1 3 5 3.3 6.64001703262329 -1 0 1 0 -0.009336929 -0.00923651 -0.00942947 1000 1000 1000 -0.009336929 -0.00923651 -0.00942947 1000 1000 1000 -0.009414886 -0.00949789 -0.009703872 -0.009946603 -0.009835013 1000 -0.009414886 -0.00949789 -0.009703872 -0.009946603 -0.009835013 1000
lala 1 1.2 1 second 17 1 4 6 7.98 1.41999697685242 0 1 1 0 -0.02305879 -0.02341571 -0.02286116 -0.02352311 -0.02311173 1000 -0.02305879 -0.02341571 -0.02286116 -0.02352311 -0.02311173 1000 -0.0225711 -0.02307609 -0.02320191 -0.02341192 -0.02317287 1000 -0.0225711 -0.02307609 -0.02320191 -0.02341192 -0.02317287 1000
lala 1 1.2 0 first 4 1 5 6 3.96 2.81999588012695 -1 0 -1 0 -0.02499063 -0.02516025 -0.02456535 1000 1000 1000 -0.02499063 -0.02516025 -0.02456535 1000 1000 1000 -0.0007830868 -0.001680813 -0.001628187 -0.001660778 -0.00180429 1000 -0.0007830868 -0.001680813 -0.001628187 -0.001660778 -0.00180429 1000
lala 1 1.2 1 second 9 1 6 5 6.65 1.17999720573425 1 1 1 1 -0.01204538 -0.0116579 -0.01145529 -0.01166343 -0.01195398 1000 -0.01204538 -0.0116579 -0.01145529 -0.01166343 -0.01195398 1000 -0.01230408 -0.01271101 -0.01178469 -0.01217598 -0.01189321 1000 -0.01230408 -0.01271101 -0.01178469 -0.01217598 -0.01189321 1000
lala 2 1.2 0 first 17 1 7 6 6.780001 3.09999561309814 0 1 -1 1 -0.01362997 -0.0135198 -0.01315111 1000 1000 1000 -0.01362997 -0.0135198 -0.01315111 1000 1000 1000 -0.01372033 -0.01350949 -0.01343316 -0.01347916 -0.01354821 1000 -0.01372033 -0.01350949 -0.01343316 -0.01347916 -0.01354821 1000
lala 1 1.2 0 second 16 1 8 6 3.96 1.23999714851379 0 0 -1 1 -0.01815819 -0.0178598 -0.01847919 -0.01842728 -0.01842973 1000 -0.01815819 -0.0178598 -0.01847919 -0.01842728 -0.01842973 1000 -0.01740329 -0.01731913 -0.0173245 -0.01747497 -0.01699584 1000 -0.01740329 -0.01731913 -0.0173245 -0.01747497 -0.01699584 1000
lala 1 1.2 0 first 10 1 9 6 3.96 8.94006967544556 1 0 -1 0 -0.01797604 -0.01787294 -0.01770587 1000 1000 1000 -0.01797604 -0.01787294 -0.01770587 1000 1000 1000 -0.01760189 -0.01753608 -0.01712782 -0.01748662 -0.01787 1000 -0.01760189 -0.01753608 -0.01712782 -0.01748662 -0.01787 1000
lala 2 1.2 1 second 9 1 10 5 5.45 1.31999707221985 1 1 1 1 -0.009105294 -0.00852802 -0.008190501 -0.00829451 -0.008612582 1000 -0.009105294 -0.00852802 -0.008190501 -0.00829451 -0.008612582 1000 -0.008165135 -0.008930737 -0.007945556 -0.008901562 -0.009116479 1000 -0.008165135 -0.008930737 -0.007945556 -0.008901562 -0.009116479 1000
lala 2 1.2 0 second 13 1 11 4 4.12 1.29999709129334 0 1 -1 1 -0.01033187 -0.0101816 -0.01047888 -0.01026383 -0.01013266 1000 -0.01033187 -0.0101816 -0.01047888 -0.01026383 -0.01013266 1000 -0.01045695 -0.01035155 -0.01045722 -0.01049984 -0.01106214 1000 -0.01045695 -0.01035155 -0.01045722 -0.01049984 -0.01106214 1000
lala 1 1.2 1 first 6 1 12 4 2.64 4.45999431610107 1 0 1 1 -0.01105214 -0.01137455 -0.01137027 1000 1000 1000 -0.01105214 -0.01137455 -0.01137027 1000 1000 1000 -0.01231138 -0.0129094 -0.01287252 -0.01281895 -0.0128937 1000 -0.01231138 -0.0129094 -0.01287252 -0.01281895 -0.0128937 1000
lala 1 1.2 0 second 14 1 13 5 3.3 1.89999675750732 0 0 -1 0 -0.01677408 -0.01713139 -0.01690623 -0.01657425 -0.01646972 1000 -0.01677408 -0.01713139 -0.01690623 -0.01657425 -0.01646972 1000 -0.01749577 -0.01766085 -0.01783241 -0.01855601 -0.01784154 1000 -0.01749577 -0.01766085 -0.01783241 -0.01855601 -0.01784154 1000
lala 2 1.2 0 second 2 1 14 5 2.1 2.01999664306641 -1 0 -1 0 -0.01985233 -0.01986527 -0.01997852 -0.02027407 -0.02091415 1000 -0.01985233 -0.01986527 -0.01997852 -0.02027407 -0.02091415 1000 -0.02056303 -0.02015592 -0.02077422 -0.02065343 -0.02078613 1000 -0.02056303 -0.02015592 -0.02077422 -0.02065343 -0.02078613 1000
lala 3 1.2 0 first 9 1 15 5 4.25 6.48001337051392 1 1 -1 1 -0.02087961 -0.02112021 -0.02097803 1000 1000 1000 -0.02087961 -0.02112021 -0.02097803 1000 1000 1000 -0.02236728 -0.02218863 -0.02196881 -0.02212633 -0.02262677 1000 -0.02236728 -0.02218863 -0.02196881 -0.02212633 -0.02262677 1000
lala 2 1.2 0 first 14 1 16 5 4.5 1.49999690055847 0 0 -1 1 -0.003776509 -0.003369214 -0.00330827 1000 1000 1000 -0.003776509 -0.003369214 -0.00330827 1000 1000 1000 -0.006373257 -0.006093292 -0.006199458 -0.006065238 -0.006731594 1000 -0.006373257 -0.006093292 -0.006199458 -0.006065238 -0.006731594 1000
lala 1 1.2 1 first 7 1 17 4 5.32 3.25999546051025 1 1 1 0 -0.007449546 -0.00748376 -0.007227164 1000 1000 1000 -0.007449546 -0.00748376 -0.007227164 1000 1000 1000 -0.008295565 -0.008164306 -0.008193144 -0.00801465 -0.00841655 1000 -0.008295565 -0.008164306 -0.008193144 -0.00801465 -0.00841655 1000
lala 2 1.2 1 first 10 1 18 6 5.16 7.44003534317017 1 0 1 0 -0.009892619 -0.009864504 -0.009610286 1000 1000 1000 -0.009892619 -0.009864504 -0.009610286 1000 1000 1000 -0.01088119 -0.01051585 -0.01083483 -0.01019375 -0.01027369 1000 -0.01088119 -0.01051585 -0.01083483 -0.01019375 -0.01027369 1000
lala 1 1.2 0 first 1 1 19 4 5.32 3.63999509811401 -1 1 -1 0 -0.01356468 -0.01297856 -0.0122749 1000 1000 1000 -0.01356468 -0.01297856 -0.0122749 1000 1000 1000 -0.01167482 -0.01280978 -0.01265848 -0.01258364 -0.01270562 1000 -0.01167482 -0.01280978 -0.01265848 -0.01258364 -0.01270562 1000
lala 3 1.2 0 second 2 1 20 5 3.3 1.03999733924866 -1 0 -1 1 -0.01135361 -0.01218229 -0.01175605 -0.01226195 -0.01214546 1000 -0.01135361 -0.01218229 -0.01175605 -0.01226195 -0.01214546 1000 -0.01223962 -0.01217172 -0.01189975 -0.0127745 -0.01273945 1000 -0.01223962 -0.01217172 -0.01189975 -0.0127745 -0.01273945 1000
lala 3 1.2 0 first 10 1 21 6 3.96 2.7399959564209 1 0 -1 0 -0.01320475 -0.01337997 -0.01237497 1000 1000 1000 -0.01320475 -0.01337997 -0.01237497 1000 1000 1000 -0.01215997 -0.01175243 -0.01242261 -0.01271827 -0.01301825 1000 -0.01215997 -0.01175243 -0.01242261 -0.01271827 -0.01301825 1000
lala 4 1.2 0 first 2 1 22 5 4.5 5.98000192642212 -1 0 -1 1 -0.01257035 -0.01143556 -0.01096475 1000 1000 1000 -0.01257035 -0.01143556 -0.01096475 1000 1000 1000 -0.01142743 -0.01234702 -0.01234726 -0.01231324 -0.0117739 1000 -0.01142743 -0.01234702 -0.01234726 -0.01231324 -0.0117739 1000
lala 4 1.2 1 second 10 1 23 6 5.16 2.43999624252319 1 0 1 0 0.003733545 0.003509689 0.003275922 0.001468278 0.001035388 1000 0.003733545 0.003509689 0.003275922 0.001468278 0.001035388 1000 -0.001389765 -0.001464452 -0.001723979 -0.001329597 -0.001218204 1000 -0.001389765 -0.001464452 -0.001723979 -0.001329597 -0.001218204 1000
lala 1 1.2 1 first 5 1 24 6 7.98 6.38001108169556 -1 1 1 1 0.001934338 0.0007563352 -0.0004652604 1000 1000 1000 0.001934338 0.0007563352 -0.0004652604 1000 1000 1000 -0.002518869 -0.001510192 -0.001358634 -0.0008897883 -0.00122827 1000 -0.002518869 -0.001510192 -0.001358634 -0.0008897883 -0.00122827 1000
lala 4 1.2 1 first 9 1 25 5 5.45 2.01999664306641 1 1 1 1 -0.004945596 -0.004232744 -0.003672621 1000 1000 1000 -0.004945596 -0.004232744 -0.003672621 1000 1000 1000 -0.00570006 -0.005501853 -0.005628342 -0.006204031 -0.005425694 1000 -0.00570006 -0.005501853 -0.005628342 -0.006204031 -0.005425694 1000
lala 5 1.2 0 second 9 1 26 5 4.25 2.11999654769897 1 1 -1 1 -0.006674591 -0.007077108 -0.007357141 -0.00789869 -0.00758214 1000 -0.006674591 -0.007077108 -0.007357141 -0.00789869 -0.00758214 1000 -0.007655091 -0.007979047 -0.007877408 -0.00764185 -0.007760929 1000 -0.007655091 -0.007979047 -0.007877408 -0.00764185 -0.007760929 1000
lala 2 1.2 0 first 7 1 27 4 4.12 3.15999555587769 1 1 -1 0 -0.0088568 -0.009113212 -0.009904032 1000 1000 1000 -0.0088568 -0.009113212 -0.009904032 1000 1000 1000 -0.01072114 -0.01091506 -0.01112545 -0.0116219 -0.01130972 1000 -0.01072114 -0.01091506 -0.01112545 -0.0116219 -0.01130972 1000
lala 2 1.2 0 second 6 1 28 4 1.44 1.81999683380127 1 0 -1 1 -0.01286051 -0.01355269 -0.01346544 -0.01357282 -0.01410329 1000 -0.01286051 -0.01355269 -0.01346544 -0.01357282 -0.01410329 1000 -0.01451857 -0.01419501 -0.01450995 -0.01384922 -0.0143056 1000 -0.01451857 -0.01419501 -0.01450995 -0.01384922 -0.0143056 1000
lala 3 1.2 1 second 14 1 29 5 5.7 0.779997587203979 0 0 1 0 -0.0137665 -0.01378252 -0.0132108 -0.01335627 -0.01285666 1000 -0.0137665 -0.01378252 -0.0132108 -0.01335627 -0.01285666 1000 -0.01411797 -0.01475621 -0.01447277 -0.01474365 -0.01505683 1000 -0.01411797 -0.01475621 -0.01447277 -0.01474365 -0.01505683 1000
lala 6 1.2 1 first 9 1 30 5 5.45 2.31999635696411 1 1 1 0 -0.01330826 -0.01322299 -0.01284292 1000 1000 1000 -0.01330826 -0.01322299 -0.01284292 1000 1000 1000 -0.01345002 -0.0133311 -0.01363825 -0.01356047 -0.01356466 1000 -0.01345002 -0.0133311 -0.01363825 -0.01356047 -0.01356466 1000
lala 5 1.2 0 first 2 1 31 5 5.7 3.53999519348145 -1 0 -1 1 -0.01459336 -0.01481438 -0.01470471 1000 1000 1000 -0.01459336 -0.01481438 -0.01470471 1000 1000 1000 -0.01823159 -0.01772506 -0.01675151 -0.01624873 -0.01670187 1000 -0.01823159 -0.01772506 -0.01675151 -0.01624873 -0.01670187 1000
lala 2 1.2 1 second 16 1 32 6 5.16 1.23999714851379 0 0 1 0 -0.01904805 -0.01907567 -0.01923629 -0.01918026 -0.01863713 1000 -0.01904805 -0.01907567 -0.01923629 -0.01918026 -0.01863713 1000 -0.01964641 -0.02005196 -0.01987125 -0.01990192 -0.02030035 1000 -0.01964641 -0.02005196 -0.01987125 -0.01990192 -0.02030035 1000
lala 3 1.2 1 first 7 1 33 4 5.32 9.04007196426392 1 1 1 1 -0.01805546 -0.01877964 -0.01852459 1000 1000 1000 -0.01805546 -0.01877964 -0.01852459 1000 1000 1000 -0.02080069 -0.02166884 -0.02114041 -0.0214522 -0.02117583 1000 -0.02080069 -0.02166884 -0.02114041 -0.0214522 -0.02117583 1000
lala 2 1.2 0 first 1 1 34 4 6.52 1.19999718666077 -1 1 -1 0 -0.009720216 -0.00922334 -0.008187893 1000 1000 1000 -0.009720216 -0.00922334 -0.008187893 1000 1000 1000 -0.01024517 -0.01159119 -0.01031377 -0.01065486 -0.01015307 1000 -0.01024517 -0.01159119 -0.01031377 -0.01065486 -0.01015307 1000
lala 2 1.2 0 second 12 1 35 4 1.44 2.09999656677246 0 0 -1 0 -0.01046597 -0.01008434 -0.01084118 -0.0105587 -0.01090072 1000 -0.01046597 -0.01008434 -0.01084118 -0.0105587 -0.01090072 1000 -0.01118559 -0.01141588 -0.01178041 -0.01181236 -0.01223121 1000 -0.01118559 -0.01141588 -0.01178041 -0.01181236 -0.01223121 1000
lala 1 1.2 0 second 8 1 36 5 3.3 2.85999584197998 1 0 -1 1 -0.01163386 -0.01192369 -0.01242015 -0.01145093 -0.01221147 1000 -0.01163386 -0.01192369 -0.01242015 -0.01145093 -0.01221147 1000 -0.01208702 -0.01196925 -0.01188571 -0.01179935 -0.01157065 1000 -0.01208702 -0.01196925 -0.01188571 -0.01179935 -0.01157065 1000
lala 1 1.2 0 second 0 1 37 4 2.64 0.919997453689575 -1 0 -1 0 -0.01462031 -0.01430858 -0.01454269 -0.01528772 -0.01522716 1000 -0.01462031 -0.01430858 -0.01454269 -0.01528772 -0.01522716 1000 -0.01567711 -0.01610686 -0.01564714 -0.01542092 -0.01544767 1000 -0.01567711 -0.01610686 -0.01564714 -0.01542092 -0.01544767 1000
lala 1 1.2 1 first 11 1 38 6 7.98 1.67999696731567 1 1 1 1 -0.01489197 -0.01557916 -0.01502663 1000 1000 1000 -0.01489197 -0.01557916 -0.01502663 1000 1000 1000 -0.01517881 -0.01486371 -0.0149454 -0.01460125 -0.01529713 1000 -0.01517881 -0.01486371 -0.0149454 -0.01460125 -0.01529713 1000
lala 2 1.2 0 first 0 1 39 4 3.84 2.05999660491943 -1 0 -1 0 -0.01440186 -0.01452313 -0.01451863 1000 1000 1000 -0.01440186 -0.01452313 -0.01451863 1000 1000 1000 -0.0151688 -0.01527713 -0.01531766 -0.01544826 -0.01544026 1000 -0.0151688 -0.01527713 -0.01531766 -0.01544826 -0.01544026 1000
lala 2 1.2 1 first 8 1 40 5 4.5 1.35999703407288 1 0 1 0 -0.01417256 -0.0144028 -0.01391465 1000 1000 1000 -0.01417256 -0.0144028 -0.01391465 1000 1000 1000 -0.01683924 -0.01673596 -0.01664363 -0.01675452 -0.01688762 1000 -0.01683924 -0.01673596 -0.01664363 -0.01675452 -0.01688762 1000
lala 3 1.2 0 first 16 1 41 6 3.96 0.99999737739563 0 0 -1 1 -0.01654761 -0.01717399 -0.01760787 1000 1000 1000 -0.01654761 -0.01717399 -0.01760787 1000 1000 1000 -0.01869576 -0.0183773 -0.01844056 -0.0182403 -0.01805047 1000 -0.01869576 -0.0183773 -0.01844056 -0.0182403 -0.01805047 1000
lala 6 1.2 1 first 2 1 42 5 6.9 2.77999591827393 -1 0 1 0 -0.01858717 -0.01884698 -0.01917127 1000 1000 1000 -0.01858717 -0.01884698 -0.01917127 1000 1000 1000 -0.02165756 -0.02148616 -0.02090832 -0.02110176 -0.02074213 1000 -0.02165756 -0.02148616 -0.02090832 -0.02110176 -0.02074213 1000
lala 3 1.2 1 second 13 1 43 4 5.32 2.53999614715576 0 1 1 1 -0.01884166 -0.01905628 -0.01925949 -0.0203288 -0.01995525 1000 -0.01884166 -0.01905628 -0.01925949 -0.0203288 -0.01995525 1000 -0.02117729 -0.02163413 -0.02149559 -0.02140599 -0.02091751 1000 -0.02117729 -0.02163413 -0.02149559 -0.02140599 -0.02091751 1000
lala 2 1.2 1 second 11 1 44 6 6.780001 7.02002573013306 1 1 1 0 -0.02035358 -0.02069438 -0.02072402 -0.02072871 -0.02099413 1000 -0.02035358 -0.02069438 -0.02072402 -0.02072871 -0.02099413 1000 -0.02138759 -0.02144485 -0.02179469 -0.02188719 -0.02215681 1000 -0.02138759 -0.02144485 -0.02179469 -0.02188719 -0.02215681 1000
lala 5 1.2 0 second 10 1 45 6 3.96 1.11999726295471 1 0 -1 1 -0.01177452 -0.01157984 -0.0121184 -0.0122539 -0.01255185 1000 -0.01177452 -0.01157984 -0.0121184 -0.0122539 -0.01255185 1000 -0.01302818 -0.0125815 -0.01265527 -0.01235283 -0.01284551 1000 -0.01302818 -0.0125815 -0.01265527 -0.01235283 -0.01284551 1000
lala 4 1.2 1 first 7 1 46 4 4.12 3.67999505996704 1 1 1 1 -0.01260365 -0.01294455 -0.01269525 1000 1000 1000 -0.01260365 -0.01294455 -0.01269525 1000 1000 1000 -0.01327926 -0.01364671 -0.01346378 -0.01323381 -0.01358295 1000 -0.01327926 -0.01364671 -0.01346378 -0.01323381 -0.01358295 1000
lala 4 1.2 1 first 13 1 47 4 4.12 2.01999664306641 0 1 1 1 -0.01560096 -0.01515611 -0.01566626 1000 1000 1000 -0.01560096 -0.01515611 -0.01566626 1000 1000 1000 -0.01662027 -0.01720267 -0.01615397 -0.01698104 -0.01631979 1000 -0.01662027 -0.01720267 -0.01615397 -0.01698104 -0.01631979 1000
lala 7 1.2 0 first 2 1 48 5 5.7 2.45999622344971 -1 0 -1 1 -0.01750758 -0.01741376 -0.01741271 1000 1000 1000 -0.01750758 -0.01741376 -0.01741271 1000 1000 1000 -0.01910204 -0.01897097 -0.01900309 -0.01948621 -0.0192812 1000 -0.01910204 -0.01897097 -0.01900309 -0.01948621 -0.0192812 1000
lala 4 1.2 1 first 14 1 49 5 4.5 1.13999724388123 0 0 1 0 -0.02139552 -0.02184183 -0.02102047 1000 1000 1000 -0.02139552 -0.02184183 -0.02102047 1000 1000 1000 -0.02121449 -0.02169363 -0.02103287 -0.02163772 -0.02117741 1000 -0.02121449 -0.02169363 -0.02103287 -0.02163772 -0.02117741 1000
lala 5 1.2 0 second 13 1 50 4 2.92 1.03999733924866 0 1 -1 1 -0.01100214 -0.01307577 -0.01663644 -0.01824806 -0.01960426 1000 -0.01100214 -0.01307577 -0.01663644 -0.01824806 -0.01960426 1000 -0.02194926 -0.02244437 -0.02205241 -0.02149327 -0.02209164 1000 -0.02194926 -0.02244437 -0.02205241 -0.02149327 -0.02209164 1000
lala 5 1.2 0 second 7 1 51 4 2.92 0.659997701644897 1 1 -1 1 -0.02437633 -0.02191078 -0.01945099 -0.01872066 -0.01957015 1000 -0.02437633 -0.02191078 -0.01945099 -0.01872066 -0.01957015 1000 -0.02223605 -0.02211165 -0.02174421 -0.02083918 -0.02020258 1000 -0.02223605 -0.02211165 -0.02174421 -0.02083918 -0.02020258 1000
lala 3 1.2 0 second 12 1 52 4 2.64 1.27999711036682 0 0 -1 1 -0.0001432352 -0.0004266541 -0.0009937502 -0.002402235 -0.003300901 1000 -0.0001432352 -0.0004266541 -0.0009937502 -0.002402235 -0.003300901 1000 -0.004956802 -0.004923945 -0.004119276 -0.003828764 -0.004641239 1000 -0.004956802 -0.004923945 -0.004119276 -0.003828764 -0.004641239 1000
lala 1 1.2 1 second 15 1 53 5 6.65 0.339998006820679 0 1 1 0 -0.003384028 -0.003446976 -0.003961422 -0.004575083 -0.004522846 1000 -0.003384028 -0.003446976 -0.003961422 -0.004575083 -0.004522846 1000 -0.005587349 -0.004842576 -0.005158463 -0.005263242 -0.005042782 1000 -0.005587349 -0.004842576 -0.005158463 -0.005263242 -0.005042782 1000
lala 4 1.2 0 second 16 1 54 6 5.16 3.25999546051025 0 0 -1 0 -0.005106292 -0.005165506 -0.005573901 -0.005341118 -0.005068839 1000 -0.005106292 -0.005165506 -0.005573901 -0.005341118 -0.005068839 1000 -0.005217038 -0.004887046 -0.00556987 -0.005367227 -0.005419825 1000 -0.005217038 -0.004887046 -0.00556987 -0.005367227 -0.005419825 1000
lala 3 1.2 0 first 6 1 55 4 2.64 1.87999677658081 1 0 -1 1 -0.005369153 -0.005907514 -0.005971728 1000 1000 1000 -0.005369153 -0.005907514 -0.005971728 1000 1000 1000 -0.008998887 -0.008799172 -0.009169471 -0.008873706 -0.009161664 1000 -0.008998887 -0.008799172 -0.009169471 -0.008873706 -0.009161664 1000
lala 3 1.2 1 first 11 1 56 6 5.580001 9.22007608413696 1 1 1 1 -0.009713661 -0.009518236 -0.008895591 1000 1000 1000 -0.009713661 -0.009518236 -0.008895591 1000 1000 1000 -0.01096781 -0.01045979 -0.01020486 -0.009566501 -0.01027899 1000 -0.01096781 -0.01045979 -0.01020486 -0.009566501 -0.01027899 1000
lala 4 1.2 1 second 11 1 57 6 4.380001 12.1001420021057 1 1 1 1 -0.02018833 -0.01986418 -0.01918843 -0.01999599 -0.01935307 1000 -0.02018833 -0.01986418 -0.01918843 -0.01999599 -0.01935307 1000 -0.02183354 -0.02206665 -0.02146217 -0.02160747 -0.02182754 1000 -0.02183354 -0.02206665 -0.02146217 -0.02160747 -0.02182754 1000
lala 1 1.2 0 first 3 1 58 5 6.65 4.57999420166016 -1 1 -1 1 -0.02039179 -0.02064622 -0.02039936 1000 1000 1000 -0.02039179 -0.02064622 -0.02039936 1000 1000 1000 -0.02551137 -0.02418221 -0.02322907 -0.02287753 -0.02341588 1000 -0.02551137 -0.02418221 -0.02322907 -0.02287753 -0.02341588 1000
lala 7 1.2 0 first 9 1 59 5 4.25 10.7001099586487 1 1 -1 1 -0.0209408 -0.02226452 -0.02386247 1000 1000 1000 -0.0209408 -0.02226452 -0.02386247 1000 1000 1000 -0.02415065 -0.02313525 -0.02303178 -0.0218323 -0.02169614 1000 -0.02415065 -0.02313525 -0.02303178 -0.0218323 -0.02169614 1000
lala 5 1.2 1 second 16 1 60 6 6.36 0.359997987747192 0 0 1 0 -0.01042526 -0.01005597 -0.009609411 -0.008623605 -0.008688707 1000 -0.01042526 -0.01005597 -0.009609411 -0.008623605 -0.008688707 1000 -0.01001202 -0.009897825 -0.01035152 -0.009831168 -0.009846943 1000 -0.01001202 -0.009897825 -0.01035152 -0.009831168 -0.009846943 1000
lala 5 1.2 0 second 11 1 61 6 3.180001 0.479997873306274 1 1 -1 1 -0.01219043 -0.01248796 -0.01287279 -0.01251053 -0.01241251 1000 -0.01219043 -0.01248796 -0.01287279 -0.01251053 -0.01241251 1000 -0.01379257 -0.01374694 -0.01446825 -0.01401981 -0.01376055 1000 -0.01379257 -0.01374694 -0.01446825 -0.01401981 -0.01376055 1000
lala 3 1.2 1 second 0 1 62 4 5.04 1.29999709129334 -1 0 1 1 -0.01345802 -0.01405121 -0.01386062 -0.01401387 -0.01387207 1000 -0.01345802 -0.01405121 -0.01386062 -0.01401387 -0.01387207 1000 -0.01539601 -0.01484159 -0.01458811 -0.01358479 -0.01352225 1000 -0.01539601 -0.01484159 -0.01458811 -0.01358479 -0.01352225 1000
lala 2 1.2 0 first 5 1 63 6 6.780001 2.03999662399292 -1 1 -1 1 -0.01454862 -0.01465699 -0.01529919 1000 1000 1000 -0.01454862 -0.01465699 -0.01529919 1000 1000 1000 -0.01658725 -0.01735901 -0.0167174 -0.01698589 -0.01726519 1000 -0.01658725 -0.01735901 -0.0167174 -0.01698589 -0.01726519 1000
lala 6 1.2 1 second 10 1 64 6 5.16 0.739997625350952 1 0 1 1 -0.0183869 -0.01833294 -0.0185293 -0.01801055 -0.01841331 1000 -0.0183869 -0.01833294 -0.0185293 -0.01801055 -0.01841331 1000 -0.01978028 -0.02018126 -0.02053669 -0.01996343 -0.0198123 1000 -0.01978028 -0.02018126 -0.02053669 -0.01996343 -0.0198123 1000
lala 4 1.2 1 first 12 1 65 4 3.84 1.67999696731567 0 0 1 1 -0.02085777 -0.02093268 -0.02119565 1000 1000 1000 -0.02085777 -0.02093268 -0.02119565 1000 1000 1000 -0.0219967 -0.02241805 -0.02213191 -0.02248358 -0.02209622 1000 -0.0219967 -0.02241805 -0.02213191 -0.02248358 -0.02209622 1000
lala 3 1.2 1 first 5 1 66 6 7.98 3.25999546051025 -1 1 1 0 -0.02378308 -0.02451377 -0.02477833 1000 1000 1000 -0.02378308 -0.02451377 -0.02477833 1000 1000 1000 -0.02706252 -0.02702389 -0.02672258 -0.0268302 -0.02708869 1000 -0.02706252 -0.02702389 -0.02672258 -0.0268302 -0.02708869 1000
lala 3 1.2 1 first 17 1 67 6 7.98 0.559997797012329 0 1 1 0 -0.02035508 -0.01335255 -0.006917793 1000 1000 1000 -0.02035508 -0.01335255 -0.006917793 1000 1000 1000 -0.00562408 -0.005013866 -0.004509334 -0.005065908 -0.004986917 1000 -0.00562408 -0.005013866 -0.004509334 -0.005065908 -0.004986917 1000
lala 4 1.2 0 second 0 1 68 4 3.84 0.719997644424438 -1 0 -1 0 -0.005009575 -0.005051258 -0.00578608 -0.005418266 -0.006390426 1000 -0.005009575 -0.005051258 -0.00578608 -0.005418266 -0.006390426 1000 -0.008856181 -0.008672267 -0.009244276 -0.008772218 -0.008629372 1000 -0.008856181 -0.008672267 -0.009244276 -0.008772218 -0.008629372 1000
lala 4 1.2 1 second 17 1 69 6 6.780001 0.979997396469116 0 1 1 0 -0.009113703 -0.008971797 -0.009353032 -0.009064605 -0.009174123 1000 -0.009113703 -0.008971797 -0.009353032 -0.009064605 -0.009174123 1000 -0.009899121 -0.01028239 -0.01002109 -0.01027747 -0.01000567 1000 -0.009899121 -0.01028239 -0.01002109 -0.01027747 -0.01000567 1000
lala 2 1.2 1 second 15 1 70 5 5.45 2.09999656677246 0 1 1 0 -0.009393572 -0.009884885 -0.01000232 -0.009737664 -0.01019298 1000 -0.009393572 -0.009884885 -0.01000232 -0.009737664 -0.01019298 1000 -0.0106434 -0.01030167 -0.0106226 -0.01038386 -0.01015972 1000 -0.0106434 -0.01030167 -0.0106226 -0.01038386 -0.01015972 1000
lala 6 1.2 1 second 16 1 71 6 5.16 1.41999697685242 0 0 1 0 -0.01194545 -0.01174236 -0.01224939 -0.01180008 -0.01149642 1000 -0.01194545 -0.01174236 -0.01224939 -0.01180008 -0.01149642 1000 -0.01284594 -0.01321359 -0.01316685 -0.01274677 -0.01310495 1000 -0.01284594 -0.01321359 -0.01316685 -0.01274677 -0.01310495 1000
lala 4 1.2 0 first 6 1 72 4 3.84 3.05999565124512 1 0 -1 1 -0.01376898 -0.01342891 -0.01329306 1000 1000 1000 -0.01376898 -0.01342891 -0.01329306 1000 1000 1000 -0.01561884 -0.0152007 -0.01460485 -0.01463111 -0.01508215 1000 -0.01561884 -0.0152007 -0.01460485 -0.01463111 -0.01508215 1000
lala 5 1.2 1 first 17 1 73 6 5.580001 5.03999376296997 0 1 1 0 -0.01924247 -0.01888913 -0.01922437 1000 1000 1000 -0.01924247 -0.01888913 -0.01922437 1000 1000 1000 -0.01996203 -0.02025003 -0.01998144 -0.02044003 -0.02073588 1000 -0.01996203 -0.02025003 -0.01998144 -0.02044003 -0.02073588 1000
lala 5 1.2 0 second 12 1 74 4 2.64 1.15999722480774 0 0 -1 1 -0.006067977 -0.005715861 -0.006080041 -0.005037155 -0.00562525 1000 -0.006067977 -0.005715861 -0.006080041 -0.005037155 -0.00562525 1000 -0.009574969 -0.009593491 -0.009949843 -0.01006486 -0.01011118 1000 -0.009574969 -0.009593491 -0.009949843 -0.01006486 -0.01011118 1000
lala 5 1.2 1 second 0 1 75 4 5.04 7.92004632949829 -1 0 1 0 -0.01292665 -0.01261987 -0.01286658 -0.01268494 -0.01255486 1000 -0.01292665 -0.01261987 -0.01286658 -0.01268494 -0.01255486 1000 -0.01359776 -0.01359776 -0.01371813 -0.01361407 -0.01391695 1000 -0.01359776 -0.01359776 -0.01371813 -0.01361407 -0.01391695 1000
lala 6 1.2 0 second 12 1 76 4 3.84 5.65999460220337 0 0 -1 0 -0.01880761 -0.01867998 -0.01834613 -0.01838927 -0.01828445 1000 -0.01880761 -0.01867998 -0.01834613 -0.01838927 -0.01828445 1000 -0.01903316 -0.01849719 -0.01831704 -0.01908676 -0.01915751 1000 -0.01903316 -0.01849719 -0.01831704 -0.01908676 -0.01915751 1000
lala 6 1.2 1 second 0 1 77 4 3.84 6.74001932144165 -1 0 1 1 -0.0231749 -0.02256796 -0.02283822 -0.02293976 -0.02359159 1000 -0.0231749 -0.02256796 -0.02283822 -0.02293976 -0.02359159 1000 -0.02430419 -0.02435215 -0.0238807 -0.02377072 -0.02425209 1000 -0.02430419 -0.02435215 -0.0238807 -0.02377072 -0.02425209 1000
lala 3 1.2 0 second 8 1 78 5 3.3 4.47999429702759 1 0 -1 0 -0.00846491 -0.008819391 -0.008473984 -0.008928851 -0.009067023 1000 -0.00846491 -0.008819391 -0.008473984 -0.008928851 -0.009067023 1000 -0.01054125 -0.01027641 -0.01052318 -0.01106041 -0.01101804 1000 -0.01054125 -0.01027641 -0.01052318 -0.01106041 -0.01101804 1000
lala 7 1.2 0 first 0 1 79 4 2.64 0.939997434616089 -1 0 -1 1 -0.01466858 -0.01443675 -0.01426507 1000 1000 1000 -0.01466858 -0.01443675 -0.01426507 1000 1000 1000 -0.01552641 -0.01556031 -0.01600153 -0.01590415 -0.01623112 1000 -0.01552641 -0.01556031 -0.01600153 -0.01590415 -0.01623112 1000
lala 5 1.2 1 second 6 1 80 4 5.04 1.95999670028687 1 0 1 0 -0.01608769 -0.0156412 -0.01540123 -0.01562238 -0.01599761 1000 -0.01608769 -0.0156412 -0.01540123 -0.01562238 -0.01599761 1000 -0.01605807 -0.01542113 -0.01616747 -0.01617743 -0.01659164 1000 -0.01605807 -0.01542113 -0.01616747 -0.01617743 -0.01659164 1000
lala 6 1.2 0 first 17 1 81 6 4.380001 0.759997606277466 0 1 -1 1 -0.01719086 -0.01762185 -0.01756939 1000 1000 1000 -0.01719086 -0.01762185 -0.01756939 1000 1000 1000 -0.01861312 -0.01832876 -0.01863036 -0.01833029 -0.01810016 1000 -0.01861312 -0.01832876 -0.01863036 -0.01833029 -0.01810016 1000
lala 2 1.2 1 first 4 1 82 6 5.16 1.83999681472778 -1 0 1 1 -0.01833629 -0.01804782 -0.01858742 1000 1000 1000 -0.01833629 -0.01804782 -0.01858742 1000 1000 1000 -0.01925295 -0.01922173 -0.01956357 -0.01951006 -0.01927268 1000 -0.01925295 -0.01922173 -0.01956357 -0.01951006 -0.01927268 1000
lala 2 1.2 1 first 3 1 83 5 7.85 1.69999694824219 -1 1 1 1 -0.02173568 -0.02150903 -0.02149068 1000 1000 1000 -0.02173568 -0.02150903 -0.02149068 1000 1000 1000 -0.02238289 -0.02254009 -0.02213617 -0.02182643 -0.02200345 1000 -0.02238289 -0.02254009 -0.02213617 -0.02182643 -0.02200345 1000
lala 7 1.2 1 second 17 1 84 6 5.580001 5.3799934387207 0 1 1 1 -0.02507136 -0.0258653 -0.02562393 -0.02596293 -0.02557621 1000 -0.02507136 -0.0258653 -0.02562393 -0.02596293 -0.02557621 1000 -0.02543133 -0.0256022 -0.02548199 -0.02506107 -0.02514228 1000 -0.02543133 -0.0256022 -0.02548199 -0.02506107 -0.02514228 1000
lala 5 1.2 0 first 14 1 85 5 3.3 2.85999584197998 0 0 -1 0 -0.01986298 -0.01530249 -0.01241752 1000 1000 1000 -0.01986298 -0.01530249 -0.01241752 1000 1000 1000 -0.01385433 -0.01404579 -0.01332407 -0.01279318 -0.01301803 1000 -0.01385433 -0.01404579 -0.01332407 -0.01279318 -0.01301803 1000
lala 4 1.2 0 first 5 1 86 6 6.780001 2.5999960899353 -1 1 -1 1 -0.01723216 -0.01717632 -0.01581163 1000 1000 1000 -0.01723216 -0.01717632 -0.01581163 1000 1000 1000 -0.01659374 -0.01759906 -0.01792563 -0.01728331 -0.01763961 1000 -0.01659374 -0.01759906 -0.01792563 -0.01728331 -0.01763961 1000
lala 6 1.2 0 second 7 1 87 4 4.12 4.85999393463135 1 1 -1 0 -0.02297475 -0.02324549 -0.02385612 -0.02372203 -0.02439957 1000 -0.02297475 -0.02324549 -0.02385612 -0.02372203 -0.02439957 1000 -0.02573557 -0.02540934 -0.02563535 -0.02534768 -0.02491609 1000 -0.02573557 -0.02540934 -0.02563535 -0.02534768 -0.02491609 1000
lala 7 1.2 1 first 12 1 88 4 5.04 0.679997682571411 0 0 1 0 -0.0230816 -0.02074121 -0.01788794 1000 1000 1000 -0.0230816 -0.02074121 -0.01788794 1000 1000 1000 -0.01382467 -0.01357338 -0.01390201 -0.01457559 -0.01504481 1000 -0.01382467 -0.01357338 -0.01390201 -0.01457559 -0.01504481 1000
lala 8 1.2 0 second 0 1 89 4 3.84 0.839997529983521 -1 0 -1 0 -0.01581464 -0.01649894 -0.01572751 -0.01597503 -0.01602196 1000 -0.01581464 -0.01649894 -0.01572751 -0.01597503 -0.01602196 1000 -0.01653875 -0.01661262 -0.01656705 -0.01647649 -0.01658488 1000 -0.01653875 -0.01661262 -0.01656705 -0.01647649 -0.01658488 1000
lala 7 1.2 1 first 7 1 90 4 5.32 1.45999693870544 1 1 1 0 -0.01754525 -0.0176573 -0.01796854 1000 1000 1000 -0.01754525 -0.0176573 -0.01796854 1000 1000 1000 -0.01864114 -0.01870516 -0.01867623 -0.01860236 -0.01839764 1000 -0.01864114 -0.01870516 -0.01867623 -0.01860236 -0.01839764 1000
lala 3 1.2 1 first 4 1 91 6 3.96 6.98002481460571 -1 0 1 1 -0.02016155 -0.02036361 -0.02000252 1000 1000 1000 -0.02016155 -0.02036361 -0.02000252 1000 1000 1000 -0.02012581 -0.02042381 -0.02052519 -0.02010963 -0.02050872 1000 -0.02012581 -0.02042381 -0.02052519 -0.02010963 -0.02050872 1000
lala 8 1.2 0 second 12 1 92 4 3.84 4.15999460220337 0 0 -1 1 -0.02228321 -0.02219342 -0.0225078 -0.02289387 -0.02275047 1000 -0.02228321 -0.02219342 -0.0225078 -0.02289387 -0.02275047 1000 -0.02348845 -0.02338629 -0.02355408 -0.02449144 -0.02444391 1000 -0.02348845 -0.02338629 -0.02355408 -0.02449144 -0.02444391 1000
lala 9 1.2 1 second 12 1 93 4 5.04 0.319998025894165 0 0 1 1 -0.02140888 -0.02175264 -0.0226639 -0.02219519 -0.02256355 1000 -0.02140888 -0.02175264 -0.0226639 -0.02219519 -0.02256355 1000 -0.02291666 -0.02332891 -0.02344655 -0.02359264 -0.02300381 1000 -0.02291666 -0.02332891 -0.02344655 -0.02359264 -0.02300381 1000
lala 7 1.2 0 second 16 1 94 6 3.96 0.959997415542603 0 0 -1 0 -0.02381885 -0.02314515 -0.02386766 -0.02418326 -0.02398291 1000 -0.02381885 -0.02314515 -0.02386766 -0.02418326 -0.02398291 1000 -0.02466545 -0.02437902 -0.02419627 -0.0245117 -0.02525748 1000 -0.02466545 -0.02437902 -0.02419627 -0.0245117 -0.02525748 1000
lala 4 1.2 0 first 4 1 95 6 2.76 2.75999593734741 -1 0 -1 0 -0.02448984 -0.0248997 -0.02493563 1000 1000 1000 -0.02448984 -0.0248997 -0.02493563 1000 1000 1000 -0.02520526 -0.02527262 -0.02588555 -0.02529833 -0.02559344 1000 -0.02520526 -0.02527262 -0.02588555 -0.02529833 -0.02559344 1000
lala 3 1.2 1 second 1 1 96 4 7.72 0.579997777938843 -1 1 1 1 -0.01472672 -0.01349432 -0.01399723 -0.01475299 -0.0155879 1000 -0.01472672 -0.01349432 -0.01399723 -0.01475299 -0.0155879 1000 -0.01863413 -0.01872505 -0.01809234 -0.01801747 -0.01868591 1000 -0.01863413 -0.01872505 -0.01809234 -0.01801747 -0.01868591 1000
lala 8 1.2 0 second 17 1 97 6 4.380001 6.84002161026001 0 1 -1 1 -0.01919183 -0.01899136 -0.01929532 -0.02007705 -0.01985469 1000 -0.01919183 -0.01899136 -0.01929532 -0.02007705 -0.01985469 1000 -0.02012211 -0.01971163 -0.02029573 -0.02053026 -0.02094649 1000 -0.02012211 -0.01971163 -0.02029573 -0.02053026 -0.02094649 1000
lala 10 0.6 1 first 12 1 98 4 4.44 3.41999530792236 0 0 1 0 -0.02382553 -0.0242852 -0.02403365 1000 1000 1000 -0.02382553 -0.0242852 -0.02403365 1000 1000 1000 -0.02394304 -0.02378196 -0.02413703 -0.02377919 -0.02375129 1000 -0.02394304 -0.02378196 -0.02413703 -0.02377919 -0.02375129 1000
lala 5 1.2 0 first 4 1 99 6 3.96 0.699997663497925 -1 0 -1 0 -0.02476977 -0.02445583 -0.02438231 1000 1000 1000 -0.02476977 -0.02445583 -0.02438231 1000 1000 1000 -0.02522055 -0.02423188 -0.02400067 -0.02466678 -0.0247741 1000 -0.02522055 -0.02423188 -0.02400067 -0.02466678 -0.0247741 1000
lala 4 1.2 1 second 1 1 100 4 6.52 0.639997720718384 -1 1 1 1 -0.01059102 -0.008356465 -0.003513478 0.001484276 0.001065066 1000 -0.01059102 -0.008356465 -0.003513478 0.001484276 0.001065066 1000 0.008700214 0.006907149 0.006623665 0.007340899 0.003014159 1000 0.008700214 0.006907149 0.006623665 0.007340899 0.003014159 1000
lala 9 1.2 0 second 0 1 101 4 5.04 1.95999670028687 -1 0 -1 1 -0.003698085 -0.003920548 -0.004052794 -0.003232684 -0.004180552 1000 -0.003698085 -0.003920548 -0.004052794 -0.003232684 -0.004180552 1000 -0.006818467 -0.006882562 -0.007559305 -0.007082342 -0.007055037 1000 -0.006818467 -0.006882562 -0.007559305 -0.007082342 -0.007055037 1000
lala 8 1.2 1 first 7 1 102 4 4.12 3.81999492645264 1 1 1 1 -0.008011392 -0.00890113 -0.008959024 1000 1000 1000 -0.008011392 -0.00890113 -0.008959024 1000 1000 1000 -0.008711406 -0.008613422 -0.009292751 -0.008857132 -0.009510386 1000 -0.008711406 -0.008613422 -0.009292751 -0.008857132 -0.009510386 1000
lala 3 1.2 0 second 3 1 103 5 6.650001 1.45999693870544 -1 1 -1 1 -0.009470613 -0.009582097 -0.009525771 -0.009852988 -0.009950319 1000 -0.009470613 -0.009582097 -0.009525771 -0.009852988 -0.009950319 1000 -0.01273123 -0.01182864 -0.01141358 -0.0113285 -0.01221599 1000 -0.01273123 -0.01182864 -0.01141358 -0.0113285 -0.01221599 1000
lala 4 1.2 0 first 3 1 104 5 7.85 3.69999504089355 -1 1 -1 0 -0.01380596 -0.01443415 -0.01457894 1000 1000 1000 -0.01380596 -0.01443415 -0.01457894 1000 1000 1000 -0.01517007 -0.01522872 -0.01571846 -0.01559963 -0.015384 1000 -0.01517007 -0.01522872 -0.01571846 -0.01559963 -0.015384 1000
lala 6 1.2 1 first 13 1 105 4 4.12 5.59999322891235 0 1 1 1 -0.01302136 -0.01512242 -0.01462657 1000 1000 1000 -0.01302136 -0.01512242 -0.01462657 1000 1000 1000 -0.02004042 -0.01998351 -0.02042338 -0.01996112 -0.02028789 1000 -0.02004042 -0.01998351 -0.02042338 -0.01996112 -0.02028789 1000
lala 9 1.2 1 first 17 1 106 6 5.580001 0.99999737739563 0 1 1 1 -0.01619839 -0.01587548 -0.01516235 1000 1000 1000 -0.01619839 -0.01587548 -0.01516235 1000 1000 1000 -0.01459126 -0.0144777 -0.014034 -0.01400364 -0.01416131 1000 -0.01459126 -0.0144777 -0.014034 -0.01400364 -0.01416131 1000
lala 6 1.2 1 second 14 1 107 5 4.5 2.91999578475952 0 0 1 0 -0.01343682 -0.01327693 -0.01379588 -0.01373048 -0.01396891 1000 -0.01343682 -0.01327693 -0.01379588 -0.01373048 -0.01396891 1000 -0.01465773 -0.01424177 -0.01386767 -0.0136994 -0.01426725 1000 -0.01465773 -0.01424177 -0.01386767 -0.0136994 -0.01426725 1000
lala 7 1.2 1 second 14 1 108 5 3.3 2.41999626159668 0 0 1 1 -0.01207056 -0.01163993 -0.0115422 -0.01184609 -0.01207907 1000 -0.01207056 -0.01163993 -0.0115422 -0.01184609 -0.01207907 1000 -0.0134699 -0.01283799 -0.01322506 -0.01284375 -0.01384385 1000 -0.0134699 -0.01283799 -0.01322506 -0.01284375 -0.01384385 1000
lala 5 1.2 0 first 1 1 109 4 5.320001 10.8601136207581 -1 1 -1 0 -0.01472776 -0.01497376 -0.01403642 1000 1000 1000 -0.01472776 -0.01497376 -0.01403642 1000 1000 1000 -0.01261439 -0.01265214 -0.01308996 -0.01311275 -0.01331732 1000 -0.01261439 -0.01265214 -0.01308996 -0.01311275 -0.01331732 1000
lala 9 1.2 0 second 7 1 110 4 2.92 1.51999688148499 1 1 -1 0 -0.01206685 -0.009006105 -0.008597175 -0.01176808 -0.01547263 1000 -0.01206685 -0.009006105 -0.008597175 -0.01176808 -0.01547263 1000 -0.01722551 -0.01691167 -0.01602764 -0.01548868 -0.014919 1000 -0.01722551 -0.01691167 -0.01602764 -0.01548868 -0.014919 1000
lala 3 1.2 0 first 15 1 111 5 4.25 5.69999551773071 0 1 -1 1 -0.0206214 -0.01992546 -0.01734016 1000 1000 1000 -0.0206214 -0.01992546 -0.01734016 1000 1000 1000 -0.01891814 -0.01805532 -0.01858819 -0.01869509 -0.01913362 1000 -0.01891814 -0.01805532 -0.01858819 -0.01869509 -0.01913362 1000
lala 8 1.2 1 first 9 1 112 5 5.45 1.63999700546265 1 1 1 0 -0.0217232 -0.0218082 -0.02185313 1000 1000 1000 -0.0217232 -0.0218082 -0.02185313 1000 1000 1000 -0.02262294 -0.02239876 -0.02354494 -0.02340912 -0.02471492 1000 -0.02262294 -0.02239876 -0.02354494 -0.02340912 -0.02471492 1000
lala 6 1.2 1 second 1 1 113 4 6.52 4.9399938583374 -1 1 1 0 -0.01919719 -0.01870391 -0.02008548 -0.01922002 -0.02073951 1000 -0.01919719 -0.01870391 -0.02008548 -0.01922002 -0.02073951 1000 -0.02459422 -0.02505941 -0.02498641 -0.02471377 -0.02509768 1000 -0.02459422 -0.02505941 -0.02498641 -0.02471377 -0.02509768 1000
lala 6 1.2 0 first 4 1 114 6 5.16 1.45999693870544 -1 0 -1 1 -0.01422324 -0.01617955 -0.01734346 1000 1000 1000 -0.01422324 -0.01617955 -0.01734346 1000 1000 1000 -0.0009905337 -0.002517044 -0.001914857 -0.0009430684 -0.003202365 1000 -0.0009905337 -0.002517044 -0.001914857 -0.0009430684 -0.003202365 1000
lala 7 1.2 0 second 13 1 115 4 2.92 1.03999733924866 0 1 -1 1 -0.0131161 -0.01456486 -0.01917597 -0.01963372 -0.02003971 1000 -0.0131161 -0.01456486 -0.01917597 -0.01963372 -0.02003971 1000 -0.02051786 -0.02079384 -0.02016418 -0.01956877 -0.01908332 1000 -0.02051786 -0.02079384 -0.02016418 -0.01956877 -0.01908332 1000
lala 8 1.2 0 first 14 1 116 5 2.1 1.5399968624115 0 0 -1 1 -0.02457449 -0.02544856 -0.02596128 1000 1000 1000 -0.02457449 -0.02544856 -0.02596128 1000 1000 1000 -0.02170003 -0.02182576 -0.02117047 -0.02135171 -0.02227503 1000 -0.02170003 -0.02182576 -0.02117047 -0.02135171 -0.02227503 1000
lala 8 1.2 1 first 2 1 117 5 6.9 2.41999626159668 -1 0 1 1 -0.02487845 -0.02489592 -0.02369517 1000 1000 1000 -0.02487845 -0.02489592 -0.02369517 1000 1000 1000 -0.006742847 -0.0067848 -0.00718495 -0.006516897 -0.006539131 1000 -0.006742847 -0.0067848 -0.00718495 -0.006516897 -0.006539131 1000
lala 7 1.2 0 first 4 1 118 6 6.36 1.7199969291687 -1 0 -1 1 -0.0116279 -0.01206823 -0.01220664 1000 1000 1000 -0.0116279 -0.01206823 -0.01220664 1000 1000 1000 -0.01769796 -0.01809533 -0.01767066 -0.01746319 -0.01738869 1000 -0.01769796 -0.01809533 -0.01767066 -0.01746319 -0.01738869 1000
lala 11 0.6 1 first 12 1 119 4 3.84 1.27999711036682 0 0 1 0 -0.02047776 -0.02047825 -0.02087092 1000 1000 1000 -0.02047776 -0.02047825 -0.02087092 1000 1000 1000 -0.0256263 -0.02545512 -0.0253219 -0.02532718 -0.02517096 1000 -0.0256263 -0.02545512 -0.0253219 -0.02532718 -0.02517096 1000
lala 5 1.2 1 first 3 1 120 5 9.05 1.15999722480774 -1 1 1 1 -0.02421804 -0.02551502 -0.02704947 1000 1000 1000 -0.02421804 -0.02551502 -0.02704947 1000 1000 1000 -0.02694901 -0.02585433 -0.02637566 -0.02605921 -0.02602226 1000 -0.02694901 -0.02585433 -0.02637566 -0.02605921 -0.02602226 1000
lala 8 1.2 0 second 16 1 121 6 5.16 1.05999732017517 0 0 -1 1 -0.01990231 -0.02073913 -0.02101713 -0.02011603 -0.02064556 1000 -0.01990231 -0.02073913 -0.02101713 -0.02011603 -0.02064556 1000 -0.02454189 -0.0248933 -0.02475485 -0.02561539 -0.02542296 1000 -0.02454189 -0.0248933 -0.02475485 -0.02561539 -0.02542296 1000
lala 8 1.2 1 second 13 1 122 4 4.12 3.6199951171875 0 1 1 1 -0.01789879 -0.01869657 -0.01891655 -0.02027295 -0.02049796 1000 -0.01789879 -0.01869657 -0.01891655 -0.02027295 -0.02049796 1000 -0.02341707 -0.02278812 -0.02254395 -0.0225052 -0.02315685 1000 -0.02341707 -0.02278812 -0.02254395 -0.0225052 -0.02315685 1000
lala 12 0.6 0 second 12 1 123 4 3.24 1.15999722480774 0 0 -1 0 -0.01596141 -0.01579013 -0.0157719 -0.01554617 -0.01573634 1000 -0.01596141 -0.01579013 -0.0157719 -0.01554617 -0.01573634 1000 -0.01626153 -0.01633915 -0.01647796 -0.01654783 -0.01742754 1000 -0.01626153 -0.01633915 -0.01647796 -0.01654783 -0.01742754 1000
lala 9 1.2 0 first 9 1 124 5 4.25 3.15999555587769 1 1 -1 1 -0.01830635 -0.01815842 -0.01786299 1000 1000 1000 -0.01830635 -0.01815842 -0.01786299 1000 1000 1000 -0.01845052 -0.01827219 -0.01836856 -0.01889399 -0.01906463 1000 -0.01845052 -0.01827219 -0.01836856 -0.01889399 -0.01906463 1000
lala 9 1.2 0 first 16 1 125 6 6.36 1.59999680519104 0 0 -1 1 -0.02636463 -0.02599497 -0.02250181 1000 1000 1000 -0.02636463 -0.02599497 -0.02250181 1000 1000 1000 -0.02516851 -0.02515578 -0.02442537 -0.02465344 -0.02407179 1000 -0.02516851 -0.02515578 -0.02442537 -0.02465344 -0.02407179 1000
lala 6 1.2 0 second 6 1 126 4 3.84 3.01999568939209 1 0 -1 1 -0.02305387 -0.02297681 -0.02297049 -0.02298106 -0.02296487 1000 -0.02305387 -0.02297681 -0.02297049 -0.02298106 -0.02296487 1000 -0.02539475 -0.02486652 -0.02414061 -0.02378349 -0.02412399 1000 -0.02539475 -0.02486652 -0.02414061 -0.02378349 -0.02412399 1000
lala 13 0.3 1 first 12 1 127 4 3.54 1.93999671936035 0 0 1 1 -0.02444867 -0.02478913 -0.02413464 1000 1000 1000 -0.02444867 -0.02478913 -0.02413464 1000 1000 1000 -0.02497338 -0.02557145 -0.02486003 -0.02462532 -0.0241791 1000 -0.02497338 -0.02557145 -0.02486003 -0.02462532 -0.0241791 1000
lala 14 0.15 1 first 12 1 128 4 3.39 1.47999691963196 0 0 1 0 -0.01314825 -0.01355697 -0.01508493 1000 1000 1000 -0.01314825 -0.01355697 -0.01508493 1000 1000 1000 -0.01863874 -0.01843683 -0.01867343 -0.01778334 -0.01849247 1000 -0.01863874 -0.01843683 -0.01867343 -0.01778334 -0.01849247 1000
lala 10 0.6 0 first 7 1 129 4 3.52 1.01999735832214 1 1 -1 1 -0.02071156 -0.02082411 -0.02018623 1000 1000 1000 -0.02071156 -0.02082411 -0.02018623 1000 1000 1000 -0.02128742 -0.02132808 -0.02124222 -0.02177067 -0.02130011 1000 -0.02128742 -0.02132808 -0.02124222 -0.02177067 -0.02130011 1000
lala 15 0.15 0 first 12 1 130 4 3.24 7.30003213882446 0 0 -1 0 -0.02289903 -0.02287977 -0.02332946 1000 1000 1000 -0.02289903 -0.02287977 -0.02332946 1000 1000 1000 -0.02412676 -0.0229552 -0.02360581 -0.0237703 -0.02329874 1000 -0.02412676 -0.0229552 -0.02360581 -0.0237703 -0.02329874 1000
lala 7 1.2 0 second 10 1 131 6 3.96 4.41999435424805 1 0 -1 1 -0.01888786 -0.01885295 -0.01938022 -0.01822059 -0.01726864 1000 -0.01888786 -0.01885295 -0.01938022 -0.01822059 -0.01726864 1000 -0.01898577 -0.01797187 -0.01735278 -0.01770467 -0.01751422 1000 -0.01898577 -0.01797187 -0.01735278 -0.01770467 -0.01751422 1000
lala 10 0.6 1 second 9 1 132 5 4.85 0.499997854232788 1 1 1 0 -0.02403482 -0.02382588 -0.02345186 -0.02378435 -0.02357707 1000 -0.02403482 -0.02382588 -0.02345186 -0.02378435 -0.02357707 1000 -0.02523165 -0.02499852 -0.02522661 -0.02440227 -0.02494031 1000 -0.02523165 -0.02499852 -0.02522661 -0.02440227 -0.02494031 1000
lala 9 1.2 1 first 2 1 133 5 5.7 2.87999582290649 -1 0 1 1 -0.02475123 -0.02400122 -0.02433046 1000 1000 1000 -0.02475123 -0.02400122 -0.02433046 1000 1000 1000 -0.02439764 -0.02443254 -0.02404681 -0.02369522 -0.02440245 1000 -0.02439764 -0.02443254 -0.02404681 -0.02369522 -0.02440245 1000
lala 4 1.2 1 second 15 1 134 5 5.45 0.719997644424438 0 1 1 1 -0.02118033 -0.02189561 -0.02163859 -0.02201774 -0.02246516 1000 -0.02118033 -0.02189561 -0.02163859 -0.02201774 -0.02246516 1000 -0.02239333 -0.02286439 -0.0231942 -0.02286924 -0.02275965 1000 -0.02239333 -0.02286439 -0.0231942 -0.02286924 -0.02275965 1000
lala 7 1.2 1 first 1 1 135 4 5.320001 4.83999395370483 -1 1 1 0 -0.0235382 -0.02428672 -0.02363078 1000 1000 1000 -0.0235382 -0.02428672 -0.02363078 1000 1000 1000 -0.02438871 -0.02457296 -0.02436629 -0.02439552 -0.02365851 1000 -0.02438871 -0.02457296 -0.02436629 -0.02439552 -0.02365851 1000
lala 9 1.2 1 second 13 1 136 4 2.92 4.41999435424805 0 1 1 1 -0.02226533 -0.02191589 -0.02157884 -0.02213967 -0.02264132 1000 -0.02226533 -0.02191589 -0.02157884 -0.02213967 -0.02264132 1000 -0.0241353 -0.02457295 -0.02479314 -0.02350514 -0.0243332 1000 -0.0241353 -0.02457295 -0.02479314 -0.02350514 -0.0243332 1000
lala 11 0.3 1 second 9 1 137 5 4.55 5.41999340057373 1 1 1 1 -0.02689501 -0.02638403 -0.02603246 -0.02639824 -0.02688682 1000 -0.02689501 -0.02638403 -0.02603246 -0.02639824 -0.02688682 1000 -0.02738096 -0.02762391 -0.02652405 -0.02700473 -0.0277565 1000 -0.02738096 -0.02762391 -0.02652405 -0.02700473 -0.0277565 1000
lala 8 1.2 1 first 10 1 138 6 5.16 2.55999612808228 1 0 1 0 -0.02558891 -0.02612936 -0.02605001 1000 1000 1000 -0.02558891 -0.02612936 -0.02605001 1000 1000 1000 -0.0260848 -0.02650455 -0.02658401 -0.02574385 -0.02666482 1000 -0.0260848 -0.02650455 -0.02658401 -0.02574385 -0.02666482 1000
lala 6 1.2 1 second 3 1 139 5 7.85 0.879997491836548 -1 1 1 1 -0.02303202 -0.02245172 -0.02270034 -0.02390679 -0.02377944 1000 -0.02303202 -0.02245172 -0.02270034 -0.02390679 -0.02377944 1000 -0.0240117 -0.02454655 -0.02456642 -0.02365898 -0.02335437 1000 -0.0240117 -0.02454655 -0.02456642 -0.02365898 -0.02335437 1000
lala 6 1.2 0 second 11 1 140 6 4.380001 3.73999500274658 1 1 -1 0 -0.02360478 -0.02366312 -0.02435761 -0.02374731 -0.02441738 1000 -0.02360478 -0.02366312 -0.02435761 -0.02374731 -0.02441738 1000 -0.02500336 -0.02540586 -0.02475592 -0.02426838 -0.02423185 1000 -0.02500336 -0.02540586 -0.02475592 -0.02426838 -0.02423185 1000
lala 10 2.4 1 second 0 1 141 4 7.44 0.61999773979187 -1 0 1 1 -0.02090196 -0.02095265 -0.0209874 -0.02052149 -0.02092763 1000 -0.02090196 -0.02095265 -0.0209874 -0.02052149 -0.02092763 1000 -0.0239057 -0.02404174 -0.02285242 -0.02253003 -0.02275791 1000 -0.0239057 -0.02404174 -0.02285242 -0.02253003 -0.02275791 1000
lala 10 1.2 0 first 13 1 142 4 1.72 1.47999691963196 0 1 -1 1 -0.02529198 -0.02492332 -0.02601341 1000 1000 1000 -0.02529198 -0.02492332 -0.02601341 1000 1000 1000 -0.02786626 -0.02741915 -0.02727522 -0.02850039 -0.02883589 1000 -0.02786626 -0.02741915 -0.02727522 -0.02850039 -0.02883589 1000
lala 9 1.2 0 second 14 1 143 5 3.3 1.27999711036682 0 0 -1 0 -0.01272647 -0.01197643 -0.01190051 -0.01294373 -0.0128219 1000 -0.01272647 -0.01197643 -0.01190051 -0.01294373 -0.0128219 1000 -0.01546563 -0.01657673 -0.01664491 -0.01676768 -0.01730259 1000 -0.01546563 -0.01657673 -0.01664491 -0.01676768 -0.01730259 1000
lala 5 1.2 1 second 5 1 144 6 7.98 0.699997663497925 -1 1 1 1 -0.019559 -0.01989773 -0.01960137 -0.02002327 -0.02045063 1000 -0.019559 -0.01989773 -0.01960137 -0.02002327 -0.02045063 1000 -0.02165094 -0.02128196 -0.0211923 -0.02099982 -0.02124172 1000 -0.02165094 -0.02128196 -0.0211923 -0.02099982 -0.02124172 1000
lala 8 1.2 1 first 4 1 145 6 7.559999 6.48001337051392 -1 0 1 0 -0.02400387 -0.02293104 -0.02273428 1000 1000 1000 -0.02400387 -0.02293104 -0.02273428 1000 1000 1000 -0.02338786 -0.02313165 -0.02263462 -0.02245451 -0.02312211 1000 -0.02338786 -0.02313165 -0.02263462 -0.02245451 -0.02312211 1000
lala 10 1.2 1 first 2 1 146 5 4.5 4.91999387741089 -1 0 1 1 -0.02139622 -0.02079081 -0.02109517 1000 1000 1000 -0.02139622 -0.02079081 -0.02109517 1000 1000 1000 -0.02182417 -0.02157644 -0.02181824 -0.022332 -0.02195627 1000 -0.02182417 -0.02157644 -0.02181824 -0.022332 -0.02195627 1000
lala 10 1.2 1 second 14 1 147 5 4.5 1.43999695777893 0 0 1 1 -0.01855817 -0.017897 -0.01722091 -0.01710557 -0.0176356 1000 -0.01855817 -0.017897 -0.01722091 -0.01710557 -0.0176356 1000 -0.01844086 -0.01897393 -0.0185559 -0.0191106 -0.02006057 1000 -0.01844086 -0.01897393 -0.0185559 -0.0191106 -0.02006057 1000
lala 7 1.2 1 first 11 1 148 6 5.580001 1.7199969291687 1 1 1 0 -0.0181988 -0.01864059 -0.01833659 1000 1000 1000 -0.0181988 -0.01864059 -0.01833659 1000 1000 1000 -0.01891024 -0.01871612 -0.0187267 -0.0194063 -0.01876794 1000 -0.01891024 -0.01871612 -0.0187267 -0.0194063 -0.01876794 1000
lala 9 1.2 0 second 10 1 149 6 3.96 3.35999536514282 1 0 -1 0 -0.01868463 -0.01869101 -0.01780304 -0.01769433 -0.01825836 1000 -0.01868463 -0.01869101 -0.01780304 -0.01769433 -0.01825836 1000 -0.01819388 -0.01771208 -0.01831714 -0.01899591 -0.01818756 1000 -0.01819388 -0.01771208 -0.01831714 -0.01899591 -0.01818756 1000
lala 11 0.6 0 second 14 1 150 5 3.9 0.959997415542603 0 0 -1 1 0.005876262 0.005060168 0.005656943 0.004363792 0.004122541 1000 0.005876262 0.005060168 0.005656943 0.004363792 0.004122541 1000 0.002837315 0.002942386 0.003316854 0.002360934 0.002559524 1000 0.002837315 0.002942386 0.003316854 0.002360934 0.002559524 1000
lala 10 2.4 1 first 16 1 151 6 8.76 1.21999716758728 0 0 1 1 0.001843585 0.002161027 0.001245443 1000 1000 1000 0.001843585 0.002161027 0.001245443 1000 1000 1000 0.002149822 0.002138888 0.002073638 0.002074494 0.002706124 1000 0.002149822 0.002138888 0.002073638 0.002074494 0.002706124 1000
lala 7 1.2 0 first 3 1 152 5 6.650001 2.35999631881714 -1 1 -1 0 0.002357578 0.00180159 0.001743083 1000 1000 1000 0.002357578 0.00180159 0.001743083 1000 1000 1000 0.001789657 0.001867763 0.001532752 0.002329295 0.001753578 1000 0.001789657 0.001867763 0.001532752 0.002329295 0.001753578 1000
lala 5 1.2 1 second 15 1 153 5 4.25 2.45999622344971 0 1 1 1 0.001326516 0.001549489 0.001960194 0.001519374 0.001312446 1000 0.001326516 0.001549489 0.001960194 0.001519374 0.001312446 1000 -0.0003080827 7.724158E-05 0.0004279457 -0.0001202098 -4.219009E-05 1000 -0.0003080827 7.724158E-05 0.0004279457 -0.0001202098 -4.219009E-05 1000
lala 16 0.075 1 first 12 1 154 4 3.315 1.3999969959259 0 0 1 1 -0.0009993952 -0.001745424 -0.002269655 1000 1000 1000 -0.0009993952 -0.001745424 -0.002269655 1000 1000 1000 -0.002463612 -0.002674339 -0.002522938 -0.002497257 -0.002287039 1000 -0.002463612 -0.002674339 -0.002522938 -0.002497257 -0.002287039 1000
lala 11 2.4 0 first 2 1 155 5 2.1 0.979997396469116 -1 0 -1 1 -0.003030529 -0.002762035 -0.003125308 1000 1000 1000 -0.003030529 -0.002762035 -0.003125308 1000 1000 1000 -0.003772565 -0.003948973 -0.004065282 -0.003706849 -0.003470189 1000 -0.003772565 -0.003948973 -0.004065282 -0.003706849 -0.003470189 1000
lala 12 0.3 1 second 14 1 156 5 4.2 0.839997529983521 0 0 1 0 -0.004153946 -0.004233878 -0.003550647 -0.003873191 -0.004940662 1000 -0.004153946 -0.004233878 -0.003550647 -0.003873191 -0.004940662 1000 -0.006098766 -0.005306757 -0.004585719 -0.004723931 -0.005317099 1000 -0.006098766 -0.005306757 -0.004585719 -0.004723931 -0.005317099 1000
lala 13 0.15 1 second 14 1 157 5 4.05 2.5999960899353 0 0 1 0 -0.004713885 -0.004381625 -0.004164611 -0.004442649 -0.004104632 1000 -0.004713885 -0.004381625 -0.004164611 -0.004442649 -0.004104632 1000 -0.005743026 -0.005638112 -0.005511714 -0.005586835 -0.005966354 1000 -0.005743026 -0.005638112 -0.005511714 -0.005586835 -0.005966354 1000
lala 8 1.2 1 second 11 1 158 6 4.380001 3.81999492645264 1 1 1 1 -0.005925252 -0.005847939 -0.006239087 -0.006922549 -0.007435331 1000 -0.005925252 -0.005847939 -0.006239087 -0.006922549 -0.007435331 1000 -0.007085648 -0.007298446 -0.007369637 -0.006580388 -0.00738695 1000 -0.007085648 -0.007298446 -0.007369637 -0.006580388 -0.00738695 1000
lala 9 1.2 1 second 4 1 159 6 6.36 0.739997625350952 -1 0 1 0 0.000675224 -0.001274651 -0.002329909 -0.002722926 -0.003094945 1000 0.000675224 -0.001274651 -0.002329909 -0.002722926 -0.003094945 1000 -0.009570432 -0.01011997 -0.009522258 -0.008832078 -0.008537157 1000 -0.009570432 -0.01011997 -0.009522258 -0.008832078 -0.008537157 1000
lala 10 0.6 0 first 17 1 160 6 4.980001 5.5199933052063 0 1 -1 1 -0.006499892 -0.007583603 -0.007919705 1000 1000 1000 -0.006499892 -0.007583603 -0.007919705 1000 1000 1000 -0.00917834 -0.009779469 -0.009401476 -0.009538018 -0.009419294 1000 -0.00917834 -0.009779469 -0.009401476 -0.009538018 -0.009419294 1000
lala 6 1.2 0 second 15 1 161 5 3.05 0.61999773979187 0 1 -1 1 -0.01686016 -0.01654329 -0.01695154 -0.01725677 -0.01777399 1000 -0.01686016 -0.01654329 -0.01695154 -0.01725677 -0.01777399 1000 -0.01590101 -0.01596596 -0.01590332 -0.01727239 -0.0169148 1000 -0.01590101 -0.01596596 -0.01590332 -0.01727239 -0.0169148 1000
lala 9 1.2 0 first 11 1 162 6 3.180001 1.5399968624115 1 1 -1 1 -0.01800575 -0.01881121 -0.01855389 1000 1000 1000 -0.01800575 -0.01881121 -0.01855389 1000 1000 1000 -0.01842762 -0.01809444 -0.01774167 -0.01811238 -0.0182047 1000 -0.01842762 -0.01809444 -0.01774167 -0.01811238 -0.0182047 1000
lala 11 0.3 0 first 17 1 163 6 5.280001 7.28003168106079 0 1 -1 0 -0.01870366 -0.01855882 -0.01836647 1000 1000 1000 -0.01870366 -0.01855882 -0.01836647 1000 1000 1000 -0.01965009 -0.01892 -0.01906387 -0.01990141 -0.0203363 1000 -0.01965009 -0.01892 -0.01906387 -0.01990141 -0.0203363 1000
lala 12 0.3 1 second 17 1 164 6 5.580001 0.39999794960022 0 1 1 1 -0.0165155 -0.0170471 -0.01639139 -0.01649402 -0.0166517 1000 -0.0165155 -0.0170471 -0.01639139 -0.01649402 -0.0166517 1000 -0.01663369 -0.01634921 -0.01616855 -0.01591058 -0.01600268 1000 -0.01663369 -0.01634921 -0.01616855 -0.01591058 -0.01600268 1000
lala 6 1.2 1 second 5 1 165 6 6.780001 2.01999664306641 -1 1 1 0 -0.01675897 -0.01661528 -0.01633752 -0.01635089 -0.01707658 1000 -0.01675897 -0.01661528 -0.01633752 -0.01635089 -0.01707658 1000 -0.01762585 -0.01714253 -0.01772538 -0.01740382 -0.01705531 1000 -0.01762585 -0.01714253 -0.01772538 -0.01740382 -0.01705531 1000
lala 7 1.2 0 second 15 1 166 5 4.25 2.35999631881714 0 1 -1 1 -0.01792316 -0.01898967 -0.01878821 -0.01900071 -0.01872471 1000 -0.01792316 -0.01898967 -0.01878821 -0.01900071 -0.01872471 1000 -0.02048202 -0.01981067 -0.0205481 -0.0201491 -0.01990019 1000 -0.02048202 -0.01981067 -0.0205481 -0.0201491 -0.01990019 1000
lala 13 0.15 0 first 17 1 167 6 5.430001 3.89999485015869 0 1 -1 1 -0.02199815 -0.02231905 -0.02270952 1000 1000 1000 -0.02199815 -0.02231905 -0.02270952 1000 1000 1000 -0.02370108 -0.02362933 -0.02344132 -0.02295954 -0.02381692 1000 -0.02370108 -0.02362933 -0.02344132 -0.02295954 -0.02381692 1000
lala 11 1.2 1 second 16 1 168 6 7.56 0.579997777938843 0 0 1 0 -0.01757407 -0.01710275 -0.01730081 -0.01707253 -0.01742264 1000 -0.01757407 -0.01710275 -0.01730081 -0.01707253 -0.01742264 1000 -0.01794481 -0.0179631 -0.01832423 -0.01720483 -0.01808637 1000 -0.01794481 -0.0179631 -0.01832423 -0.01720483 -0.01808637 1000
lala 8 1.2 1 first 1 1 169 4 4.120001 2.57999610900879 -1 1 1 1 -0.0181961 -0.01835941 -0.01850843 1000 1000 1000 -0.0181961 -0.01835941 -0.01850843 1000 1000 1000 -0.01839246 -0.01778766 -0.0184623 -0.01880926 -0.019154 1000 -0.01839246 -0.01778766 -0.0184623 -0.01880926 -0.019154 1000
lala 11 1.2 1 second 0 1 170 4 6.24 1.73999691009521 -1 0 1 1 -0.01934555 -0.0190828 -0.01890475 -0.01849939 -0.01883094 1000 -0.01934555 -0.0190828 -0.01890475 -0.01849939 -0.01883094 1000 -0.02009408 -0.0204852 -0.0196344 -0.01949292 -0.01988053 1000 -0.02009408 -0.0204852 -0.0196344 -0.01949292 -0.01988053 1000
lala 9 1.2 1 first 1 1 171 4 2.920001 2.2999963760376 -1 1 1 0 -0.02069917 -0.02083257 -0.02068818 1000 1000 1000 -0.02069917 -0.02083257 -0.02068818 1000 1000 1000 -0.02151429 -0.02195179 -0.0216253 -0.02138025 -0.02145483 1000 -0.02151429 -0.02195179 -0.0216253 -0.02138025 -0.02145483 1000
lala 10 2.4 0 first 1 1 172 4 1.32 2.17999649047852 -1 1 -1 1 -0.02434797 -0.02540557 -0.02581679 1000 1000 1000 -0.02434797 -0.02540557 -0.02581679 1000 1000 1000 -0.02202578 -0.02189795 -0.02211298 -0.0219561 -0.02197782 1000 -0.02202578 -0.02189795 -0.02211298 -0.0219561 -0.02197782 1000
lala 10 0.6 0 first 11 1 173 6 3.780001 2.03999662399292 1 1 -1 0 -0.02207279 -0.02339055 -0.02289462 1000 1000 1000 -0.02207279 -0.02339055 -0.02289462 1000 1000 1000 -0.02613424 -0.02528032 -0.02532974 -0.02428956 -0.02401255 1000 -0.02613424 -0.02528032 -0.02532974 -0.02428956 -0.02401255 1000
lala 14 0.15 0 second 14 1 174 5 3.9 4.01999473571777 0 0 -1 1 -0.02318117 -0.02389425 -0.02424442 -0.02390236 -0.02374784 1000 -0.02318117 -0.02389425 -0.02424442 -0.02390236 -0.02374784 1000 -0.02404314 -0.02464955 -0.02415225 -0.02418638 -0.02414794 1000 -0.02404314 -0.02464955 -0.02415225 -0.02418638 -0.02414794 1000
lala 11 1.2 0 first 1 1 175 4 2.52 3.59999513626099 -1 1 -1 1 -0.02115007 -0.02021019 -0.02012781 1000 1000 1000 -0.02115007 -0.02021019 -0.02012781 1000 1000 1000 -0.01808303 -0.01778149 -0.01892492 -0.01990324 -0.01983279 1000 -0.01808303 -0.01778149 -0.01892492 -0.01990324 -0.01983279 1000
lala 12 1.2 0 first 1 1 176 4 3.72 2.01999664306641 -1 1 -1 0 -0.02077967 -0.02046651 -0.02097327 1000 1000 1000 -0.02077967 -0.02046651 -0.02097327 1000 1000 1000 -0.02183073 -0.02181141 -0.02170827 -0.02166852 -0.02207284 1000 -0.02183073 -0.02181141 -0.02170827 -0.02166852 -0.02207284 1000
lala 14 0.075 1 first 17 1 177 6 5.505001 1.25999712944031 0 1 1 0 -0.02102503 -0.02098774 -0.02120758 1000 1000 1000 -0.02102503 -0.02098774 -0.02120758 1000 1000 1000 -0.02289464 -0.0233023 -0.0223303 -0.02286372 -0.02299204 1000 -0.02289464 -0.0233023 -0.0223303 -0.02286372 -0.02299204 1000
lala 11 0.6 0 first 11 1 178 6 4.380001 8.14005136489868 1 1 -1 0 -0.02145508 -0.02111404 -0.02166063 1000 1000 1000 -0.02145508 -0.02111404 -0.02166063 1000 1000 1000 -0.02398723 -0.02345971 -0.0232287 -0.02356379 -0.02421436 1000 -0.02398723 -0.02345971 -0.0232287 -0.02356379 -0.02421436 1000
lala 11 0.6 1 first 7 1 179 4 4.12 3.77999496459961 1 1 1 0 -0.01686834 -0.01889204 -0.02053727 1000 1000 1000 -0.01686834 -0.01889204 -0.02053727 1000 1000 1000 -0.0182685 -0.01876613 -0.0184396 -0.01849633 -0.01841169 1000 -0.0182685 -0.01876613 -0.0184396 -0.01849633 -0.01841169 1000
lala 12 0.3 0 first 7 1 180 4 3.82 2.05999660491943 1 1 -1 0 -0.02034926 -0.02082663 -0.02092339 1000 1000 1000 -0.02034926 -0.02082663 -0.02092339 1000 1000 1000 -0.02066497 -0.01981016 -0.02068255 -0.0201652 -0.02025752 1000 -0.02066497 -0.01981016 -0.02068255 -0.0201652 -0.02025752 1000
lala 12 0.3 1 first 9 1 181 5 4.25 3.69999504089355 1 1 1 1 -0.02209193 -0.02250463 -0.02257951 1000 1000 1000 -0.02209193 -0.02250463 -0.02257951 1000 1000 1000 -0.02002792 -0.02001911 -0.02034692 -0.02212952 -0.02182052 1000 -0.02002792 -0.02001911 -0.02034692 -0.02212952 -0.02182052 1000
lala 10 0.6 1 first 10 1 182 6 4.56 6.2800087928772 1 0 1 1 -0.02267791 -0.02173069 -0.02059651 1000 1000 1000 -0.02267791 -0.02173069 -0.02059651 1000 1000 1000 -0.01993163 -0.0197558 -0.01966088 -0.02013343 -0.02081998 1000 -0.01993163 -0.0197558 -0.01966088 -0.02013343 -0.02081998 1000
lala 12 0.6 1 second 11 1 183 6 4.980001 0.61999773979187 1 1 1 0 0.003916224 0.004275067 0.003697124 0.004008569 0.004068156 1000 0.003916224 0.004275067 0.003697124 0.004008569 0.004068156 1000 0.001603215 0.001661121 0.00156547 0.001777919 0.0009618369 1000 0.001603215 0.001661121 0.00156547 0.001777919 0.0009618369 1000
lala 13 0.3 1 first 11 1 184 6 4.680001 1.89999675750732 1 1 1 0 0.002857172 0.00260893 0.002313941 1000 1000 1000 0.002857172 0.00260893 0.002313941 1000 1000 1000 0.001999697 0.001988454 0.001621944 0.001263293 0.001679115 1000 0.001999697 0.001988454 0.001621944 0.001263293 0.001679115 1000
lala 8 1.2 1 first 3 1 185 5 7.85 0.819997549057007 -1 1 1 1 0.001406274 0.002244672 0.002238246 1000 1000 1000 0.001406274 0.002244672 0.002238246 1000 1000 1000 0.001195483 0.001617248 0.001317972 0.001503182 0.001554052 1000 0.001195483 0.001617248 0.001317972 0.001503182 0.001554052 1000
lala 15 0.075 0 second 14 1 186 5 3.975 1.07999730110168 0 0 -1 1 0.0009425773 0.001256346 0.0008229146 0.0003719213 -0.0002429199 1000 0.0009425773 0.001256346 0.0008229146 0.0003719213 -0.0002429199 1000 -0.0008725295 -0.000588229 -0.0001556009 -0.000834036 -0.001048534 1000 -0.0008725295 -0.000588229 -0.0001556009 -0.000834036 -0.001048534 1000
lala 13 0.3 1 first 9 1 187 5 3.95 1.87999677658081 1 1 1 1 -0.000564478 -0.0003672055 -0.0001571268 1000 1000 1000 -0.000564478 -0.0003672055 -0.0001571268 1000 1000 1000 -0.0005885016 -0.001143334 -0.0007275015 -0.0006982383 -0.0004093376 1000 -0.0005885016 -0.001143334 -0.0007275015 -0.0006982383 -0.0004093376 1000
lala 13 1.2 1 first 1 1 188 4 4.92 4.73999404907227 -1 1 1 0 0.000587 0.0009270245 0.001553244 1000 1000 1000 0.000587 0.0009270245 0.001553244 1000 1000 1000 -0.001647602 -0.001325223 -0.001272097 -0.001599462 -0.0008781521 1000 -0.001647602 -0.001325223 -0.001272097 -0.001599462 -0.0008781521 1000
lala 13 0.15 0 second 7 1 189 4 3.97 0.499997854232788 1 1 -1 0 -0.001584997 -0.001066624 -0.001002686 -0.001674146 -0.002012342 1000 -0.001584997 -0.001066624 -0.001002686 -0.001674146 -0.002012342 1000 -0.003960144 -0.00407423 -0.003502801 -0.003935746 -0.004537808 1000 -0.003960144 -0.00407423 -0.003502801 -0.003935746 -0.004537808 1000
lala 12 1.2 1 first 16 1 190 6 6.360001 4.83999395370483 0 0 1 1 -0.005889236 -0.006642682 -0.006309229 1000 1000 1000 -0.005889236 -0.006642682 -0.006309229 1000 1000 1000 -0.005473259 -0.00570801 -0.005559279 -0.005331326 -0.005116203 1000 -0.005473259 -0.00570801 -0.005559279 -0.005331326 -0.005116203 1000
lala 11 0.6 1 first 13 1 191 4 2.32 4.79999399185181 0 1 1 1 -0.0100972 -0.01014988 -0.00987363 1000 1000 1000 -0.0100972 -0.01014988 -0.00987363 1000 1000 1000 -0.0133653 -0.0140471 -0.01381669 -0.0133007 -0.01315486 1000 -0.0133653 -0.0140471 -0.01381669 -0.0133007 -0.01315486 1000
lala 14 0.15 0 second 7 1 192 4 4.12 1.89999675750732 1 1 -1 1 -0.02454309 -0.02448667 -0.02566105 -0.02664737 -0.02593723 1000 -0.02454309 -0.02448667 -0.02566105 -0.02664737 -0.02593723 1000 -0.01375249 -0.0103049 -0.00999089 -0.01096343 -0.0126558 1000 -0.01375249 -0.0103049 -0.00999089 -0.01096343 -0.0126558 1000
lala 7 1.2 1 first 5 1 193 6 5.580001 8.92006921768188 -1 1 1 1 -0.014464 -0.01431119 -0.01457219 1000 1000 1000 -0.014464 -0.01431119 -0.01457219 1000 1000 1000 -0.01402708 -0.01401411 -0.01338874 -0.01388308 -0.01408123 1000 -0.01402708 -0.01401411 -0.01338874 -0.01388308 -0.01408123 1000
lala 17 0.0375 1 first 12 1 194 4 3.2775 1.37999701499939 0 0 1 1 -0.01606961 -0.01600619 -0.01692095 1000 1000 1000 -0.01606961 -0.01600619 -0.01692095 1000 1000 1000 -0.01751045 -0.01752563 -0.0179501 -0.01751685 -0.01781184 1000 -0.01751045 -0.01752563 -0.0179501 -0.01751685 -0.01781184 1000
lala 13 1.2 0 first 16 1 195 6 5.160001 1.29999709129334 0 0 -1 1 -0.01698139 -0.01669451 -0.01681865 1000 1000 1000 -0.01698139 -0.01669451 -0.01681865 1000 1000 1000 -0.01859288 -0.01803408 -0.01749451 -0.01746265 -0.01752341 1000 -0.01859288 -0.01803408 -0.01749451 -0.01746265 -0.01752341 1000
lala 16 0.075 0 first 14 1 196 5 4.05 1.8599967956543 0 0 -1 0 -0.01784486 -0.01777854 -0.01776692 1000 1000 1000 -0.01784486 -0.01777854 -0.01776692 1000 1000 1000 -0.02035231 -0.01962201 -0.01976514 -0.02023127 -0.01989026 1000 -0.02035231 -0.01962201 -0.01976514 -0.02023127 -0.01989026 1000
lala 11 0.3 1 second 10 1 197 6 4.26 0.919997453689575 1 0 1 1 -0.02011778 -0.02040489 -0.02084295 -0.02076271 -0.02121106 1000 -0.02011778 -0.02040489 -0.02084295 -0.02076271 -0.02121106 1000 -0.02217096 -0.02274322 -0.02279179 -0.02235307 -0.02216201 1000 -0.02217096 -0.02274322 -0.02279179 -0.02235307 -0.02216201 1000
lala 9 1.2 1 first 3 1 198 5 6.650001 1.21999716758728 -1 1 1 1 -0.02422952 -0.02405666 -0.0235738 1000 1000 1000 -0.02422952 -0.02405666 -0.0235738 1000 1000 1000 -0.02566429 -0.02550863 -0.02508154 -0.02478467 -0.02519382 1000 -0.02566429 -0.02550863 -0.02508154 -0.02478467 -0.02519382 1000
lala 10 1.2 1 second 3 1 199 5 5.450001 0.739997625350952 -1 1 1 1 -0.024683 -0.02451592 -0.02466205 -0.02414071 -0.02471317 1000 -0.024683 -0.02451592 -0.02466205 -0.02414071 -0.02471317 1000 -0.0274348 -0.02743776 -0.02785289 -0.02730418 -0.02806398 1000 -0.0274348 -0.02743776 -0.02785289 -0.02730418 -0.02806398 1000
lala 10 1.2 1 second 4 1 200 6 5.16 3.87999486923218 -1 0 1 0 0.02121376 0.01600491 0.01505567 0.01513196 0.01315042 1000 0.02121376 0.01600491 0.01505567 0.01513196 0.01315042 1000 0.00285992 0.00237609 0.002709778 0.003148379 0.004097601 1000 0.00285992 0.00237609 0.002709778 0.003148379 0.004097601 1000
lala 14 0.3 1 first 11 1 201 6 4.380001 1.83999681472778 1 1 1 1 -0.009637422 -0.01048394 -0.01042254 1000 1000 1000 -0.009637422 -0.01048394 -0.01042254 1000 1000 1000 -0.01258073 -0.01289349 -0.01263623 -0.01306853 -0.01307479 1000 -0.01258073 -0.01289349 -0.01263623 -0.01306853 -0.01307479 1000
lala 11 2.4 1 first 3 1 202 5 3.050001 3.51999521255493 -1 1 1 1 -0.01218097 -0.01217117 -0.01219119 1000 1000 1000 -0.01218097 -0.01217117 -0.01219119 1000 1000 1000 -0.01357333 -0.01320389 -0.0130128 -0.01320995 -0.01381532 1000 -0.01357333 -0.01320389 -0.0130128 -0.01320995 -0.01381532 1000
lala 17 0.075 0 first 14 1 203 5 4.125 2.65999603271484 0 0 -1 0 -0.01988761 -0.01862709 -0.01875698 1000 1000 1000 -0.01988761 -0.01862709 -0.01875698 1000 1000 1000 -0.02136932 -0.02030051 -0.02041826 -0.02074447 -0.02092527 1000 -0.02136932 -0.02030051 -0.02041826 -0.02074447 -0.02092527 1000
lala 14 0.6 1 second 16 1 204 6 5.760001 0.459997892379761 0 0 1 0 -0.01014388 -0.009252663 -0.009063189 -0.009737137 -0.01080937 1000 -0.01014388 -0.009252663 -0.009063189 -0.009737137 -0.01080937 1000 -0.0140247 -0.01390107 -0.01417992 -0.01441202 -0.01529463 1000 -0.0140247 -0.01390107 -0.01417992 -0.01441202 -0.01529463 1000
lala 14 0.6 0 second 9 1 205 5 3.349999 0.799997568130493 1 1 -1 0 -0.01645927 -0.0167815 -0.01695101 -0.01744254 -0.01746023 1000 -0.01645927 -0.0167815 -0.01695101 -0.01744254 -0.01746023 1000 -0.01764497 -0.01688226 -0.01734696 -0.01751085 -0.01729264 1000 -0.01764497 -0.01688226 -0.01734696 -0.01751085 -0.01729264 1000
lala 7 1.2 1 first 6 1 206 4 5.04 2.39999628067017 1 0 1 0 -0.01900722 -0.01959188 -0.01980975 1000 1000 1000 -0.01900722 -0.01959188 -0.01980975 1000 1000 1000 -0.01968768 -0.01936075 -0.01940926 -0.01991084 -0.01979877 1000 -0.01968768 -0.01936075 -0.01940926 -0.01991084 -0.01979877 1000
lala 14 0.6 0 first 1 1 207 4 4.32 3.21999549865723 -1 1 -1 0 -0.02225581 -0.02218578 -0.02275276 1000 1000 1000 -0.02225581 -0.02218578 -0.02275276 1000 1000 1000 -0.02313672 -0.02325158 -0.02232778 -0.02284783 -0.02323052 1000 -0.02313672 -0.02325158 -0.02232778 -0.02284783 -0.02323052 1000
lala 15 0.3 0 second 1 1 208 4 4.62 1.79999685287476 -1 1 -1 1 -0.02241629 -0.02241515 -0.02208829 -0.02258679 -0.02338791 1000 -0.02241629 -0.02241515 -0.02208829 -0.02258679 -0.02338791 1000 -0.02374581 -0.0245175 -0.02381096 -0.0241798 -0.02444828 1000 -0.02374581 -0.0245175 -0.02381096 -0.0241798 -0.02444828 1000
lala 12 1.2 0 first 2 1 209 5 3.3 1.8599967956543 -1 0 -1 1 -0.0150792 -0.01569895 -0.01567981 1000 1000 1000 -0.0150792 -0.01569895 -0.01567981 1000 1000 1000 -0.01987165 -0.02045165 -0.02054104 -0.02048256 -0.02063267 1000 -0.01987165 -0.02045165 -0.02054104 -0.02048256 -0.02063267 1000
lala 12 0.3 0 second 13 1 210 4 2.02 0.899997472763062 0 1 -1 1 -0.02165769 -0.0217915 -0.02185265 -0.02184028 -0.02245601 1000 -0.02165769 -0.0217915 -0.02185265 -0.02184028 -0.02245601 1000 -0.02308437 -0.02330794 -0.02291108 -0.02268777 -0.02315951 1000 -0.02308437 -0.02330794 -0.02291108 -0.02268777 -0.02315951 1000
lala 15 0.3 1 second 16 1 211 6 5.460001 0.559997797012329 0 0 1 1 -0.02202976 -0.02205018 -0.02144635 -0.02082451 -0.02171036 1000 -0.02202976 -0.02205018 -0.02144635 -0.02082451 -0.02171036 1000 -0.02419493 -0.02404539 -0.02362887 -0.02309159 -0.02347577 1000 -0.02419493 -0.02404539 -0.02362887 -0.02309159 -0.02347577 1000
lala 8 1.2 0 first 6 1 212 4 3.84 12.080141544342 1 0 -1 1 -0.0254299 -0.02467708 -0.02474056 1000 1000 1000 -0.0254299 -0.02467708 -0.02474056 1000 1000 1000 -0.02562569 -0.0257813 -0.02471236 -0.025243 -0.02588182 1000 -0.02562569 -0.0257813 -0.02471236 -0.025243 -0.02588182 1000
lala 4 1.2 1 first 8 1 213 5 4.5 0.99999737739563 1 0 1 0 -0.01383293 -0.01218727 -0.01240004 1000 1000 1000 -0.01383293 -0.01218727 -0.01240004 1000 1000 1000 -0.0168268 -0.01696798 -0.01668918 -0.01629729 -0.01671854 1000 -0.0168268 -0.01696798 -0.01668918 -0.01629729 -0.01671854 1000
lala 18 0.15 1 second 14 1 214 5 4.275 0.359997987747192 0 0 1 1 -0.01782416 -0.0174854 -0.01759772 -0.01817972 -0.01784114 1000 -0.01782416 -0.0174854 -0.01759772 -0.01817972 -0.01784114 1000 -0.01816094 -0.01871111 -0.01865197 -0.01834585 -0.01850707 1000 -0.01816094 -0.01871111 -0.01865197 -0.01834585 -0.01850707 1000
lala 12 0.3 0 second 10 1 215 6 3.96 0.799997568130493 1 0 -1 1 -0.02045253 -0.02142227 -0.02104766 -0.02036302 -0.01996232 1000 -0.02045253 -0.02142227 -0.02104766 -0.02036302 -0.01996232 1000 -0.02041539 -0.02060317 -0.02110179 -0.02120429 -0.02134632 1000 -0.02041539 -0.02060317 -0.02110179 -0.02120429 -0.02134632 1000
lala 15 0.3 1 first 9 1 216 5 3.649999 5.53999328613281 1 1 1 1 -0.02242663 -0.02247718 -0.023027 1000 1000 1000 -0.02242663 -0.02247718 -0.023027 1000 1000 1000 -0.02468749 -0.02408884 -0.02413502 -0.02438151 -0.02511416 1000 -0.02468749 -0.02408884 -0.02413502 -0.02438151 -0.02511416 1000
lala 13 0.15 0 second 10 1 217 6 4.11 4.15999460220337 1 0 -1 0 -0.01566928 -0.01324894 -0.01622 -0.02033796 -0.02421951 1000 -0.01566928 -0.01324894 -0.01622 -0.02033796 -0.02421951 1000 -0.02679765 -0.02640679 -0.02678985 -0.02623357 -0.02618282 1000 -0.02679765 -0.02640679 -0.02678985 -0.02623357 -0.02618282 1000
lala 12 4.8 0 first 3 1 218 5 1.65 0.919997453689575 -1 1 -1 1 -0.02266476 -0.0207237 -0.01763977 1000 1000 1000 -0.02266476 -0.0207237 -0.01763977 1000 1000 1000 -0.01990562 -0.01940517 -0.01945101 -0.01895355 -0.01919092 1000 -0.01990562 -0.01940517 -0.01945101 -0.01895355 -0.01919092 1000
lala 13 0.15 0 second 13 1 219 4 2.17 2.11999654769897 0 1 -1 1 -0.0262907 -0.02649412 -0.02661105 -0.0267447 -0.0251888 1000 -0.0262907 -0.02649412 -0.02661105 -0.0267447 -0.0251888 1000 -0.02309977 -0.0235555 -0.02286453 -0.02304553 -0.0233646 1000 -0.02309977 -0.0235555 -0.02286453 -0.02304553 -0.0233646 1000
lala 16 0.15 1 first 9 1 220 5 3.499999 2.61999607086182 1 1 1 0 -0.01322976 -0.01380724 -0.01534151 1000 1000 1000 -0.01322976 -0.01380724 -0.01534151 1000 1000 1000 -0.01979323 -0.01990176 -0.01998514 -0.01968186 -0.01938463 1000 -0.01979323 -0.01990176 -0.01998514 -0.01968186 -0.01938463 1000
lala 15 0.15 0 first 7 1 221 4 4.27 1.29999709129334 1 1 -1 1 -0.01827292 -0.0187194 -0.01991777 1000 1000 1000 -0.01827292 -0.0187194 -0.01991777 1000 1000 1000 -0.02354683 -0.02405562 -0.02356981 -0.02440231 -0.02519084 1000 -0.02354683 -0.02405562 -0.02356981 -0.02440231 -0.02519084 1000
lala 13 2.4 0 second 3 1 222 5 4.05 1.21999716758728 -1 1 -1 0 -0.02514766 -0.02473497 -0.02335471 -0.02326321 -0.02377491 1000 -0.02514766 -0.02473497 -0.02335471 -0.02326321 -0.02377491 1000 -0.01972145 -0.01759501 -0.01679409 -0.01744559 -0.01906002 1000 -0.01972145 -0.01759501 -0.01679409 -0.01744559 -0.01906002 1000
lala 14 2.4 1 first 3 1 223 5 6.45 1.07999730110168 -1 1 1 1 -0.02070017 -0.02049517 -0.0204398 1000 1000 1000 -0.02070017 -0.02049517 -0.0204398 1000 1000 1000 -0.02495157 -0.02532622 -0.02604107 -0.02547824 -0.02508832 1000 -0.02495157 -0.02532622 -0.02604107 -0.02547824 -0.02508832 1000
lala 11 2.4 0 second 4 1 224 6 2.76 0.599997758865356 -1 0 -1 1 -0.02430315 -0.02593594 -0.02844772 -0.03389043 -0.03958068 1000 -0.02430315 -0.02593594 -0.02844772 -0.03389043 -0.03958068 1000 -0.03369261 -0.03129239 -0.02666016 -0.02489013 -0.0232779 1000 -0.03369261 -0.03129239 -0.02666016 -0.02489013 -0.0232779 1000
lala 17 0.15 1 first 9 1 225 5 3.349999 1.75999689102173 1 1 1 0 0.03323215 0.06158292 0.04726623 1000 1000 1000 0.03323215 0.06158292 0.04726623 1000 1000 1000 -0.02987534 -0.02927996 -0.02603584 -0.02634572 -0.02829757 1000 -0.02987534 -0.02927996 -0.02603584 -0.02634572 -0.02829757 1000
lala 15 0.3 0 second 11 1 226 6 4.08 6.30000925064087 1 1 -1 0 -0.02515234 -0.02608282 -0.02501633 -0.02519516 -0.02473449 1000 -0.02515234 -0.02608282 -0.02501633 -0.02519516 -0.02473449 1000 -0.02539069 -0.02554149 -0.02500924 -0.02551383 -0.02471256 1000 -0.02539069 -0.02554149 -0.02500924 -0.02551383 -0.02471256 1000
lala 12 1.2 0 first 4 1 227 6 3.96 1.11999726295471 -1 0 -1 1 -0.01916683 -0.01521421 -0.0100546 1000 1000 1000 -0.01916683 -0.01521421 -0.0100546 1000 1000 1000 -0.0113964 -0.01187699 -0.01152893 -0.01135498 -0.0118393 1000 -0.0113964 -0.01187699 -0.01152893 -0.01135498 -0.0118393 1000
lala 15 0.0375 1 second 17 1 228 6 5.467501 0.779997587203979 0 1 1 1 -0.01339075 -0.01380151 -0.01449909 -0.01446196 -0.01435006 1000 -0.01339075 -0.01380151 -0.01449909 -0.01446196 -0.01435006 1000 -0.01395747 -0.0138401 -0.01399663 -0.01477391 -0.01429222 1000 -0.01395747 -0.0138401 -0.01399663 -0.01477391 -0.01429222 1000
lala 5 1.2 0 second 8 1 229 5 3.3 0.859997510910034 1 0 -1 0 -0.01439062 -0.01440115 -0.01483661 -0.01458347 -0.01532961 1000 -0.01439062 -0.01440115 -0.01483661 -0.01458347 -0.01532961 1000 -0.015034 -0.01582174 -0.01537506 -0.01514059 -0.01523959 1000 -0.015034 -0.01582174 -0.01537506 -0.01514059 -0.01523959 1000
lala 8 1.2 1 first 15 1 230 5 5.45 2.65999603271484 0 1 1 0 -0.01715929 -0.01703022 -0.01644825 1000 1000 1000 -0.01715929 -0.01703022 -0.01644825 1000 1000 1000 -0.01673692 -0.01675675 -0.01725171 -0.01653691 -0.01622282 1000 -0.01673692 -0.01675675 -0.01725171 -0.01653691 -0.01622282 1000
lala 14 0.15 0 second 10 1 231 6 4.26 3.09999561309814 1 0 -1 0 -0.01588405 -0.01630626 -0.01598005 -0.01633248 -0.01557881 1000 -0.01588405 -0.01630626 -0.01598005 -0.01633248 -0.01557881 1000 -0.01598879 -0.0162056 -0.01647909 -0.01659058 -0.01646443 1000 -0.01598879 -0.0162056 -0.01647909 -0.01659058 -0.01646443 1000
lala 15 1.2 1 first 3 1 232 5 5.25 2.55999612808228 -1 1 1 1 -0.01597235 -0.01607137 -0.01550568 1000 1000 1000 -0.01597235 -0.01607137 -0.01550568 1000 1000 1000 -0.01737275 -0.01733364 -0.01791531 -0.0177207 -0.01782688 1000 -0.01737275 -0.01733364 -0.01791531 -0.0177207 -0.01782688 1000
lala 16 0.15 1 second 11 1 233 6 4.23 3.07999563217163 1 1 1 1 -0.01962017 -0.0195669 -0.01911096 -0.01890618 -0.01921621 1000 -0.01962017 -0.0195669 -0.01911096 -0.01890618 -0.01921621 1000 -0.01977038 -0.02024054 -0.02062785 -0.02003426 -0.02013963 1000 -0.01977038 -0.02024054 -0.02062785 -0.02003426 -0.02013963 1000
lala 12 1.2 1 second 0 1 234 4 5.04 0.819997549057007 -1 0 1 0 0.006057572 0.006414399 0.006293645 0.004419461 0.004025749 1000 0.006057572 0.006414399 0.006293645 0.004419461 0.004025749 1000 0.002932961 0.002329198 0.001825365 0.002532757 0.00217453 1000 0.002932961 0.002329198 0.001825365 0.002532757 0.00217453 1000
lala 14 0.15 1 first 13 1 235 4 2.32 1.99999666213989 0 1 1 1 -0.005658723 -0.009455254 -0.009862363 1000 1000 1000 -0.005658723 -0.009455254 -0.009862363 1000 1000 1000 -0.01446381 -0.01432626 -0.01104075 -0.01315031 -0.01418049 1000 -0.01446381 -0.01432626 -0.01104075 -0.01315031 -0.01418049 1000
lala 13 1.2 1 second 2 1 236 5 4.5 1.17999720573425 -1 0 1 1 -0.02652866 -0.02575792 -0.02512588 -0.02468972 -0.02459613 1000 -0.02652866 -0.02575792 -0.02512588 -0.02468972 -0.02459613 1000 -0.02568702 -0.02497061 -0.025251 -0.02599627 -0.02638874 1000 -0.02568702 -0.02497061 -0.025251 -0.02599627 -0.02638874 1000
lala 16 0.3 0 second 16 1 237 6 5.16 4.87999391555786 0 0 -1 1 -0.008907247 -0.008339261 -0.00851531 -0.008910957 -0.009387196 1000 -0.008907247 -0.008339261 -0.00851531 -0.008910957 -0.009387196 1000 -0.01418529 -0.01420296 -0.01333134 -0.0132034 -0.01370623 1000 -0.01418529 -0.01420296 -0.01333134 -0.0132034 -0.01370623 1000
lala 13 1.2 0 first 0 1 238 4 3.84 2.23999643325806 -1 0 -1 0 -0.001546621 -0.0031493 -0.00384991 1000 1000 1000 -0.001546621 -0.0031493 -0.00384991 1000 1000 1000 -0.006100907 -0.005286651 -0.005470869 -0.005451986 -0.004685473 1000 -0.006100907 -0.005286651 -0.005470869 -0.005451986 -0.004685473 1000
lala 16 0.3 1 second 7 1 239 4 4.57 3.45999526977539 1 1 1 0 -0.009515111 -0.009960111 -0.009634684 -0.009687594 -0.009314102 1000 -0.009515111 -0.009960111 -0.009634684 -0.009687594 -0.009314102 1000 -0.01139016 -0.01189603 -0.01152177 -0.01130032 -0.01168578 1000 -0.01139016 -0.01189603 -0.01152177 -0.01130032 -0.01168578 1000
lala 6 1.2 1 first 8 1 240 5 4.5 0.879997491836548 1 0 1 0 -0.0193862 -0.02225952 -0.02692569 1000 1000 1000 -0.0193862 -0.02225952 -0.02692569 1000 1000 1000 -0.02336029 -0.02367314 -0.02422685 -0.02621268 -0.02579132 1000 -0.02336029 -0.02367314 -0.02422685 -0.02621268 -0.02579132 1000
lala 9 1.2 1 first 6 1 241 4 5.04 2.5999960899353 1 0 1 1 -0.02252029 -0.0212886 -0.02052025 1000 1000 1000 -0.02252029 -0.0212886 -0.02052025 1000 1000 1000 -0.02100201 -0.02041973 -0.02086102 -0.02130942 -0.02140481 1000 -0.02100201 -0.02041973 -0.02086102 -0.02130942 -0.02140481 1000
lala 17 0.15 1 first 7 1 242 4 4.42 2.159996509552 1 1 1 1 -0.0128084 -0.01381047 -0.0142859 1000 1000 1000 -0.0128084 -0.01381047 -0.0142859 1000 1000 1000 -0.01602566 -0.01611643 -0.01619933 -0.01606 -0.01619107 1000 -0.01602566 -0.01611643 -0.01619933 -0.01606 -0.01619107 1000
lala 16 0.0375 0 first 17 1 243 6 5.430001 0.599997758865356 0 1 -1 0 -0.01813395 -0.01815844 -0.01792176 1000 1000 1000 -0.01813395 -0.01815844 -0.01792176 1000 1000 1000 -0.01837853 -0.01873074 -0.01838877 -0.0180127 -0.01834142 1000 -0.01837853 -0.01873074 -0.01838877 -0.0180127 -0.01834142 1000
lala 9 1.2 1 first 15 1 244 5 4.25 0.519997835159302 0 1 1 0 -0.01888828 -0.01925408 -0.01890193 1000 1000 1000 -0.01888828 -0.01925408 -0.01890193 1000 1000 1000 -0.02021803 -0.02011838 -0.02050986 -0.01985886 -0.02032789 1000 -0.02021803 -0.02011838 -0.02050986 -0.01985886 -0.02032789 1000
lala 17 0.15 1 first 16 1 245 6 5.31 3.55999517440796 0 0 1 1 -0.02148454 -0.02076404 -0.02061841 1000 1000 1000 -0.02148454 -0.02076404 -0.02061841 1000 1000 1000 -0.02213828 -0.02219054 -0.02219054 -0.02177206 -0.02190311 1000 -0.02213828 -0.02219054 -0.02219054 -0.02177206 -0.02190311 1000
lala 18 0.075 0 second 16 1 246 6 5.235001 0.899997472763062 0 0 -1 1 -0.02348145 -0.02369724 -0.02403911 -0.02343038 -0.02334399 1000 -0.02348145 -0.02369724 -0.02403911 -0.02343038 -0.02334399 1000 -0.02345495 -0.02316056 -0.02311933 -0.02279795 -0.02302313 1000 -0.02345495 -0.02316056 -0.02311933 -0.02279795 -0.02302313 1000
lala 15 0.15 0 second 10 1 247 6 4.41 1.51999688148499 1 0 -1 1 -0.02277156 -0.02300501 -0.02345583 -0.02311927 -0.02284408 1000 -0.02277156 -0.02300501 -0.02345583 -0.02311927 -0.02284408 1000 -0.02315556 -0.02291185 -0.02300991 -0.02314054 -0.0230231 1000 -0.02315556 -0.02291185 -0.02300991 -0.02314054 -0.0230231 1000
lala 19 0.075 1 first 14 1 248 5 4.2 3.09999561309814 0 0 1 1 -0.02475659 -0.02412245 -0.02354274 1000 1000 1000 -0.02475659 -0.02412245 -0.02354274 1000 1000 1000 -0.02521911 -0.02535399 -0.0247893 -0.02454594 -0.02472221 1000 -0.02521911 -0.02535399 -0.0247893 -0.02454594 -0.02472221 1000
lala 16 0.3 0 first 1 1 249 4 4.920001 1.45999693870544 -1 1 -1 1 -0.02437874 -0.02496937 -0.02656103 1000 1000 1000 -0.02437874 -0.02496937 -0.02656103 1000 1000 1000 -0.02749333 -0.02745644 -0.0276532 -0.02777261 -0.0281657 1000 -0.02749333 -0.02745644 -0.0276532 -0.02777261 -0.0281657 1000
lala 18 0.15 0 second 7 1 250 4 4.27 1.15999722480774 1 1 -1 0 -0.007451099 -0.006962006 -0.005537686 -0.003960277 -0.00565121 1000 -0.007451099 -0.006962006 -0.005537686 -0.003960277 -0.00565121 1000 -0.01263981 -0.01145131 -0.01023812 -0.009351068 -0.01022601 1000 -0.01263981 -0.01145131 -0.01023812 -0.009351068 -0.01022601 1000
lala 16 1.2 0 second 3 1 251 5 4.05 0.659997701644897 -1 1 -1 0 -0.01163087 -0.01217448 -0.01359991 -0.01454332 -0.01478256 1000 -0.01163087 -0.01217448 -0.01359991 -0.01454332 -0.01478256 1000 -0.01646686 -0.01616254 -0.01620183 -0.01576526 -0.0159982 1000 -0.01646686 -0.01616254 -0.01620183 -0.01576526 -0.0159982 1000
lala 17 0.075 0 first 11 1 252 6 4.155001 0.979997396469116 1 1 -1 1 -0.01520173 -0.01538061 -0.01625445 1000 1000 1000 -0.01520173 -0.01538061 -0.01625445 1000 1000 1000 -0.01666747 -0.01617906 -0.01646291 -0.01686537 -0.01625334 1000 -0.01666747 -0.01617906 -0.01646291 -0.01686537 -0.01625334 1000
lala 13 1.2 0 first 4 1 253 6 5.16 1.11999726295471 -1 0 -1 1 -0.01603959 -0.01597863 -0.01560813 1000 1000 1000 -0.01603959 -0.01597863 -0.01560813 1000 1000 1000 -0.01537739 -0.01499904 -0.01470968 -0.01430378 -0.01447805 1000 -0.01537739 -0.01499904 -0.01470968 -0.01430378 -0.01447805 1000
lala 14 0.6 1 first 0 1 254 4 4.44 0.859997510910034 -1 0 1 0 -0.01541916 -0.01540291 -0.01584816 1000 1000 1000 -0.01541916 -0.01540291 -0.01584816 1000 1000 1000 -0.01454715 -0.01495446 -0.01502357 -0.01535376 -0.01547885 1000 -0.01454715 -0.01495446 -0.01502357 -0.01535376 -0.01547885 1000
lala 8 1.2 0 first 5 1 255 6 4.380001 0.99999737739563 -1 1 -1 1 -0.01420258 -0.01497324 -0.01460832 1000 1000 1000 -0.01420258 -0.01497324 -0.01460832 1000 1000 1000 -0.01437988 -0.01437016 -0.01434732 -0.01418903 -0.01485945 1000 -0.01437988 -0.01437016 -0.01434732 -0.01418903 -0.01485945 1000
lala 19 0.075 0 second 7 1 256 4 4.345 3.15999555587769 1 1 -1 0 -0.0153012 -0.01558287 -0.01585845 -0.01630239 -0.0160237 1000 -0.0153012 -0.01558287 -0.01585845 -0.01630239 -0.0160237 1000 -0.01669106 -0.0166323 -0.01707786 -0.01653656 -0.01635635 1000 -0.01669106 -0.0166323 -0.01707786 -0.01653656 -0.01635635 1000
lala 9 1.2 1 second 5 1 257 6 5.580001 0.39999794960022 -1 1 1 0 -0.0191972 -0.01824903 -0.01759409 -0.01784458 -0.01837848 1000 -0.0191972 -0.01824903 -0.01759409 -0.01784458 -0.01837848 1000 -0.02076168 -0.02077522 -0.02108018 -0.02146089 -0.02191377 1000 -0.02076168 -0.02077522 -0.02108018 -0.02146089 -0.02191377 1000
lala 20 0.075 1 first 7 1 258 4 4.42 3.07999563217163 1 1 1 1 -0.02381944 -0.02383727 -0.02376806 1000 1000 1000 -0.02381944 -0.02383727 -0.02376806 1000 1000 1000 -0.02437769 -0.0240256 -0.0243309 -0.02452293 -0.02465644 1000 -0.02437769 -0.0240256 -0.0243309 -0.02452293 -0.02465644 1000
lala 19 0.0375 0 first 16 1 259 6 5.272501 1.51999688148499 0 0 -1 0 -0.02066219 -0.02138004 -0.02140567 1000 1000 1000 -0.02066219 -0.02138004 -0.02140567 1000 1000 1000 -0.01993261 -0.02031189 -0.02047681 -0.02017849 -0.0199582 1000 -0.01993261 -0.02031189 -0.02047681 -0.02017849 -0.0199582 1000
lala 20 0.0375 1 first 16 1 260 6 5.31 1.13999724388123 0 0 1 0 -0.02065927 -0.02090331 -0.02133725 1000 1000 1000 -0.02065927 -0.02090331 -0.02133725 1000 1000 1000 -0.02435534 -0.02391 -0.02444788 -0.02497053 -0.02531897 1000 -0.02435534 -0.02391 -0.02444788 -0.02497053 -0.02531897 1000
lala 21 0.01875 1 first 16 1 261 6 5.29125 1.23999714851379 0 0 1 1 -0.02445843 -0.0245849 -0.02411508 1000 1000 1000 -0.02445843 -0.0245849 -0.02411508 1000 1000 1000 -0.02673275 -0.02665447 -0.02667716 -0.02658517 -0.02680901 1000 -0.02673275 -0.02665447 -0.02667716 -0.02658517 -0.02680901 1000
lala 22 0.01875 1 first 16 1 262 6 5.2725 0.479997873306274 0 0 1 0 -0.02082681 -0.01698735 -0.01297279 1000 1000 1000 -0.02082681 -0.01698735 -0.01297279 1000 1000 1000 -0.01369914 -0.01357344 -0.01342726 -0.01359405 -0.01402543 1000 -0.01369914 -0.01357344 -0.01342726 -0.01359405 -0.01402543 1000
lala 14 0.6 0 first 2 1 263 5 3.9 2.11999654769897 -1 0 -1 0 -0.0158849 -0.01599213 -0.0164837 1000 1000 1000 -0.0158849 -0.01599213 -0.0164837 1000 1000 1000 -0.01865849 -0.01911393 -0.01917369 -0.01997376 -0.02007249 1000 -0.01865849 -0.01911393 -0.01917369 -0.01997376 -0.02007249 1000
lala 18 0.0375 1 first 12 1 264 4 3.24 2.43999624252319 0 0 1 0 -0.02290909 -0.02271431 -0.02216457 1000 1000 1000 -0.02290909 -0.02271431 -0.02216457 1000 1000 1000 -0.02283485 -0.02240651 -0.02265652 -0.02291295 -0.02339613 1000 -0.02283485 -0.02240651 -0.02265652 -0.02291295 -0.02339613 1000
lala 15 0.3 0 first 2 1 265 5 4.2 0.479997873306274 -1 0 -1 1 -0.02319947 -0.02327779 -0.02325955 1000 1000 1000 -0.02319947 -0.02327779 -0.02325955 1000 1000 1000 -0.02453919 -0.02465157 -0.02421653 -0.02442485 -0.02450616 1000 -0.02453919 -0.02465157 -0.02421653 -0.02442485 -0.02450616 1000
lala 19 0.0375 1 first 12 1 266 4 3.2025 1.77999687194824 0 0 1 1 -0.02468323 -0.02490449 -0.02444526 1000 1000 1000 -0.02468323 -0.02490449 -0.02444526 1000 1000 1000 -0.02494622 -0.02495701 -0.02510265 -0.02552253 -0.02526617 1000 -0.02494622 -0.02495701 -0.02510265 -0.02552253 -0.02526617 1000
lala 21 0.0375 1 first 7 1 267 4 4.3825 4.59999418258667 1 1 1 0 -0.02149426 -0.01576943 -0.01095822 1000 1000 1000 -0.02149426 -0.01576943 -0.01095822 1000 1000 1000 -0.01130738 -0.01134463 -0.01130825 -0.01215771 -0.01214591 1000 -0.01130738 -0.01134463 -0.01130825 -0.01215771 -0.01214591 1000
lala 10 0.6 1 second 5 1 268 6 4.980001 2.27999639511108 -1 1 1 0 -0.01746513 -0.01741816 -0.01751669 -0.01819479 -0.01844295 1000 -0.01746513 -0.01741816 -0.01751669 -0.01819479 -0.01844295 1000 -0.01888633 -0.01861251 -0.01868526 -0.01823801 -0.01785229 1000 -0.01888633 -0.01861251 -0.01868526 -0.01823801 -0.01785229 1000
lala 14 1.2 1 second 4 1 269 6 6.36 0.459997892379761 -1 0 1 1 -0.01857363 -0.01919341 -0.01909349 -0.0188452 -0.02018042 1000 -0.01857363 -0.01919341 -0.01909349 -0.0188452 -0.02018042 1000 -0.0255356 -0.02620279 -0.02625217 -0.02560943 -0.0253599 1000 -0.0255356 -0.02620279 -0.02625217 -0.02560943 -0.0253599 1000
lala 15 0.075 0 first 13 1 270 4 2.245 2.51999616622925 0 1 -1 0 -0.02126945 -0.01894989 -0.01729153 1000 1000 1000 -0.02126945 -0.01894989 -0.01729153 1000 1000 1000 -0.02244882 -0.02209235 -0.02203912 -0.0227179 -0.02299636 1000 -0.02244882 -0.02209235 -0.02203912 -0.0227179 -0.02299636 1000
lala 20 0.075 1 first 12 1 271 4 3.1275 3.41999530792236 0 0 1 1 -0.02439835 -0.01732384 -0.01728637 1000 1000 1000 -0.02439835 -0.01732384 -0.01728637 1000 1000 1000 -0.01947189 -0.0190108 -0.01961964 -0.02002587 -0.02047725 1000 -0.01947189 -0.0190108 -0.01961964 -0.02002587 -0.02047725 1000
lala 10 1.2 0 first 15 1 272 5 3.05 0.23999810218811 0 1 -1 1 -0.02221697 -0.0220408 -0.02185651 1000 1000 1000 -0.02221697 -0.0220408 -0.02185651 1000 1000 1000 -0.02419044 -0.02409063 -0.02417754 -0.02363158 -0.02414151 1000 -0.02419044 -0.02409063 -0.02417754 -0.02363158 -0.02414151 1000
lala 15 0.6 1 second 4 1 273 6 5.76 0.539997816085815 -1 0 1 1 -0.02427854 -0.02373492 -0.023622 -0.02338265 -0.02343612 1000 -0.02427854 -0.02373492 -0.023622 -0.02338265 -0.02343612 1000 -0.0246163 -0.02421036 -0.02467006 -0.02474035 -0.02460815 1000 -0.0246163 -0.02421036 -0.02467006 -0.02474035 -0.02460815 1000
lala 17 0.01875 1 second 17 1 274 6 5.448751 0.539997816085815 0 1 1 0 -0.02477091 -0.02484546 -0.02416122 -0.02400109 -0.02398636 1000 -0.02477091 -0.02484546 -0.02416122 -0.02400109 -0.02398636 1000 -0.02496614 -0.02516758 -0.02491469 -0.02549555 -0.02508242 1000 -0.02496614 -0.02516758 -0.02491469 -0.02549555 -0.02508242 1000
lala 15 0.3 0 second 0 1 275 4 4.14 3.13999557495117 -1 0 -1 0 -0.0002735236 -0.001557882 -0.004038985 -0.006005563 -0.006453825 1000 -0.0002735236 -0.001557882 -0.004038985 -0.006005563 -0.006453825 1000 -0.01173748 -0.01145353 -0.01110554 -0.01144963 -0.01192997 1000 -0.01173748 -0.01145353 -0.01110554 -0.01144963 -0.01192997 1000
lala 11 0.6 0 second 15 1 276 5 3.65 1.73999691009521 0 1 -1 0 -0.02165919 -0.02009822 -0.0188894 -0.01785067 -0.01782108 1000 -0.02165919 -0.02009822 -0.0188894 -0.01785067 -0.01782108 1000 -0.01885308 -0.01961653 -0.01952321 -0.01931594 -0.01919804 1000 -0.01885308 -0.01961653 -0.01952321 -0.01931594 -0.01919804 1000
lala 22 0.0375 1 second 7 1 277 4 4.345 0.199998140335083 1 1 1 1 -0.02199361 -0.02111509 -0.02172432 -0.02135151 -0.02114373 1000 -0.02199361 -0.02111509 -0.02172432 -0.02135151 -0.02114373 1000 -0.02102711 -0.02077621 -0.02113109 -0.02128525 -0.02174703 1000 -0.02102711 -0.02077621 -0.02113109 -0.02128525 -0.02174703 1000
lala 16 0.0375 0 first 13 1 278 4 2.2825 1.91999673843384 0 1 -1 0 -0.02269529 -0.02340406 -0.02268975 1000 1000 1000 -0.02269529 -0.02340406 -0.02268975 1000 1000 1000 -0.02299898 -0.02290099 -0.02314556 -0.02294114 -0.02336195 1000 -0.02299898 -0.02290099 -0.02314556 -0.02294114 -0.02336195 1000
lala 16 0.3 1 second 10 1 279 6 4.71 0.559997797012329 1 0 1 0 -0.02359283 -0.02369879 -0.02320769 -0.02343696 -0.02365851 1000 -0.02359283 -0.02369879 -0.02320769 -0.02343696 -0.02365851 1000 -0.02448582 -0.02410709 -0.02383329 -0.02355541 -0.02419213 1000 -0.02448582 -0.02410709 -0.02383329 -0.02355541 -0.02419213 1000
lala 16 0.15 1 first 0 1 280 4 4.29 5.69999551773071 -1 0 1 0 -0.02577341 -0.02639576 -0.02615261 1000 1000 1000 -0.02577341 -0.02639576 -0.02615261 1000 1000 1000 -0.0253283 -0.02579596 -0.02542785 -0.02537941 -0.02511479 1000 -0.0253283 -0.02579596 -0.02542785 -0.02537941 -0.02511479 1000
lala 11 0.6 0 first 5 1 281 6 4.380001 8.72006464004517 -1 1 -1 1 -0.006255128 -0.003711741 -0.002314787 1000 1000 1000 -0.006255128 -0.003711741 -0.002314787 1000 1000 1000 -0.001921145 -0.001369973 -0.002519213 -0.003581502 -0.003341677 1000 -0.001921145 -0.001369973 -0.002519213 -0.003581502 -0.003341677 1000
lala 17 0.6 0 second 3 1 282 5 4.65 0.419997930526733 -1 1 -1 0 -0.01278797 -0.01205633 -0.01148756 -0.01062659 -0.01153503 1000 -0.01278797 -0.01205633 -0.01148756 -0.01062659 -0.01153503 1000 -0.01532501 -0.01468904 -0.01445751 -0.01482142 -0.01499842 1000 -0.01532501 -0.01468904 -0.01445751 -0.01482142 -0.01499842 1000
lala 17 0.0375 0 first 13 1 283 4 2.32 1.47999691963196 0 1 -1 1 -0.01666035 -0.01713085 -0.01689557 1000 1000 1000 -0.01666035 -0.01713085 -0.01689557 1000 1000 1000 -0.01804214 -0.0177396 -0.01741011 -0.01811416 -0.01753509 1000 -0.01804214 -0.0177396 -0.01741011 -0.01811416 -0.01753509 1000
lala 18 0.15 0 second 9 1 284 5 3.199999 1.11999726295471 1 1 -1 1 -0.02002638 -0.01963835 -0.01920304 -0.01888897 -0.01961186 1000 -0.02002638 -0.01963835 -0.01920304 -0.01888897 -0.01961186 1000 -0.01972395 -0.02004137 -0.01972158 -0.02053699 -0.02089533 1000 -0.01972395 -0.02004137 -0.01972158 -0.02053699 -0.02089533 1000
lala 16 0.3 0 first 2 1 285 5 4.5 1.89999675750732 -1 0 -1 1 -0.02420571 -0.02362992 -0.02351707 1000 1000 1000 -0.02420571 -0.02362992 -0.02351707 1000 1000 1000 -0.02330002 -0.02356659 -0.0232646 -0.02360773 -0.02408883 1000 -0.02330002 -0.02356659 -0.0232646 -0.02360773 -0.02408883 1000
lala 17 0.075 1 first 0 1 286 4 4.215 6.08000421524048 -1 0 1 0 -0.0233866 -0.02332781 -0.0248116 1000 1000 1000 -0.0233866 -0.02332781 -0.0248116 1000 1000 1000 -0.0282342 -0.02834059 -0.02718124 -0.02761831 -0.02780269 1000 -0.0282342 -0.02834059 -0.02718124 -0.02761831 -0.02780269 1000
lala 12 0.3 1 second 5 1 287 6 4.680001 4.43999433517456 -1 1 1 1 -0.01514213 -0.01544601 -0.01595766 -0.01565401 -0.01665391 1000 -0.01514213 -0.01544601 -0.01595766 -0.01565401 -0.01665391 1000 -0.0205029 -0.02054357 -0.01990957 -0.01966837 -0.01987606 1000 -0.0205029 -0.02054357 -0.01990957 -0.01966837 -0.01987606 1000
lala 18 0.0375 0 second 13 1 288 4 2.3575 1.47999691963196 0 1 -1 0 -0.02479228 -0.02493612 -0.0245197 -0.02412376 -0.02463642 1000 -0.02479228 -0.02493612 -0.0245197 -0.02412376 -0.02463642 1000 -0.02595222 -0.02628965 -0.02597483 -0.0260833 -0.02656531 1000 -0.02595222 -0.02628965 -0.02597483 -0.0260833 -0.02656531 1000
lala 21 0.15 1 first 12 1 289 4 2.9775 3.19999551773071 0 0 1 0 -0.02485189 -0.02623985 -0.02599318 1000 1000 1000 -0.02485189 -0.02623985 -0.02599318 1000 1000 1000 -0.02526413 -0.02539947 -0.02544532 -0.0260638 -0.02549821 1000 -0.02526413 -0.02539947 -0.02544532 -0.0260638 -0.02549821 1000
lala 17 0.15 0 first 10 1 290 6 4.56 0.699997663497925 1 0 -1 0 -0.02471705 -0.02524387 -0.02390693 1000 1000 1000 -0.02471705 -0.02524387 -0.02390693 1000 1000 1000 -0.01680796 -0.01767149 -0.01698869 -0.01683118 -0.01691804 1000 -0.01680796 -0.01767149 -0.01698869 -0.01683118 -0.01691804 1000
lala 10 0.6 1 second 6 1 291 4 4.44 4.77999401092529 1 0 1 1 -0.01993767 -0.02010855 -0.01942108 -0.01832023 -0.01887529 1000 -0.01993767 -0.02010855 -0.01942108 -0.01832023 -0.01887529 1000 -0.01984192 -0.01956464 -0.01934417 -0.01917153 -0.01948467 1000 -0.01984192 -0.01956464 -0.01934417 -0.01917153 -0.01948467 1000
lala 18 0.075 1 first 10 1 292 6 4.635 1.97999668121338 1 0 1 1 -0.01050459 -0.013489 -0.01399176 1000 1000 1000 -0.01050459 -0.013489 -0.01399176 1000 1000 1000 -0.01341061 -0.01402274 -0.01653928 -0.01811535 -0.0160797 1000 -0.01341061 -0.01402274 -0.01653928 -0.01811535 -0.0160797 1000
lala 17 0.3 1 first 1 1 293 4 5.220001 5.13999366760254 -1 1 1 1 -0.02258818 -0.02359306 -0.02473838 1000 1000 1000 -0.02258818 -0.02359306 -0.02473838 1000 1000 1000 -0.02749196 -0.02727978 -0.02675365 -0.02776509 -0.02823731 1000 -0.02749196 -0.02727978 -0.02675365 -0.02776509 -0.02823731 1000
lala 18 0.009375 0 first 17 1 294 6 5.439376 6.2800087928772 0 1 -1 1 -0.02411562 -0.02324598 -0.02480186 1000 1000 1000 -0.02411562 -0.02324598 -0.02480186 1000 1000 1000 -0.02765604 -0.02760254 -0.02769926 -0.02857232 -0.02925872 1000 -0.02765604 -0.02760254 -0.02769926 -0.02857232 -0.02925872 1000
lala 17 0.3 1 second 2 1 295 5 4.800001 1.37999701499939 -1 0 1 1 0.01844218 0.01970745 0.01849452 0.01584072 0.01414891 1000 0.01844218 0.01970745 0.01849452 0.01584072 0.01414891 1000 0.009213938 0.009021359 0.009878262 0.009814685 0.009248939 1000 0.009213938 0.009021359 0.009878262 0.009814685 0.009248939 1000
lala 11 0.6 1 second 6 1 296 4 3.84 2.33999633789063 1 0 1 0 0.0036927 0.003863408 0.002527359 0.002789172 0.001677715 1000 0.0036927 0.003863408 0.002527359 0.002789172 0.001677715 1000 0.0008396539 3.048105E-05 0.000198523 0.000176051 -1.773598E-05 1000 0.0008396539 3.048105E-05 0.000198523 0.000176051 -1.773598E-05 1000
lala 20 0.075 0 second 14 1 297 5 4.125 1.43999695777893 0 0 -1 1 6.92768E-05 0.000589711 0.001004786 0.0016528 0.001154543 1000 6.92768E-05 0.000589711 0.001004786 0.0016528 0.001154543 1000 0.0006301256 0.0004081845 0.0005916479 0.0006308118 0.0007160715 1000 0.0006301256 0.0004081845 0.0005916479 0.0006308118 0.0007160715 1000
lala 16 0.6 0 first 4 1 298 6 5.16 3.33999538421631 -1 0 -1 0 0.000854488 0.001033281 -0.0001905807 1000 1000 1000 0.000854488 0.001033281 -0.0001905807 1000 1000 1000 -0.0002432214 -0.0008835038 -0.001208901 -0.001154464 -0.001109769 1000 -0.0002432214 -0.0008835038 -0.001208901 -0.001154464 -0.001109769 1000
lala 19 0.075 0 second 9 1 299 5 3.274999 1.67999696731567 1 1 -1 1 -0.008258364 -0.007707152 -0.008180228 -0.008931529 -0.009443665 1000 -0.008258364 -0.007707152 -0.008180228 -0.008931529 -0.009443665 1000 -0.01073929 -0.010562 -0.01125357 -0.01165322 -0.01244542 1000 -0.01073929 -0.010562 -0.01125357 -0.01165322 -0.01244542 1000
lala 19 0.0046875 1 first 17 1 300 6 5.444064 1.29999709129334 0 1 1 0 -0.0148754 -0.001735851 0.009858679 0.009412871 0.006756053 0.004973982 -0.0148754 -0.001735851 0.009858679 0.009412871 0.006756053 0.004973982 0.00606628 0.006813575 0.006263358 0.007212854 0.007010147 1000 0.00606628 0.006813575 0.006263358 0.007212854 0.007010147 1000
lala 19 0.075 1 first 13 1 301 4 2.4325 1.65999698638916 0 1 1 1 0.007559944 0.006148614 0.005792014 1000 1000 1000 0.007559944 0.006148614 0.005792014 1000 1000 1000 0.004598449 0.005158501 0.005296655 0.004968725 0.005357841 1000 0.004598449 0.005158501 0.005296655 0.004968725 0.005357841 1000
lala 18 0.6 1 second 3 1 302 5 5.25 0.859997510910034 -1 1 1 1 0.004498432 0.003909696 0.003813942 0.003798021 0.003728195 1000 0.004498432 0.003909696 0.003813942 0.003798021 0.003728195 1000 0.001617275 0.001471228 0.001452316 0.001182485 0.001522132 1000 0.001617275 0.001471228 0.001452316 0.001182485 0.001522132 1000
lala 22 0.3 0 second 12 1 303 4 2.6775 0.819997549057007 0 0 -1 1 -0.000141663 0.0007558558 0.001786965 0.002125023 0.001051264 1000 -0.000141663 0.0007558558 0.001786965 0.002125023 0.001051264 1000 0.0007792868 0.0004295781 6.237732E-05 0.0007321135 0.0004041514 1000 0.0007792868 0.0004295781 6.237732E-05 0.0007321135 0.0004041514 1000
lala 12 0.6 0 second 6 1 304 4 3.24 3.37999534606934 1 0 -1 1 -0.001148521 -0.000538925 0.0003294831 -3.53409E-05 -0.0005464999 1000 -0.001148521 -0.000538925 0.0003294831 -3.53409E-05 -0.0005464999 1000 -0.0002222478 -0.000710402 -0.0006280149 -0.0009240119 -0.001370155 1000 -0.0002222478 -0.000710402 -0.0006280149 -0.0009240119 -0.001370155 1000
lala 18 0.0375 1 second 11 1 305 6 4.192501 1.87999677658081 1 1 1 1 0.006415401 0.007220356 0.006405302 0.007758325 0.008734863 1000 0.006415401 0.007220356 0.006405302 0.007758325 0.008734863 1000 0.006481505 0.005199301 0.004546934 0.002795186 0.001948482 1000 0.006481505 0.005199301 0.004546934 0.002795186 0.001948482 1000
lala 17 0.3 1 first 4 1 306 6 5.46 2.31999635696411 -1 0 1 1 0.001706957 0.002540002 0.002545739 1000 1000 1000 0.001706957 0.002540002 0.002545739 1000 1000 1000 0.0002836694 0.001154402 0.0004485264 0.0005172035 0.0002719763 1000 0.0002836694 0.001154402 0.0004485264 0.0005172035 0.0002719763 1000
lala 20 0.075 1 first 9 1 307 5 3.349999 1.59999680519104 1 1 1 1 -0.005365874 -0.00638898 -0.006937295 1000 1000 1000 -0.005365874 -0.00638898 -0.006937295 1000 1000 1000 -0.007427378 -0.007702067 -0.007327463 -0.007146786 -0.008160182 1000 -0.007427378 -0.007702067 -0.007327463 -0.007146786 -0.008160182 1000
lala 20 0.00234375 1 second 17 1 308 6 5.44172 1.37999701499939 0 1 1 0 -0.009042407 -0.009318903 -0.008928929 -0.008735184 -0.009473132 1000 -0.009042407 -0.009318903 -0.008928929 -0.008735184 -0.009473132 1000 -0.01161719 -0.01192051 -0.01126313 -0.0119208 -0.011991 1000 -0.01161719 -0.01192051 -0.01126313 -0.0119208 -0.011991 1000
lala 13 0.3 0 second 6 1 309 4 3.54 0.959997415542603 1 0 -1 1 -0.0137723 -0.01437231 -0.01349335 -0.01287011 -0.01247169 1000 -0.0137723 -0.01437231 -0.01349335 -0.01287011 -0.01247169 1000 -0.01526749 -0.01638057 -0.01690263 -0.01676113 -0.01628969 1000 -0.01526749 -0.01638057 -0.01690263 -0.01676113 -0.01628969 1000
lala 21 0.00234375 1 second 17 1 310 6 5.439376 0.479997873306274 0 1 1 0 -0.02033728 -0.02046675 -0.02075479 -0.02099812 -0.02130054 1000 -0.02033728 -0.02046675 -0.02075479 -0.02099812 -0.02130054 1000 -0.02212843 -0.02175763 -0.02222649 -0.02199504 -0.02185319 1000 -0.02212843 -0.02175763 -0.02222649 -0.02199504 -0.02185319 1000
lala 18 0.15 0 first 2 1 311 5 4.650001 2.5999960899353 -1 0 -1 0 -0.02354884 -0.0241644 -0.02472217 1000 1000 1000 -0.02354884 -0.0241644 -0.02472217 1000 1000 1000 -0.0263162 -0.027369 -0.0270815 -0.0270711 -0.02755732 1000 -0.0263162 -0.027369 -0.0270815 -0.0270711 -0.02755732 1000
lala 23 0.0375 0 first 7 1 312 4 4.3075 8.04004907608032 1 1 -1 1 -0.02444234 -0.02384588 -0.02354177 1000 1000 1000 -0.02444234 -0.02384588 -0.02354177 1000 1000 1000 -0.02090497 -0.02165467 -0.02147529 -0.02242705 -0.02274531 1000 -0.02090497 -0.02165467 -0.02147529 -0.02242705 -0.02274531 1000
lala 23 0.01875 1 first 16 1 313 6 5.25375 1.3999969959259 0 0 1 0 -0.01440089 -0.01150389 -0.0109384 1000 1000 1000 -0.01440089 -0.01150389 -0.0109384 1000 1000 1000 -0.01511294 -0.01500321 -0.01529192 -0.01573092 -0.01595802 1000 -0.01511294 -0.01500321 -0.01529192 -0.01573092 -0.01595802 1000
lala 19 0.075 1 second 2 1 314 5 4.725 2.89999580383301 -1 0 1 1 -0.01618557 -0.01657872 -0.01607182 -0.01646856 -0.01733816 1000 -0.01618557 -0.01657872 -0.01607182 -0.01646856 -0.01733816 1000 -0.01820811 -0.01775548 -0.01747777 -0.01795355 -0.01894852 1000 -0.01820811 -0.01775548 -0.01747777 -0.01795355 -0.01894852 1000
lala 22 0.00234375 1 first 17 1 315 6 5.437033 3.0399956703186 0 1 1 0 -0.0181176 -0.01929587 -0.01930715 1000 1000 1000 -0.0181176 -0.01929587 -0.01930715 1000 1000 1000 -0.02015567 -0.02030301 -0.02022821 -0.02013288 -0.02090671 1000 -0.02015567 -0.02030301 -0.02022821 -0.02013288 -0.02090671 1000
lala 18 0.15 0 second 4 1 316 6 5.31 2.37999629974365 -1 0 -1 0 -0.02033801 -0.0203217 -0.02097316 -0.02051563 -0.02132562 1000 -0.02033801 -0.0203217 -0.02097316 -0.02051563 -0.02132562 1000 -0.02217912 -0.0222368 -0.02179787 -0.02153485 -0.02226417 1000 -0.02217912 -0.0222368 -0.02179787 -0.02153485 -0.02226417 1000
lala 14 0.3 0 second 6 1 317 4 3.84 0.859997510910034 1 0 -1 0 -0.01058648 -0.01070731 -0.01136747 -0.0111944 -0.01211283 1000 -0.01058648 -0.01070731 -0.01136747 -0.0111944 -0.01211283 1000 -0.01567692 -0.0156074 -0.01564058 -0.01584424 -0.01666745 1000 -0.01567692 -0.0156074 -0.01564058 -0.01584424 -0.01666745 1000
lala 19 0.01875 0 second 11 1 318 6 4.17375 1.51999688148499 1 1 -1 1 -0.01970856 -0.01927797 -0.01946295 -0.0196301 -0.01964637 1000 -0.01970856 -0.01927797 -0.01946295 -0.0196301 -0.01964637 1000 -0.01953703 -0.0189995 -0.0191045 -0.01930826 -0.01975149 1000 -0.01953703 -0.0189995 -0.0191045 -0.01930826 -0.01975149 1000
lala 18 0.075 0 second 0 1 319 4 4.14 2.19999647140503 -1 0 -1 0 -0.02097619 -0.02111897 -0.02027201 -0.02054651 -0.02137805 1000 -0.02097619 -0.02111897 -0.02027201 -0.02054651 -0.02137805 1000 -0.02326241 -0.02270094 -0.02241142 -0.02233792 -0.02273239 1000 -0.02326241 -0.02270094 -0.02241142 -0.02233792 -0.02273239 1000
lala 23 0.15 1 first 12 1 320 4 2.8275 3.45999526977539 0 0 1 1 -0.01832092 -0.01945131 -0.02005335 1000 1000 1000 -0.01832092 -0.01945131 -0.02005335 1000 1000 1000 -0.02357912 -0.02279667 -0.02230187 -0.02206362 -0.02235598 1000 -0.02357912 -0.02279667 -0.02230187 -0.02206362 -0.02235598 1000
lala 24 0.0375 1 second 16 1 321 6 5.21625 0.719997644424438 0 0 1 0 -0.02429663 -0.02429663 -0.02480178 -0.02512865 -0.02408119 1000 -0.02429663 -0.02429663 -0.02480178 -0.02512865 -0.02408119 1000 -0.02500558 -0.02389104 -0.02375656 -0.02356684 -0.02334785 1000 -0.02500558 -0.02389104 -0.02375656 -0.02356684 -0.02334785 1000
lala 15 0.3 1 second 6 1 322 4 4.14 5.03999376296997 1 0 1 0 -0.02397205 -0.02394149 -0.02427198 -0.02417251 -0.02461968 1000 -0.02397205 -0.02394149 -0.02427198 -0.02417251 -0.02461968 1000 -0.02470884 -0.02482271 -0.02426056 -0.02397538 -0.0248255 1000 -0.02470884 -0.02482271 -0.02426056 -0.02397538 -0.0248255 1000
