subject PestNr Step_Size_OnTrial Pest_Faster Pest_Interval Condition block trial velH velH_Pest Reaction_Time velH_Subject Start_Above Response_MotionEstimation RightOrLeftxRotations_first0 xRotations_first1 xRotations_first2 xRotations_first3 xRotations_first4 xRotations_first5 yRotations_first0 yRotations_first1 yRotations_first2 yRotations_first3 yRotations_first4 yRotations_first5 xRotations_second0 xRotations_second1 xRotations_second2 xRotations_second3 xRotations_second4 xRotations_second5 yRotations_second0 yRotations_second1 yRotations_second2 yRotations_second3 yRotations_second4 yRotations_second5
lala 1 1.2 0 first 0 1 1 3 3.99 8.16005182266235 0 1 -1 0 -0.01467409 -0.01821153 -0.02458604 -0.02968694 -0.02848342 1000 0.01130591 0.01142548 0.01610478 0.02046934 0.0177915 1000 -0.03635499 -0.03640517 -0.03720398 -0.03743833 -0.03792135 1000 0.007265186 0.00727996 -0.03720398 0.007413707 0.006815832 1000
lala 2 1.2 0 first 0 1 2 3 5.190001 2.41999626159668 0 1 -1 0 0.0400622 0.02748061 0.01613677 0.007979497 0.00621743 1000 0.0105269 -0.0001051383 -0.009905034 -0.01259517 -0.009276354 1000 -0.0001509502 -0.001062919 -0.001869786 -0.00217756 -0.002691459 1000 -0.00924642 -0.009258335 -0.001869786 -0.008620472 -0.008618432 1000
lala 3 1.2 0 second 0 1 3 3 6.39 0.0999982357025146 0 1 -1 0 -0.01318541 -0.01275209 -0.01288847 -0.01324904 -0.01278005 1000 -0.01137963 -0.01200544 -0.01196555 -0.01194846 -0.01234727 1000 -0.01880286 -0.01798909 -0.01827428 -0.01891505 -0.01937737 1000 -0.01583184 -0.01572968 -0.01827428 -0.01580428 -0.01607699 1000
lala 4 1.2 0 first 0 1 4 3 7.59 0.199998140335083 0 1 -1 0 -0.02192307 -0.02195454 -0.02207483 -0.02232454 -0.0218822 1000 -0.01387819 -0.01453995 -0.01507691 -0.01500792 -0.01506476 1000 -0.02328063 -0.02312687 -0.02300752 -0.02288423 -0.02246603 1000 -0.01502597 -0.0151168 -0.02300752 -0.01508801 -0.01549109 1000
lala 5 2.4 1 second 0 1 5 3 9 0.739997625350952 0 1 1 0 -0.008682637 -0.01018558 -0.01227188 -0.01332744 -0.01382463 1000 -0.006559952 -0.006045902 -0.003920787 -0.003878193 -0.003443827 1000 -0.01653983 -0.01640986 -0.0162802 -0.01636472 -0.01668042 1000 -0.00351101 -0.003276368 -0.0162802 -0.003699439 -0.003468091 1000
lala 6 1.2 0 first 0 1 6 3 7.8 0.159998178482056 0 1 -1 1 -0.02097038 -0.02135391 -0.021552 -0.0220139 -0.02173407 1000 -0.003759342 -0.003876941 -0.003983827 -0.004050056 -0.004199949 1000 -0.02259103 -0.02330191 -0.02375284 -0.02401045 -0.02392604 1000 -0.004712694 -0.004595355 -0.02375284 -0.004250226 -0.004689395 1000
lala 7 0.6 0 first 0 1 7 3 8.400001 0.0599982738494873 0 1 -1 0 0.01922433 0.01678793 0.01747892 0.01829267 0.01808812 1000 -0.001788382 -0.001864931 -0.00255436 -0.002214841 -0.001341952 1000 0.01307233 0.0117339 0.01145023 0.01114438 0.01168502 1000 -0.0003540749 -0.0006541449 0.01145023 -0.001232415 -0.001055942 1000
lala 8 0.6 1 second 0 1 8 3 9 0.01999831199646 0 1 1 1 0.008087491 0.007794602 0.007987244 0.008202982 0.008473124 1000 0.0007892575 0.0009673902 0.0007833172 0.0006358568 0.0005562972 1000 0.007639993 0.007112394 0.007330054 0.007129735 0.007030134 1000 6.492094E-05 0.0003967921 0.007330054 7.17807E-05 0.0002513423 1000
lala 9 0.3 0 first 0 1 9 3 8.7 0.01999831199646 0 1 -1 0 0.005912245 0.005830399 0.005620824 0.005977849 0.005924427 1000 -0.001139962 -0.001396678 -0.001297855 -0.001450922 -0.001375873 1000 0.005646302 0.005272126 0.005264191 0.005724028 0.006782975 1000 -0.001574957 -0.001518706 0.005264191 -0.00152876 -0.001769734 1000
lala 10 0.15 0 first 0 1 10 3 8.849999 0.01999831199646 0 1 -1 0 -0.002388152 -0.003160615 -0.003397334 -0.002964842 -0.002920191 1000 -0.004939346 -0.004420727 -0.003788899 -0.003640859 -0.003098788 1000 -0.00352041 -0.003479359 -0.003810803 -0.004097168 -0.004210713 1000 -0.001114852 -0.0008356806 -0.003810803 -0.001540092 -0.00177513 1000
lala 11 0.15 0 first 0 1 11 3 8.999999 0.159998178482056 0 1 -1 0 -0.005606303 -0.005683232 -0.005984724 -0.005793159 -0.006683972 1000 -0.001389275 -0.002070461 -0.001804089 -0.001953219 -0.001564978 1000 -0.006305582 -0.006480388 -0.006538509 -0.006028539 -0.005945527 1000 -0.001085615 -0.001198845 -0.006538509 -0.00127424 -0.001503868 1000
lala 12 0.15 0 first 0 1 12 3 9 0.0399982929229736 0 1 -1 1 -0.007541322 -0.007188755 -0.007248266 -0.006829158 -0.005988539 1000 -0.001309466 -0.00168009 -0.0006451397 -0.0002283761 -0.0004553298 1000 -0.006087362 -0.005610782 -0.00528735 -0.00541602 -0.005550559 1000 9.886735E-05 2.03298E-06 -0.00528735 -9.873502E-05 0.0003640969 1000
lala 13 0.3 1 second 0 1 13 3 9 0.01999831199646 0 1 1 0 -0.00682355 -0.007107812 -0.006589523 -0.006651781 -0.007121961 1000 -0.0003321187 0.0002548963 -0.000320881 -0.001280134 -0.001079974 1000 -0.007605402 -0.007458372 -0.007250358 -0.0071995 -0.007299052 1000 -0.0003074037 -0.0002019184 -0.007250358 -0.0001891574 0.0001387009 1000
lala 14 0.15 0 first 0 1 14 3 8.85 0.01999831199646 0 1 -1 1 -0.008273808 -0.008222457 -0.008417277 -0.008457559 -0.008233286 1000 0.000379846 0.00014253 0.0006634271 0.0008859341 0.0007453508 1000 -0.009522648 -0.009260788 -0.009218153 -0.009229048 -0.009105509 1000 0.0002853795 -4.795243E-06 -0.009218153 -0.0001705495 -0.0003070383 1000
lala 15 0.075 0 first 0 1 15 3 8.925 0.01999831199646 0 1 -1 0 -0.003991797 -0.002969001 -0.002523778 -0.001649303 -0.002425024 1000 0.001480528 0.0001233319 -0.0007968286 -0.001015381 -0.0007720256 1000 -0.006652086 -0.006836819 -0.006345418 -0.005668639 -0.005572775 1000 0.002288939 0.002725289 -0.006345418 0.002311697 0.00278491 1000
lala 16 0.075 1 second 0 1 16 3 9 0.01999831199646 0 1 1 1 -0.006140859 -0.005959381 -0.005863282 -0.005950682 -0.005715616 1000 0.00548428 0.005485202 0.005954244 0.005930721 0.005767595 1000 -0.007011431 -0.007246768 -0.008039098 -0.008499389 -0.008611169 1000 0.005946126 0.006003583 -0.008039098 0.006170528 0.005612846 1000
lala 17 0.0375 1 second 0 1 17 3 8.9625 0.01999831199646 0 1 1 0 -0.01686023 -0.00646623 0.009586094 0.01946911 0.02260147 1000 0.02032538 0.01954968 0.01661093 0.01585101 0.02022067 1000 -0.01637309 -0.01599042 -0.01618656 -0.01844181 -0.02014608 1000 0.02264945 0.01895834 -0.01618656 0.0178068 0.01737107 1000
lala 18 0.0375 0 first 0 1 18 3 8.924999 0.0399982929229736 0 1 -1 1 -0.02508515 -0.02441562 -0.02570785 -0.02701131 -0.02817147 1000 0.01639129 0.01720115 0.01784399 0.01867224 0.01754139 1000 -0.03231975 -0.03386146 -0.03502927 -0.035974 -0.03604559 1000 0.001854975 0.004102794 -0.03502927 0.005783109 0.006140361 1000
lala 19 0.01875 0 first 0 1 19 3 8.943749 0.01999831199646 0 1 -1 0 0.005012062 0.003416562 0.002203321 0.001887855 0.001924634 1000 -0.01336905 -0.0143906 -0.01463736 -0.01432122 -0.01410225 1000 -0.001410995 -0.001226236 -0.0007880877 -0.0001063798 0.0002153229 1000 -0.01164041 -0.01098996 -0.0007880877 -0.0103749 -0.01060288 1000
lala 20 0.01875 0 first 0 1 20 3 8.9625 0.01999831199646 0 1 -1 0 -0.01746823 -0.01767829 -0.01845922 -0.01915802 -0.01981657 1000 0.001124988 -7.090317E-05 -0.001119633 -0.002377437 -0.002908582 1000 -0.02190444 -0.02199938 -0.02186685 -0.0219132 -0.02209301 1000 -0.002042304 -0.00221474 -0.02186685 -0.002349671 -0.00201715 1000
lala 21 0.01875 0 first 0 1 21 3 8.98125 0.01999831199646 0 1 -1 1 -0.0248328 -0.02466303 -0.0243295 -0.0244073 -0.02464939 1000 -0.001208597 -0.001247107 -0.001856314 -0.001591847 -0.001963507 1000 -0.02611316 -0.02600043 -0.02564182 -0.02554909 -0.02565878 1000 -0.002362371 -0.002321677 -0.02564182 -0.002545177 -0.002470767 1000
lala 22 0.0375 0 first 0 1 22 3 9 0.01999831199646 0 1 -1 0 -0.02360792 -0.02359565 -0.0239173 -0.02418816 -0.02431626 1000 -0.002022458 -0.001530077 -0.0009914323 -0.0005310086 0.0001798114 1000 -0.0251124 -0.02492807 -0.02504144 -0.02524578 -0.02514676 1000 0.0003294549 0.0004656514 -0.02504144 0.0005195003 -0.0003682305 1000
lala 23 0.075 1 first 0 1 23 3 9 0.01999831199646 0 1 1 1 -0.01223986 -0.01743134 -0.01438661 -0.01356183 -0.01375481 1000 0.04543731 0.04078319 0.03287182 0.02843721 0.02461054 1000 -0.02266536 -0.02498427 -0.02546697 -0.02569314 -0.02575972 1000 0.0007677498 0.0008307454 -0.02546697 -0.0002133639 -5.387119E-06 1000
lala 24 0.0375 1 second 0 1 24 3 8.9625 0.01999831199646 0 1 1 0 -0.02212782 -0.0232728 -0.0238112 -0.02471193 -0.02500458 1000 -0.009970604 -0.00861934 -0.008965394 -0.008602524 -0.007677136 1000 -0.02742416 -0.02770693 -0.02776637 -0.02755973 -0.02742908 1000 -0.003746914 -0.003525157 -0.02776637 -0.003866563 -0.003818023 1000
lala 25 0.0375 0 first 0 1 25 3 8.924999 0.01999831199646 0 1 -1 1 -0.02719272 -0.0272697 -0.02749254 -0.02729815 -0.02783972 1000 -0.005372623 -0.005473953 -0.004880576 -0.004653129 -0.004258179 1000 -0.03096065 -0.03028752 -0.02947466 -0.02914043 -0.02985126 1000 -0.005739348 -0.005626233 -0.02947466 -0.005754317 -0.005374151 1000
lala 26 0.01875 0 first 0 1 26 3 8.943749 0.01999831199646 0 1 -1 1 0.01133698 0.01000693 0.00810633 0.006801398 0.006778795 1000 -0.003080495 -0.002012065 -0.000150208 0.0003674802 -0.0003001691 1000 0.004734126 0.004822351 0.004749214 0.004306273 0.004332684 1000 0.00164596 0.00174612 0.004749214 0.00122317 0.001153436 1000
