subject PestNr Step_Size_OnTrial Pest_Faster Pest_Interval Condition block trial velH velH_Pest Reaction_Time velH_Subject Start_Above Response_MotionEstimation RightOrLeftxRotations_first0 xRotations_first1 xRotations_first2 xRotations_first3 xRotations_first4 xRotations_first5 yRotations_first0 yRotations_first1 yRotations_first2 yRotations_first3 yRotations_first4 yRotations_first5 xRotations_second0 xRotations_second1 xRotations_second2 xRotations_second3 xRotations_second4 xRotations_second5 yRotations_second0 yRotations_second1 yRotations_second2 yRotations_second3 yRotations_second4 yRotations_second5
lala 1 1.2 0 first 6 1 1 4 2.64 0.01999831199646 1 0 -1 0 -0.01949652 -0.01364001 -0.0143439 -0.0260017 -0.04259644 -0.05676007 -0.01949652 -0.01364001 -0.0143439 -0.0260017 -0.04259644 -0.05676007 -0.01699389 -0.01551943 -0.01442235 -0.01433762 -0.01508046 1000 -0.01699389 -0.01551943 -0.01442235 -0.01433762 -0.01508046 1000
lala 1 1.2 0 first 8 1 2 5 3.3 0.01999831199646 1 0 -1 0 -0.01758087 -0.01648758 -0.01558748 1000 1000 1000 -0.01758087 -0.01648758 -0.01558748 1000 1000 1000 -0.01896131 -0.01987563 -0.02002698 -0.01985577 -0.01955435 1000 -0.01896131 -0.01987563 -0.02002698 -0.01985577 -0.01955435 1000
lala 1 1.2 0 first 16 1 3 6 3.96 0.01999831199646 0 0 -1 0 -0.02171919 -0.02213776 -0.02263218 1000 1000 1000 -0.02171919 -0.02213776 -0.02263218 1000 1000 1000 -0.02353778 -0.02359208 -0.0237459 -0.02364671 -0.02301387 1000 -0.02353778 -0.02359208 -0.0237459 -0.02364671 -0.02301387 1000
lala 1 1.2 1 second 13 1 4 4 5.32 0.0599982738494873 0 1 1 0 -0.02573943 -0.02593077 -0.02638351 -0.02628111 -0.02617902 1000 -0.02573943 -0.02593077 -0.02638351 -0.02628111 -0.02617902 1000 -0.02876583 -0.02748003 -0.02343012 -0.0198687 -0.01825754 1000 -0.02876583 -0.02748003 -0.02343012 -0.0198687 -0.01825754 1000
lala 1 1.2 0 first 11 1 5 6 7.98 0.01999831199646 1 1 -1 0 -0.02053537 -0.02077165 -0.02060376 1000 1000 1000 -0.02053537 -0.02077165 -0.02060376 1000 1000 1000 -0.02226137 -0.02238843 -0.02229002 -0.02207982 -0.02159129 1000 -0.02226137 -0.02238843 -0.02229002 -0.02207982 -0.02159129 1000
lala 1 1.2 0 first 10 1 6 6 3.96 0.01999831199646 1 0 -1 0 -0.02264 -0.02279835 -0.02272108 1000 1000 1000 -0.02264 -0.02279835 -0.02272108 1000 1000 1000 -0.02295983 -0.02317203 -0.02380558 -0.02379658 -0.02326958 1000 -0.02295983 -0.02317203 -0.02380558 -0.02379658 -0.02326958 1000
lala 1 1.2 0 first 4 1 7 6 3.96 0.01999831199646 -1 0 -1 0 -0.02398239 -0.01913685 -0.009716176 1000 1000 1000 -0.02398239 -0.01913685 -0.009716176 1000 1000 1000 0.007132518 0.006523366 0.005982157 0.006308257 0.006472028 1000 0.007132518 0.006523366 0.005982157 0.006308257 0.006472028 1000
lala 2 1.2 1 second 13 1 8 4 4.12 0.01999831199646 0 1 1 1 0.0007023386 0.000548798 0.001160714 0.001383984 0.001399815 1000 0.0007023386 0.000548798 0.001160714 0.001383984 0.001399815 1000 0.001801076 0.001611772 0.001662006 0.002073656 0.002413085 1000 0.001801076 0.001611772 0.001662006 0.002073656 0.002413085 1000
lala 1 1.2 0 first 0 1 9 4 2.64 0.01999831199646 -1 0 -1 0 0.002720045 0.002705385 0.002739688 1000 1000 1000 0.002720045 0.002705385 0.002739688 1000 1000 1000 0.006188485 0.006220154 0.00621554 0.006702055 0.00695911 1000 0.006188485 0.006220154 0.00621554 0.006702055 0.00695911 1000
lala 1 1.2 1 second 2 1 10 5 3.3 0.01999831199646 -1 0 1 0 0.007195708 0.007072747 0.0070486 0.007362341 0.007075095 1000 0.007195708 0.007072747 0.0070486 0.007362341 0.007075095 1000 0.006169394 0.006374882 0.005841733 0.005288686 0.005268408 1000 0.006169394 0.006374882 0.005841733 0.005288686 0.005268408 1000
lala 2 1.2 0 first 10 1 11 6 5.16 0.119998216629028 1 0 -1 1 0.004792486 0.004231125 0.00386985 1000 1000 1000 0.004792486 0.004231125 0.00386985 1000 1000 1000 0.0003936418 -0.02079099 -0.04034264 -0.0340604 -0.04223925 1000 0.0003936418 -0.02079099 -0.04034264 -0.0340604 -0.04223925 1000
lala 3 1.2 0 first 10 1 12 6 6.36 0.01999831199646 1 0 -1 1 -0.005334569 0.004486104 0.002449746 1000 1000 1000 -0.005334569 0.004486104 0.002449746 1000 1000 1000 -0.005912593 -0.00450639 -0.00384058 -0.003696045 -0.003437382 1000 -0.005912593 -0.00450639 -0.00384058 -0.003696045 -0.003437382 1000
lala 2 1.2 1 second 8 1 13 5 4.5 0.0599982738494873 1 0 1 0 -0.0002521533 -0.0004778766 -0.0007512207 -0.0004851796 -0.0002432635 1000 -0.0002521533 -0.0004778766 -0.0007512207 -0.0004851796 -0.0002432635 1000 -0.001814225 -0.001993963 -0.001795102 -0.001802076 -0.002003587 1000 -0.001814225 -0.001993963 -0.001795102 -0.001802076 -0.002003587 1000
lala 1 1.2 1 second 17 1 14 6 7.98 0.0599982738494873 0 1 1 0 -0.001623502 -0.001911087 -0.001314639 -0.00146036 -0.002325281 1000 -0.001623502 -0.001911087 -0.001314639 -0.00146036 -0.002325281 1000 -0.003343675 -0.00330247 -0.002821248 -0.00242789 -0.00298212 1000 -0.003343675 -0.00330247 -0.002821248 -0.00242789 -0.00298212 1000
lala 1 1.2 0 first 15 1 15 5 6.65 0.01999831199646 0 1 -1 1 -0.00358481 -0.003708476 -0.003676966 1000 1000 1000 -0.00358481 -0.003708476 -0.003676966 1000 1000 1000 -0.003386816 -0.00339528 -0.002560448 -0.002706109 -0.003426287 1000 -0.003386816 -0.00339528 -0.002560448 -0.002706109 -0.003426287 1000
lala 1 1.2 0 first 1 1 16 4 5.32 0.01999831199646 -1 1 -1 1 -0.003988212 -0.004201557 -0.003812569 1000 1000 1000 -0.003988212 -0.004201557 -0.003812569 1000 1000 1000 -0.003713322 -0.00361628 -0.003453029 -0.003436252 -0.003410967 1000 -0.003713322 -0.00361628 -0.003453029 -0.003436252 -0.003410967 1000
lala 1 1.2 1 second 12 1 17 4 2.64 0.01999831199646 0 0 1 0 -0.005132889 -0.004956286 -0.004990492 -0.006167636 -0.007150479 1000 -0.005132889 -0.004956286 -0.004990492 -0.006167636 -0.007150479 1000 -0.00863288 -0.008430372 -0.008264177 -0.007955302 -0.007858498 1000 -0.00863288 -0.008430372 -0.008264177 -0.007955302 -0.007858498 1000
lala 3 1.2 0 first 13 1 18 4 2.92 0.01999831199646 0 1 -1 1 -0.008291073 -0.007896748 -0.007641813 1000 1000 1000 -0.008291073 -0.007896748 -0.007641813 1000 1000 1000 -0.007902605 -0.008258485 -0.008042629 -0.008479248 -0.009251795 1000 -0.007902605 -0.008258485 -0.008042629 -0.008479248 -0.009251795 1000
lala 3 1.2 0 first 8 1 19 5 3.3 0.01999831199646 1 0 -1 1 -0.01014812 -0.0109293 -0.0113068 1000 1000 1000 -0.01014812 -0.0109293 -0.0113068 1000 1000 1000 -0.01125067 -0.01111229 -0.01092727 -0.01077602 -0.01053113 1000 -0.01125067 -0.01111229 -0.01092727 -0.01077602 -0.01053113 1000
lala 2 1.2 0 first 2 1 20 5 2.1 0.01999831199646 -1 0 -1 0 -0.01164811 -0.0118104 -0.01220246 1000 1000 1000 -0.01164811 -0.0118104 -0.01220246 1000 1000 1000 -0.01363025 -0.01393633 -0.01334576 -0.0128122 -0.01253695 1000 -0.01363025 -0.01393633 -0.01334576 -0.0128122 -0.01253695 1000
lala 2 1.2 1 second 17 1 21 6 6.780001 0.01999831199646 0 1 1 0 -0.0132598 -0.01328957 -0.01343773 -0.0135553 -0.01330093 1000 -0.0132598 -0.01328957 -0.01343773 -0.0135553 -0.01330093 1000 -0.01538548 -0.01519512 -0.01453432 -0.01452614 -0.0149699 1000 -0.01538548 -0.01519512 -0.01453432 -0.01452614 -0.0149699 1000
lala 3 1.2 1 second 17 1 22 6 5.580001 0.01999831199646 0 1 1 1 -0.01379576 -0.01414847 -0.01407982 -0.01383405 -0.01380451 1000 -0.01379576 -0.01414847 -0.01407982 -0.01383405 -0.01380451 1000 -0.01287084 -0.01295716 -0.01320989 -0.01343148 -0.01398184 1000 -0.01287084 -0.01295716 -0.01320989 -0.01343148 -0.01398184 1000
lala 1 1.2 1 second 3 1 23 5 6.65 0.01999831199646 -1 1 1 0 -0.01554089 -0.01538191 -0.01495134 -0.01506755 -0.01519456 1000 -0.01554089 -0.01538191 -0.01495134 -0.01506755 -0.01519456 1000 -0.01465045 -0.01494499 -0.01473552 -0.01411341 -0.01495716 1000 -0.01465045 -0.01494499 -0.01473552 -0.01411341 -0.01495716 1000
lala 1 1.2 1 second 14 1 24 5 3.3 0.01999831199646 0 0 1 0 -0.01541082 -0.01548709 -0.01565323 -0.01577336 -0.01571377 1000 -0.01541082 -0.01548709 -0.01565323 -0.01577336 -0.01571377 1000 -0.01644252 -0.01632483 -0.01634041 -0.01638419 -0.01658832 1000 -0.01644252 -0.01632483 -0.01634041 -0.01638419 -0.01658832 1000
lala 2 1.2 0 first 0 1 25 4 3.84 0.01999831199646 -1 0 -1 0 -0.01894171 -0.02389977 -0.02825017 1000 1000 1000 -0.01894171 -0.02389977 -0.02825017 1000 1000 1000 -0.009924292 -0.008787453 -0.008953591 -0.007911537 -0.007276007 1000 -0.009924292 -0.008787453 -0.008953591 -0.007911537 -0.007276007 1000
lala 4 1.2 1 second 13 1 26 4 4.12 0.01999831199646 0 1 1 1 -0.009456798 -0.009357317 -0.009268896 -0.009936683 -0.01062036 1000 -0.009456798 -0.009357317 -0.009268896 -0.009936683 -0.01062036 1000 -0.01156731 -0.01179704 -0.01194025 -0.01181119 -0.01214478 1000 -0.01156731 -0.01179704 -0.01194025 -0.01181119 -0.01214478 1000
lala 2 1.2 1 first 14 1 27 5 2.1 6.04000329971313 0 0 1 1 -0.01421641 -0.01488166 -0.0158375 1000 1000 1000 -0.01421641 -0.01488166 -0.0158375 1000 1000 1000 -0.0177155 -0.01756678 -0.01749617 -0.0173212 -0.01825543 1000 -0.0177155 -0.01756678 -0.01749617 -0.0173212 -0.01825543 1000
lala 2 1.2 1 second 16 1 28 6 5.16 0.01999831199646 0 0 1 1 -0.002571 -0.002810596 -0.003261798 -0.003331706 -0.002652679 1000 -0.002571 -0.002810596 -0.003261798 -0.003331706 -0.002652679 1000 -0.003512621 -0.003201377 -0.003201399 -0.003359487 -0.00313032 1000 -0.003512621 -0.003201377 -0.003201399 -0.003359487 -0.00313032 1000
lala 1 1.2 0 first 5 1 29 6 7.98 0.01999831199646 -1 1 -1 1 -0.001632168 -0.002382248 -0.002340663 1000 1000 1000 -0.001632168 -0.002382248 -0.002340663 1000 1000 1000 0.0113225 0.01276685 0.01363068 0.0144403 0.01663929 1000 0.0113225 0.01276685 0.01363068 0.0144403 0.01663929 1000
lala 2 1.2 0 first 11 1 30 6 9.18 0.079998254776001 1 1 -1 0 0.01326408 0.01209197 0.01268501 1000 1000 1000 0.01326408 0.01209197 0.01268501 1000 1000 1000 0.004722004 0.001830883 0.001591865 0.001763489 0.001998644 1000 0.004722004 0.001830883 0.001591865 0.001763489 0.001998644 1000
lala 3 1.2 1 first 0 1 31 4 5.04 0.0599982738494873 -1 0 1 1 0.0004059546 -0.006558889 -0.008828725 1000 1000 1000 0.0004059546 -0.006558889 -0.008828725 1000 1000 1000 -0.0008174687 -0.002858384 -0.002872912 -0.00230348 -0.002274416 1000 -0.0008174687 -0.002858384 -0.002872912 -0.00230348 -0.002274416 1000
lala 5 1.2 1 second 13 1 32 4 2.92 0.01999831199646 0 1 1 1 -0.007314391 -0.007437473 -0.006925317 -0.005887777 -0.005986681 1000 -0.007314391 -0.007437473 -0.006925317 -0.005887777 -0.005986681 1000 -0.005431349 -0.005660176 -0.00612506 -0.006517452 -0.005856266 1000 -0.005431349 -0.005660176 -0.00612506 -0.006517452 -0.005856266 1000
lala 4 1.2 0 first 17 1 33 6 4.380001 0.01999831199646 0 1 -1 1 -0.006683746 -0.006080814 -0.005721766 1000 1000 1000 -0.006683746 -0.006080814 -0.005721766 1000 1000 1000 -0.002304338 -0.002534107 -0.003002664 -0.003142828 -0.002690447 1000 -0.002304338 -0.002534107 -0.003002664 -0.003142828 -0.002690447 1000
lala 2 1.2 0 first 6 1 34 4 3.84 0.01999831199646 1 0 -1 1 -0.002572711 -0.00328519 -0.004251432 1000 1000 1000 -0.002572711 -0.00328519 -0.004251432 1000 1000 1000 -0.005516542 -0.005734382 -0.005580257 -0.005722129 -0.005667456 1000 -0.005516542 -0.005734382 -0.005580257 -0.005722129 -0.005667456 1000
lala 2 1.2 0 first 5 1 35 6 9.18 0.01999831199646 -1 1 -1 1 -0.005907052 -0.005712127 -0.005891343 1000 1000 1000 -0.005907052 -0.005712127 -0.005891343 1000 1000 1000 -0.01012293 -0.01081699 -0.0114982 -0.01173197 -0.01157308 1000 -0.01012293 -0.01081699 -0.0114982 -0.01173197 -0.01157308 1000
lala 2 1.2 1 second 4 1 36 6 5.16 0.01999831199646 -1 0 1 1 -0.01519482 -0.01481628 -0.01496758 -0.01485766 -0.01455961 1000 -0.01519482 -0.01481628 -0.01496758 -0.01485766 -0.01455961 1000 -0.01552602 -0.01533747 -0.01508793 -0.01500772 -0.01479089 1000 -0.01552602 -0.01533747 -0.01508793 -0.01500772 -0.01479089 1000
lala 2 1.2 0 first 1 1 37 4 6.52 0.01999831199646 -1 1 -1 0 -0.01535339 -0.01607505 -0.01590556 1000 1000 1000 -0.01535339 -0.01607505 -0.01590556 1000 1000 1000 -0.01728832 -0.01718987 -0.01658996 -0.01660401 -0.01677561 1000 -0.01728832 -0.01718987 -0.01658996 -0.01660401 -0.01677561 1000
lala 4 1.2 1 first 8 1 38 5 4.5 14.0801863670349 1 0 1 1 -0.01732173 -0.01762519 -0.01788038 1000 1000 1000 -0.01732173 -0.01762519 -0.01788038 1000 1000 1000 -0.02060588 -0.02038119 -0.02089216 -0.02144489 -0.02226425 1000 -0.02060588 -0.02038119 -0.02089216 -0.02144489 -0.02226425 1000
lala 2 1.2 1 second 12 1 39 4 1.44 0.01999831199646 0 0 1 1 -0.01456873 -0.01466206 -0.01458998 -0.01472458 -0.01484254 1000 -0.01456873 -0.01466206 -0.01458998 -0.01472458 -0.01484254 1000 -0.01429774 -0.01468701 -0.01495925 -0.01474539 -0.01473931 1000 -0.01429774 -0.01468701 -0.01495925 -0.01474539 -0.01473931 1000
lala 1 1.2 0 first 9 1 40 5 6.65 0.01999831199646 1 1 -1 1 -0.01599816 -0.01590788 -0.01629689 1000 1000 1000 -0.01599816 -0.01590788 -0.01629689 1000 1000 1000 -0.01983172 -0.01989875 -0.01959548 -0.01960659 -0.01970739 1000 -0.01983172 -0.01989875 -0.01959548 -0.01960659 -0.01970739 1000
lala 6 1.2 1 second 13 1 41 4 1.72 3.11999559402466 0 1 1 0 -0.02089497 -0.02084923 -0.02067227 -0.02104666 -0.02133884 1000 -0.02089497 -0.02084923 -0.02067227 -0.02104666 -0.02133884 1000 -0.02282055 -0.02322871 -0.02369961 -0.02351857 -0.02371522 1000 -0.02282055 -0.02322871 -0.02369961 -0.02351857 -0.02371522 1000
lala 3 1.2 1 first 14 1 42 5 1.65 5.25999355316162 0 0 1 0 -0.01201997 -0.01228343 -0.01335799 1000 1000 1000 -0.01201997 -0.01228343 -0.01335799 1000 1000 1000 -0.01548791 -0.01563353 -0.01532101 -0.01462275 -0.01438281 1000 -0.01548791 -0.01563353 -0.01532101 -0.01462275 -0.01438281 1000
lala 2 1.2 0 first 3 1 43 5 5.45 0.079998254776001 -1 1 -1 0 -0.003285861 -0.003260808 -0.003077082 1000 1000 1000 -0.003285861 -0.003260808 -0.003077082 1000 1000 1000 -0.001177099 -0.001095325 -0.001968442 -0.001747353 -0.001641968 1000 -0.001177099 -0.001095325 -0.001968442 -0.001747353 -0.001641968 1000
lala 4 1.2 1 second 10 1 44 6 7.559999 0.01999831199646 1 0 1 1 -0.002511031 -0.00189039 -0.001691154 -0.00133039 -0.001224247 1000 -0.002511031 -0.00189039 -0.001691154 -0.00133039 -0.001224247 1000 -0.0007177403 -0.0003534498 -0.0006301344 -0.001165555 -0.001153243 1000 -0.0007177403 -0.0003534498 -0.0006301344 -0.001165555 -0.001153243 1000
lala 3 1.2 1 second 6 1 45 4 5.04 0.01999831199646 1 0 1 1 0.006441472 0.006142172 0.005833857 0.005713482 0.005832085 1000 0.006441472 0.006142172 0.005833857 0.005713482 0.005832085 1000 0.002070662 0.002153141 0.0021552 0.001839197 0.001375949 1000 0.002070662 0.002153141 0.0021552 0.001839197 0.001375949 1000
lala 2 1.2 1 second 15 1 46 5 7.85 0.01999831199646 0 1 1 1 0.001193726 0.001478527 0.001000808 0.001302178 0.001541584 1000 0.001193726 0.001478527 0.001000808 0.001302178 0.001541584 1000 0.00251811 -0.001474152 0.00246101 0.0009894818 0.0004876247 1000 0.00251811 -0.001474152 0.00246101 0.0009894818 0.0004876247 1000
lala 2 1.2 0 first 9 1 47 5 7.85 0.01999831199646 1 1 -1 1 -0.001754507 -0.0008936545 -0.0006521748 1000 1000 1000 -0.001754507 -0.0008936545 -0.0006521748 1000 1000 1000 -0.005876753 -0.00610543 -0.006204041 -0.006119985 -0.006456067 1000 -0.005876753 -0.00610543 -0.006204041 -0.006119985 -0.006456067 1000
lala 5 1.2 1 second 17 1 48 6 5.580001 20.9403433799744 0 1 1 1 -0.008031214 -0.00833197 -0.008514415 -0.008484907 -0.007911784 1000 -0.008031214 -0.00833197 -0.008514415 -0.008484907 -0.007911784 1000 -0.00812758 -0.007763872 -0.007886338 -0.007947672 -0.007639301 1000 -0.00812758 -0.007763872 -0.007886338 -0.007947672 -0.007639301 1000
lala 1 1.2 1 second 7 1 49 4 5.32 0.919997453689575 1 1 1 0 -0.007221987 -0.007168376 -0.006805209 -0.006967069 -0.00711247 1000 -0.007221987 -0.007168376 -0.006805209 -0.006967069 -0.00711247 1000 -0.008125705 -0.008125506 -0.008459419 -0.008402571 -0.008486433 1000 -0.008125705 -0.008125506 -0.008459419 -0.008402571 -0.008486433 1000
lala 4 1.2 0 second 14 1 50 5 1.65 0.659997701644897 0 0 -1 0 -0.00183763 -0.002863313 -0.003279158 -0.004759853 -0.004673665 1000 -0.00183763 -0.002863313 -0.003279158 -0.004759853 -0.004673665 1000 -0.01710668 -0.01823225 -0.01904388 -0.01974452 -0.02130102 1000 -0.01710668 -0.01823225 -0.01904388 -0.01974452 -0.02130102 1000
lala 5 1.2 0 first 8 1 51 5 3.3 0.279998064041138 1 0 -1 0 -0.01383869 -0.002220667 -0.001073083 1000 1000 1000 -0.01383869 -0.002220667 -0.001073083 1000 1000 1000 -0.0110936 -0.01196715 -0.01225706 -0.01220204 -0.01220295 1000 -0.0110936 -0.01196715 -0.01225706 -0.01220204 -0.01220295 1000
lala 3 1.2 1 first 1 1 52 4 7.72 0.01999831199646 -1 1 1 1 -0.01270627 -0.01205011 -0.01223813 1000 1000 1000 -0.01270627 -0.01205011 -0.01223813 1000 1000 1000 -0.0163474 -0.01626975 -0.01626864 -0.01673625 -0.01737235 1000 -0.0163474 -0.01626975 -0.01626864 -0.01673625 -0.01737235 1000
lala 4 1.2 0 first 1 1 53 4 6.52 2.85999584197998 -1 1 -1 0 -0.01829364 -0.0180161 -0.01777919 1000 1000 1000 -0.01829364 -0.0180161 -0.01777919 1000 1000 1000 -0.02048951 -0.02130508 -0.02201977 -0.02185937 -0.02170664 1000 -0.02048951 -0.02130508 -0.02201977 -0.02185937 -0.02170664 1000
lala 5 1.2 1 second 10 1 54 6 6.36 0.479997873306274 1 0 1 1 -0.0193875 -0.01953574 -0.01940319 -0.01919678 -0.019515 1000 -0.0193875 -0.01953574 -0.01940319 -0.01919678 -0.019515 1000 -0.01969578 -0.01978206 -0.01956934 -0.0192358 -0.01902989 1000 -0.01969578 -0.01978206 -0.01956934 -0.0192358 -0.01902989 1000
lala 6 1.2 1 second 8 1 55 5 4.5 0.359997987747192 1 0 1 0 -0.02025887 -0.02024119 -0.01983612 -0.01999045 -0.02039115 1000 -0.02025887 -0.02024119 -0.01983612 -0.01999045 -0.02039115 1000 -0.02080025 -0.02117052 -0.02081546 -0.0205811 -0.0204753 1000 -0.02080025 -0.02117052 -0.02081546 -0.0205811 -0.0204753 1000
lala 4 1.2 1 first 0 1 56 4 3.84 0.419997930526733 -1 0 1 0 -0.01997195 -0.01965542 -0.01946275 1000 1000 1000 -0.01997195 -0.01965542 -0.01946275 1000 1000 1000 -0.02106393 -0.02128146 -0.02090959 -0.02065858 -0.02059757 1000 -0.02106393 -0.02128146 -0.02090959 -0.02065858 -0.02059757 1000
lala 3 1.2 0 second 12 1 57 4 1.32 0.359997987747192 0 0 -1 0 -0.01934747 -0.01973972 -0.02030623 -0.02027039 -0.02024934 1000 -0.01934747 -0.01973972 -0.02030623 -0.02027039 -0.02024934 1000 -0.02201445 -0.02200895 -0.02230008 -0.02257477 -0.02274656 1000 -0.02201445 -0.02200895 -0.02230008 -0.02257477 -0.02274656 1000
lala 3 1.2 0 second 4 1 58 6 3.96 0.359997987747192 -1 0 -1 1 -0.02114294 -0.02089116 -0.02021439 -0.01987682 -0.01965921 1000 -0.02114294 -0.02089116 -0.02021439 -0.01987682 -0.01965921 1000 -0.02264402 -0.02263452 -0.02271127 -0.02296614 -0.02312347 1000 -0.02264402 -0.02263452 -0.02271127 -0.02296614 -0.02312347 1000
lala 6 1.2 1 second 17 1 59 6 4.380001 0.01999831199646 0 1 1 0 -0.02348126 -0.02318758 -0.02290116 -0.02272297 -0.02285352 1000 -0.02348126 -0.02318758 -0.02290116 -0.02272297 -0.02285352 1000 -0.02350926 -0.02372574 -0.02403704 -0.02401836 -0.0241342 1000 -0.02350926 -0.02372574 -0.02403704 -0.02401836 -0.0241342 1000
lala 4 1.2 0 first 6 1 60 4 3.84 0.499997854232788 1 0 -1 1 -0.0217067 -0.01780121 -0.01595741 1000 1000 1000 -0.0217067 -0.01780121 -0.01595741 1000 1000 1000 -0.0158077 -0.01563301 -0.01567482 -0.01545535 -0.01564957 1000 -0.0158077 -0.01563301 -0.01567482 -0.01545535 -0.01564957 1000
lala 3 1.2 0 first 2 1 61 5 3.3 0.639997720718384 -1 0 -1 1 -0.01954338 -0.01969349 -0.01925628 1000 1000 1000 -0.01954338 -0.01969349 -0.01925628 1000 1000 1000 -0.01801253 -0.01776565 -0.01778241 -0.01811919 -0.01787258 1000 -0.01801253 -0.01776565 -0.01778241 -0.01811919 -0.01787258 1000
lala 4 1.2 1 second 12 1 62 4 2.52 0.279998064041138 0 0 1 1 -0.01659671 -0.01646287 -0.01629372 -0.01635973 -0.01663349 1000 -0.01659671 -0.01646287 -0.01629372 -0.01635973 -0.01663349 1000 -0.01750015 -0.01832913 -0.01908745 -0.01953536 -0.01964266 1000 -0.01750015 -0.01832913 -0.01908745 -0.01953536 -0.01964266 1000
lala 7 1.2 0 second 13 1 63 4 1.32 0.61999773979187 0 1 -1 1 -0.01990138 -0.01989032 -0.01960381 -0.01936006 -0.01929037 1000 -0.01990138 -0.01989032 -0.01960381 -0.01936006 -0.01929037 1000 -0.02006243 -0.02001292 -0.02008512 -0.02019208 -0.02015587 1000 -0.02006243 -0.02001292 -0.02008512 -0.02019208 -0.02015587 1000
lala 3 1.2 1 second 9 1 64 5 9.05 0.199998140335083 1 1 1 1 -0.02074626 -0.02061101 -0.02068917 -0.02072131 -0.0203569 1000 -0.02074626 -0.02061101 -0.02068917 -0.02072131 -0.0203569 1000 -0.02029494 -0.02021994 -0.01977693 -0.01999877 -0.02073936 1000 -0.02029494 -0.02021994 -0.01977693 -0.01999877 -0.02073936 1000
lala 3 1.2 1 second 5 1 65 6 10.38 0.339998006820679 -1 1 1 0 -0.02087731 -0.02063734 -0.02058452 -0.02053428 -0.02050042 1000 -0.02087731 -0.02063734 -0.02058452 -0.02053428 -0.02050042 1000 -0.02042323 -0.02062746 -0.02059101 -0.02078077 -0.0205192 1000 -0.02042323 -0.02062746 -0.02059101 -0.02078077 -0.0205192 1000
lala 4 1.2 1 first 9 1 66 5 7.85 0.299998044967651 1 1 1 0 -0.02225686 -0.02219616 -0.0222269 1000 1000 1000 -0.02225686 -0.02219616 -0.0222269 1000 1000 1000 -0.02336688 -0.02313905 -0.02299231 -0.0227582 -0.02266943 1000 -0.02336688 -0.02313905 -0.02299231 -0.0227582 -0.02266943 1000
lala 8 1.2 0 second 13 1 67 4 2.52 0.539997816085815 0 1 -1 0 -0.02317598 -0.0236255 -0.02335466 -0.02324992 -0.02334518 1000 -0.02317598 -0.0236255 -0.02335466 -0.02324992 -0.02334518 1000 -0.02459881 -0.02428962 -0.02424276 -0.02439548 -0.02430144 1000 -0.02459881 -0.02428962 -0.02424276 -0.02439548 -0.02430144 1000
lala 4 1.2 1 second 5 1 68 6 9.18 0.0999982357025146 -1 1 1 0 -0.02314688 -0.0227501 -0.02272793 -0.0229095 -0.02327666 1000 -0.02314688 -0.0227501 -0.02272793 -0.0229095 -0.02327666 1000 -0.02446841 -0.02470066 -0.02433772 -0.02423753 -0.02451653 1000 -0.02446841 -0.02470066 -0.02433772 -0.02423753 -0.02451653 1000
lala 5 1.2 1 second 6 1 69 4 5.04 0.01999831199646 1 0 1 0 -0.02288907 -0.02269726 -0.02267942 -0.02271746 -0.02260103 1000 -0.02288907 -0.02269726 -0.02267942 -0.02271746 -0.02260103 1000 -0.02398343 -0.02384309 -0.02391481 -0.02435834 -0.02413182 1000 -0.02398343 -0.02384309 -0.02391481 -0.02435834 -0.02413182 1000
lala 5 1.2 1 first 1 1 70 4 7.72 0.23999810218811 -1 1 1 1 -0.0245206 -0.02440689 -0.02401841 1000 1000 1000 -0.0245206 -0.02440689 -0.02401841 1000 1000 1000 -0.02224082 -0.02216981 -0.02215026 -0.02221838 -0.02247036 1000 -0.02224082 -0.02216981 -0.02215026 -0.02221838 -0.02247036 1000
lala 4 1.2 1 first 4 1 71 6 5.16 0.699997663497925 -1 0 1 1 -0.02296777 -0.02284265 -0.02276884 1000 1000 1000 -0.02296777 -0.02284265 -0.02276884 1000 1000 1000 -0.02261526 -0.02247719 -0.02219893 -0.0221119 -0.02240713 1000 -0.02261526 -0.02247719 -0.02219893 -0.0221119 -0.02240713 1000
lala 3 1.2 1 second 11 1 72 6 10.38 0.359997987747192 1 1 1 1 -0.02354862 -0.0233418 -0.02324902 -0.0232036 -0.02281976 1000 -0.02354862 -0.0233418 -0.02324902 -0.0232036 -0.02281976 1000 -0.02318634 -0.02299061 -0.02278513 -0.02315692 -0.02350537 1000 -0.02318634 -0.02299061 -0.02278513 -0.02315692 -0.02350537 1000
lala 3 1.2 1 second 15 1 73 5 6.650001 0.299998044967651 0 1 1 0 -0.02142968 -0.01758248 -0.01449795 -0.01201248 -0.01188612 1000 -0.02142968 -0.01758248 -0.01449795 -0.01201248 -0.01188612 1000 -0.01385784 -0.01410394 -0.01480372 -0.01503665 -0.01509127 1000 -0.01385784 -0.01410394 -0.01480372 -0.01503665 -0.01509127 1000
lala 6 1.2 1 first 6 1 74 4 3.84 0.499997854232788 1 0 1 1 -0.01830422 -0.01822034 -0.01815544 1000 1000 1000 -0.01830422 -0.01822034 -0.01815544 1000 1000 1000 -0.01834704 -0.01816886 -0.01853454 -0.01894965 -0.01879172 1000 -0.01834704 -0.01816886 -0.01853454 -0.01894965 -0.01879172 1000
lala 5 1.2 0 first 0 1 75 4 2.64 0.219998121261597 -1 0 -1 0 -0.01986033 -0.01950814 -0.01940845 1000 1000 1000 -0.01986033 -0.01950814 -0.01940845 1000 1000 1000 -0.01849128 -0.0183673 -0.01820874 -0.01824356 -0.01830189 1000 -0.01849128 -0.0183673 -0.01820874 -0.01824356 -0.01830189 1000
lala 5 1.2 0 first 4 1 76 6 3.96 0.0399982929229736 -1 0 -1 1 -0.01942562 -0.01986467 -0.01986467 1000 1000 1000 -0.01942562 -0.01986467 -0.01986467 1000 1000 1000 -0.01965604 -0.01968357 -0.01938418 -0.01925722 -0.01920457 1000 -0.01965604 -0.01968357 -0.01938418 -0.01925722 -0.01920457 1000
lala 5 1.2 1 first 5 1 77 6 7.98 0.0999982357025146 -1 1 1 0 -0.01944896 -0.0201672 -0.02007817 1000 1000 1000 -0.01944896 -0.0201672 -0.02007817 1000 1000 1000 -0.02096633 -0.02038931 -0.02039536 -0.02070109 -0.02064076 1000 -0.02096633 -0.02038931 -0.02039536 -0.02070109 -0.02064076 1000
lala 5 1.2 0 first 12 1 78 4 1.32 0.919997453689575 0 0 -1 0 -0.01956333 -0.01932452 -0.01930405 1000 1000 1000 -0.01956333 -0.01932452 -0.01930405 1000 1000 1000 -0.01989738 -0.02025045 -0.02053085 -0.02010426 -0.01993914 1000 -0.01989738 -0.02025045 -0.02053085 -0.02010426 -0.01993914 1000
lala 6 1.2 1 first 10 1 79 6 5.16 0.259998083114624 1 0 1 0 -0.01973626 -0.0198025 -0.01947563 1000 1000 1000 -0.01973626 -0.0198025 -0.01947563 1000 1000 1000 -0.0207564 -0.02070248 -0.0206298 -0.02043663 -0.02053702 1000 -0.0207564 -0.02070248 -0.0206298 -0.02043663 -0.02053702 1000
lala 3 1.2 1 second 3 1 80 5 6.65 0.23999810218811 -1 1 1 0 -0.02088051 -0.02082988 -0.02072603 -0.02045722 -0.02031382 1000 -0.02088051 -0.02082988 -0.02072603 -0.02045722 -0.02031382 1000 -0.02080165 -0.0205391 -0.02052415 -0.0207211 -0.02102233 1000 -0.02080165 -0.0205391 -0.02052415 -0.0207211 -0.02102233 1000
lala 2 1.2 0 second 7 1 81 4 4.12 0.359997987747192 1 1 -1 1 -0.02191031 -0.02191423 -0.02200634 -0.02183997 -0.02171333 1000 -0.02191031 -0.02191423 -0.02200634 -0.02183997 -0.02171333 1000 -0.02221411 -0.02194864 -0.02174455 -0.02172785 -0.02196894 1000 -0.02221411 -0.02194864 -0.02174455 -0.02172785 -0.02196894 1000
lala 4 1.2 1 second 11 1 82 6 9.18 0.01999831199646 1 1 1 1 -0.02275379 -0.0230512 -0.02295894 -0.02282793 -0.02263176 1000 -0.02275379 -0.0230512 -0.02295894 -0.02282793 -0.02263176 1000 -0.02302114 -0.02305083 -0.0230281 -0.02305204 -0.02342514 1000 -0.02302114 -0.02305083 -0.0230281 -0.02305204 -0.02342514 1000
lala 3 1.2 0 first 16 1 83 6 3.96 0.439997911453247 0 0 -1 0 -0.02502014 -0.0249933 -0.02486296 1000 1000 1000 -0.02502014 -0.0249933 -0.02486296 1000 1000 1000 -0.02145166 -0.0216724 -0.02137455 -0.02138295 -0.02149944 1000 -0.02145166 -0.0216724 -0.02137455 -0.02138295 -0.02149944 1000
lala 6 1.2 1 first 12 1 84 4 2.52 0.199998140335083 0 0 1 0 -0.0230718 -0.02345763 -0.02359749 1000 1000 1000 -0.0230718 -0.02345763 -0.02359749 1000 1000 1000 -0.02320025 -0.02299045 -0.02286458 -0.02295654 -0.02272681 1000 -0.02320025 -0.02299045 -0.02286458 -0.02295654 -0.02272681 1000
lala 6 1.2 0 first 5 1 85 6 6.780001 0.799997568130493 -1 1 -1 1 -0.0230344 -0.02309686 -0.02301436 1000 1000 1000 -0.0230344 -0.02309686 -0.02301436 1000 1000 1000 -0.02409017 -0.0238513 -0.0239226 -0.02400107 -0.02396251 1000 -0.02409017 -0.0238513 -0.0239226 -0.02400107 -0.02396251 1000
lala 3 1.2 0 first 7 1 86 4 5.32 0.279998064041138 1 1 -1 0 -0.0235371 -0.0236092 -0.0235702 1000 1000 1000 -0.0235371 -0.0236092 -0.0235702 1000 1000 1000 -0.02433895 -0.02425094 -0.02471105 -0.02477343 -0.02449007 1000 -0.02433895 -0.02425094 -0.02471105 -0.02477343 -0.02449007 1000
lala 4 1.2 1 second 16 1 87 6 5.16 0.0599982738494873 0 0 1 1 -0.02377515 -0.02206692 -0.02024644 -0.01920041 -0.01875109 1000 -0.02377515 -0.02206692 -0.02024644 -0.01920041 -0.01875109 1000 -0.01983022 -0.02002419 -0.02066023 -0.02080528 -0.0209065 1000 -0.01983022 -0.02002419 -0.02066023 -0.02080528 -0.0209065 1000
lala 4 1.2 1 second 15 1 88 5 5.450001 0.139998197555542 0 1 1 1 -0.01967269 -0.01716918 -0.017061 -0.01753557 -0.01774612 1000 -0.01967269 -0.01716918 -0.017061 -0.01753557 -0.01774612 1000 -0.01715122 -0.0167784 -0.01690526 -0.01715927 -0.01718887 1000 -0.01715122 -0.0167784 -0.01690526 -0.01715927 -0.01718887 1000
lala 6 1.2 0 second 0 1 89 4 3.84 0.01999831199646 -1 0 -1 1 -0.01945553 -0.0195491 -0.01984082 -0.01993098 -0.01994894 1000 -0.01945553 -0.0195491 -0.01984082 -0.01993098 -0.01994894 1000 -0.0200866 -0.020525 -0.02093936 -0.02076728 -0.0206743 1000 -0.0200866 -0.020525 -0.02093936 -0.02076728 -0.0206743 1000
lala 5 1.2 1 second 9 1 90 5 6.650001 0.01999831199646 1 1 1 1 -0.02102888 -0.02085358 -0.02065398 -0.02038378 -0.02042837 1000 -0.02102888 -0.02085358 -0.02065398 -0.02038378 -0.02042837 1000 -0.02174573 -0.02169169 -0.02137549 -0.0216167 -0.02201022 1000 -0.02174573 -0.02169169 -0.02137549 -0.0216167 -0.02201022 1000
lala 7 1.2 0 second 12 1 91 4 1.32 0.479997873306274 0 0 -1 1 -0.02094583 -0.02074399 -0.02085875 -0.02119428 -0.02135481 1000 -0.02094583 -0.02074399 -0.02085875 -0.02119428 -0.02135481 1000 -0.02094206 -0.02095848 -0.0210193 -0.02116557 -0.02096757 1000 -0.02094206 -0.02095848 -0.0210193 -0.02116557 -0.02096757 1000
lala 5 1.2 1 second 15 1 92 5 4.250001 0.01999831199646 0 1 1 0 -0.0251874 -0.02432714 -0.02405641 -0.02395162 -0.02361295 1000 -0.0251874 -0.02432714 -0.02405641 -0.02395162 -0.02361295 1000 -0.023187 -0.02319687 -0.02266291 -0.02261635 -0.02304764 1000 -0.023187 -0.02319687 -0.02266291 -0.02261635 -0.02304764 1000
lala 4 1.2 1 second 7 1 93 4 6.52 0.159998178482056 1 1 1 1 -0.02340836 -0.0237248 -0.0235503 -0.0235113 -0.02352933 1000 -0.02340836 -0.0237248 -0.0235503 -0.0235113 -0.02352933 1000 -0.02334879 -0.02327528 -0.02333364 -0.0233047 -0.02343914 1000 -0.02334879 -0.02327528 -0.02333364 -0.0233047 -0.02343914 1000
lala 8 1.2 1 first 12 1 94 4 2.52 0.159998178482056 0 0 1 0 -0.0248465 -0.02512309 -0.02525531 1000 1000 1000 -0.0248465 -0.02512309 -0.02525531 1000 1000 1000 -0.02391919 -0.02359516 -0.02378873 -0.02408949 -0.02402516 1000 -0.02391919 -0.02359516 -0.02378873 -0.02408949 -0.02402516 1000
lala 7 1.2 0 second 17 1 95 6 3.180001 0.299998044967651 0 1 -1 1 -0.02537595 -0.02511185 -0.02490334 -0.02515089 -0.02556956 1000 -0.02537595 -0.02511185 -0.02490334 -0.02515089 -0.02556956 1000 -0.02614487 -0.02615725 -0.02595199 -0.02584702 -0.02615929 1000 -0.02614487 -0.02615725 -0.02595199 -0.02584702 -0.02615929 1000
lala 6 1.2 1 second 9 1 96 5 5.450001 0.259998083114624 1 1 1 0 -0.02531226 -0.02520759 -0.02526957 -0.02512865 -0.02511058 1000 -0.02531226 -0.02520759 -0.02526957 -0.02512865 -0.02511058 1000 -0.02606732 -0.02630978 -0.02629328 -0.02587976 -0.02605779 1000 -0.02606732 -0.02630978 -0.02629328 -0.02587976 -0.02605779 1000
lala 9 1.2 1 first 13 1 97 4 3.72 0.0999982357025146 0 1 1 1 -0.02338479 -0.01969603 -0.01758122 1000 1000 1000 -0.02338479 -0.01969603 -0.01758122 1000 1000 1000 -0.01713098 -0.01719069 -0.0174827 -0.01744527 -0.01785044 1000 -0.01713098 -0.01719069 -0.0174827 -0.01744527 -0.01785044 1000
lala 4 1.2 1 second 3 1 98 5 5.45 0.0599982738494873 -1 1 1 1 -0.01800249 -0.01802235 -0.0176991 -0.01751203 -0.01748267 1000 -0.01800249 -0.01802235 -0.0176991 -0.01751203 -0.01748267 1000 -0.01874675 -0.01870708 -0.01889287 -0.01918155 -0.01946499 1000 -0.01874675 -0.01870708 -0.01889287 -0.01918155 -0.01946499 1000
lala 6 1.2 1 second 15 1 99 5 3.050001 0.119998216629028 0 1 1 0 -0.01927776 -0.01908995 -0.01918639 -0.01943394 -0.01929038 1000 -0.01927776 -0.01908995 -0.01918639 -0.01943394 -0.01929038 1000 -0.0195877 -0.01962491 -0.01965976 -0.01972228 -0.01990223 1000 -0.0195877 -0.01962491 -0.01965976 -0.01972228 -0.01990223 1000
lala 7 1.2 0 first 8 1 100 5 3.3 0.219998121261597 1 0 -1 1 -0.02214974 -0.01870224 -0.01555594 -0.01333465 -0.01286046 -0.01307493 -0.02214974 -0.01870224 -0.01555594 -0.01333465 -0.01286046 -0.01307493 -0.01609551 -0.01594259 -0.01578289 -0.01585876 -0.01596171 1000 -0.01609551 -0.01594259 -0.01578289 -0.01585876 -0.01596171 1000
lala 4 1.2 0 first 2 1 101 5 4.5 0.319998025894165 -1 0 -1 1 -0.0178415 -0.01763728 -0.01740809 1000 1000 1000 -0.0178415 -0.01763728 -0.01740809 1000 1000 1000 -0.01780952 -0.01748317 -0.01707783 -0.01713457 -0.01725005 1000 -0.01780952 -0.01748317 -0.01707783 -0.01713457 -0.01725005 1000
lala 8 1.2 0 first 8 1 102 5 4.5 0.479997873306274 1 0 -1 1 -0.01826766 -0.01798061 -0.0180618 1000 1000 1000 -0.01826766 -0.01798061 -0.0180618 1000 1000 1000 -0.01899608 -0.01867992 -0.01844618 -0.01850215 -0.01862189 1000 -0.01899608 -0.01867992 -0.01844618 -0.01850215 -0.01862189 1000
lala 5 1.2 1 second 16 1 103 6 3.96 0.139998197555542 0 0 1 0 -0.01859772 -0.01849841 -0.01845359 -0.01816395 -0.01808781 1000 -0.01859772 -0.01849841 -0.01845359 -0.01816395 -0.01808781 1000 -0.01858791 -0.01886538 -0.01919206 -0.01875942 -0.01876454 1000 -0.01858791 -0.01886538 -0.01919206 -0.01875942 -0.01876454 1000
lala 6 1.2 0 second 1 1 104 4 6.52 0.259998083114624 -1 1 -1 0 -0.01667348 -0.01628167 -0.01616373 -0.01641409 -0.01654266 1000 -0.01667348 -0.01628167 -0.01616373 -0.01641409 -0.01654266 1000 -0.01702336 -0.01704963 -0.01775523 -0.01829325 -0.01793915 1000 -0.01702336 -0.01704963 -0.01775523 -0.01829325 -0.01793915 1000
lala 7 1.2 1 first 1 1 105 4 7.72 0.0599982738494873 -1 1 1 0 -0.01870983 -0.01897299 -0.01906582 1000 1000 1000 -0.01870983 -0.01897299 -0.01906582 1000 1000 1000 -0.01865556 -0.0183346 -0.01816749 -0.0183088 -0.01864788 1000 -0.01865556 -0.0183346 -0.01816749 -0.0183088 -0.01864788 1000
lala 6 1.2 1 second 4 1 106 6 5.16 0.179998159408569 -1 0 1 0 -0.01873569 -0.01858612 -0.01828977 -0.01776707 -0.01760895 1000 -0.01873569 -0.01858612 -0.01828977 -0.01776707 -0.01760895 1000 -0.01770577 -0.01759094 -0.01803494 -0.0185977 -0.01854399 1000 -0.01770577 -0.01759094 -0.01803494 -0.0185977 -0.01854399 1000
lala 8 1.2 1 second 1 1 107 4 6.52 0.419997930526733 -1 1 1 1 -0.0184827 -0.01835415 -0.01855033 -0.01921224 -0.01893611 1000 -0.0184827 -0.01835415 -0.01855033 -0.01921224 -0.01893611 1000 -0.01857308 -0.01799341 -0.01790163 -0.01807426 -0.01821963 1000 -0.01857308 -0.01799341 -0.01790163 -0.01807426 -0.01821963 1000
lala 7 1.2 0 first 15 1 108 5 1.850001 0.319998025894165 0 1 -1 0 -0.01942725 -0.01951152 -0.01947485 1000 1000 1000 -0.01942725 -0.01951152 -0.01947485 1000 1000 1000 -0.01990661 -0.01998129 -0.01988015 -0.01955525 -0.01962157 1000 -0.01990661 -0.01998129 -0.01988015 -0.01955525 -0.01962157 1000
lala 5 1.2 0 second 14 1 109 5 2.85 0.559997797012329 0 0 -1 0 -0.01966016 -0.01992685 -0.02027006 -0.02006277 -0.02039034 1000 -0.01966016 -0.01992685 -0.02027006 -0.02006277 -0.02039034 1000 -0.02165843 -0.02158012 -0.02213009 -0.0224087 -0.02250924 1000 -0.02165843 -0.02158012 -0.02213009 -0.0224087 -0.02250924 1000
lala 5 1.2 1 first 11 1 110 6 7.98 0.259998083114624 1 1 1 1 -0.02199481 -0.0219656 -0.0219989 1000 1000 1000 -0.02199481 -0.0219656 -0.0219989 1000 1000 1000 -0.02234417 -0.0223547 -0.02217826 -0.02225607 -0.02256733 1000 -0.02234417 -0.0223547 -0.02217826 -0.02225607 -0.02256733 1000
lala 5 1.2 0 first 3 1 111 5 4.25 0.23999810218811 -1 1 -1 0 -0.02426879 -0.02402657 -0.02399534 1000 1000 1000 -0.02426879 -0.02402657 -0.02399534 1000 1000 1000 -0.01986633 -0.02020681 -0.02021566 -0.02014739 -0.02024156 1000 -0.01986633 -0.02020681 -0.02021566 -0.02014739 -0.02024156 1000
lala 8 1.2 1 second 17 1 112 6 4.380001 1.19999718666077 0 1 1 1 -0.02186324 -0.02132843 -0.02066024 -0.02084326 -0.02105756 1000 -0.02186324 -0.02132843 -0.02066024 -0.02084326 -0.02105756 1000 -0.02075607 -0.0209162 -0.0209884 -0.02074961 -0.02073301 1000 -0.02075607 -0.0209162 -0.0209884 -0.02074961 -0.02073301 1000
lala 6 1.2 1 second 14 1 113 5 4.05 0.279998064041138 0 0 1 0 -0.02020796 -0.01996142 -0.01962226 -0.01926228 -0.01955772 1000 -0.02020796 -0.01996142 -0.01962226 -0.01926228 -0.01955772 1000 -0.01959091 -0.01937749 -0.01970095 -0.01992122 -0.01982348 1000 -0.01959091 -0.01937749 -0.01970095 -0.01992122 -0.01982348 1000
lala 6 1.2 0 second 16 1 114 6 2.76 0.659997701644897 0 0 -1 0 -0.01986205 -0.01984141 -0.01965455 -0.01922817 -0.01944396 1000 -0.01986205 -0.01984141 -0.01965455 -0.01922817 -0.01944396 1000 -0.01909709 -0.01927137 -0.01974732 -0.01962642 -0.01970351 1000 -0.01909709 -0.01927137 -0.01974732 -0.01962642 -0.01970351 1000
lala 9 1.2 1 first 12 1 115 4 1.32 0.819997549057007 0 0 1 0 -0.02126666 -0.02111994 -0.02080646 1000 1000 1000 -0.02126666 -0.02111994 -0.02080646 1000 1000 1000 -0.01970177 -0.01970669 -0.01986299 -0.01988748 -0.01964414 1000 -0.01970177 -0.01970669 -0.01986299 -0.01988748 -0.01964414 1000
lala 7 1.2 0 first 6 1 116 4 2.64 0.479997873306274 1 0 -1 0 -0.02354445 -0.02349832 -0.02316997 1000 1000 1000 -0.02354445 -0.02349832 -0.02316997 1000 1000 1000 -0.02143583 -0.02179453 -0.02206842 -0.02175041 -0.02144735 1000 -0.02143583 -0.02179453 -0.02206842 -0.02175041 -0.02144735 1000
lala 7 1.2 0 second 0 1 117 4 5.04 0.419997930526733 -1 0 -1 1 -0.02385725 -0.02397525 -0.02402668 -0.02380514 -0.02330305 1000 -0.02385725 -0.02397525 -0.02402668 -0.02380514 -0.02330305 1000 -0.02292164 -0.02268178 -0.02278898 -0.02301803 -0.02311773 1000 -0.02292164 -0.02268178 -0.02278898 -0.02301803 -0.02311773 1000
lala 6 1.2 1 first 11 1 118 6 6.780001 0.39999794960022 1 1 1 1 -0.02379796 -0.0243021 -0.02422199 1000 1000 1000 -0.02379796 -0.0243021 -0.02422199 1000 1000 1000 -0.02316499 -0.02303868 -0.02310779 -0.02311286 -0.02292611 1000 -0.02316499 -0.02303868 -0.02310779 -0.02311286 -0.02292611 1000
lala 7 1.2 0 first 4 1 119 6 3.96 0.179998159408569 -1 0 -1 1 -0.02374874 -0.02351275 -0.02364127 1000 1000 1000 -0.02374874 -0.02351275 -0.02364127 1000 1000 1000 -0.0242461 -0.02427753 -0.02377355 -0.02390844 -0.02424764 1000 -0.0242461 -0.02427753 -0.02377355 -0.02390844 -0.02424764 1000
lala 7 1.2 0 first 10 1 120 6 3.96 0.319998025894165 1 0 -1 0 -0.02330501 -0.0232304 -0.02357062 1000 1000 1000 -0.02330501 -0.0232304 -0.02357062 1000 1000 1000 -0.02502242 -0.0248664 -0.02455547 -0.02497939 -0.02533434 1000 -0.02502242 -0.0248664 -0.02455547 -0.02497939 -0.02533434 1000
lala 10 0.6 0 second 13 1 121 4 3.12 0.259998083114624 0 1 -1 0 -0.0238423 -0.02370554 -0.02324976 -0.0226042 -0.02085273 1000 -0.0238423 -0.02370554 -0.02324976 -0.0226042 -0.02085273 1000 -0.01988322 -0.0202414 -0.02082076 -0.02097778 -0.02099619 1000 -0.01988322 -0.0202414 -0.02082076 -0.02097778 -0.02099619 1000
lala 5 1.2 1 second 2 1 122 5 5.7 0.0999982357025146 -1 0 1 1 -0.02089938 -0.02074989 -0.02012951 -0.02006521 -0.02042323 1000 -0.02089938 -0.02074989 -0.02012951 -0.02006521 -0.02042323 1000 -0.02123746 -0.02183597 -0.02176858 -0.02135798 -0.02113896 1000 -0.02123746 -0.02183597 -0.02176858 -0.02135798 -0.02113896 1000
lala 8 1.2 1 second 10 1 123 6 5.16 0.0999982357025146 1 0 1 1 -0.02060444 -0.02066 -0.02034678 -0.01999642 -0.02012306 1000 -0.02060444 -0.02066 -0.02034678 -0.01999642 -0.02012306 1000 -0.0187385 -0.01906973 -0.01932498 -0.01924872 -0.01929927 1000 -0.0187385 -0.01906973 -0.01932498 -0.01924872 -0.01929927 1000
lala 6 1.2 1 second 2 1 124 5 4.5 0.199998140335083 -1 0 1 1 -0.02041989 -0.02038008 -0.02053249 -0.02007376 -0.02010067 1000 -0.02041989 -0.02038008 -0.02053249 -0.02007376 -0.02010067 1000 -0.01904222 -0.01913752 -0.01945774 -0.0192665 -0.01944173 1000 -0.01904222 -0.01913752 -0.01945774 -0.0192665 -0.01944173 1000
lala 9 1.2 0 first 8 1 125 5 5.7 0.839997529983521 1 0 -1 1 -0.0208195 -0.02101369 -0.02092421 1000 1000 1000 -0.0208195 -0.02101369 -0.02092421 1000 1000 1000 -0.02077598 -0.0206307 -0.02026531 -0.02015691 -0.02025477 1000 -0.02077598 -0.0206307 -0.02026531 -0.02015691 -0.02025477 1000
lala 6 1.2 0 first 3 1 126 5 5.45 0.0999982357025146 -1 1 -1 0 -0.02100959 -0.02168929 -0.02140143 1000 1000 1000 -0.02100959 -0.02168929 -0.02140143 1000 1000 1000 -0.02019538 -0.02038651 -0.02016034 -0.01997097 -0.01993348 1000 -0.02019538 -0.02038651 -0.02016034 -0.01997097 -0.01993348 1000
lala 7 1.2 0 second 2 1 127 5 3.3 0.219998121261597 -1 0 -1 1 -0.02043184 -0.02045108 -0.02069833 -0.02049572 -0.02060483 1000 -0.02043184 -0.02045108 -0.02069833 -0.02049572 -0.02060483 1000 -0.02173885 -0.02206527 -0.02176087 -0.02160673 -0.021503 1000 -0.02173885 -0.02206527 -0.02176087 -0.02160673 -0.021503 1000
lala 7 1.2 0 first 16 1 128 6 3.96 0.299998044967651 0 0 -1 0 -0.0209445 -0.02102907 -0.02088844 1000 1000 1000 -0.0209445 -0.02102907 -0.02088844 1000 1000 1000 -0.02252612 -0.02246415 -0.02243414 -0.022338 -0.02246964 1000 -0.02252612 -0.02246415 -0.02243414 -0.022338 -0.02246964 1000
lala 7 1.2 0 second 9 1 129 5 4.250001 0.739997625350952 1 1 -1 1 -0.02290981 -0.02306555 -0.02274762 -0.02282746 -0.02297889 1000 -0.02290981 -0.02306555 -0.02274762 -0.02282746 -0.02297889 1000 -0.02352907 -0.02320897 -0.02326602 -0.02352965 -0.02324343 1000 -0.02352907 -0.02320897 -0.02326602 -0.02352965 -0.02324343 1000
lala 8 1.2 1 second 16 1 130 6 5.16 0.259998083114624 0 0 1 0 -0.0232718 -0.02262293 -0.02257038 -0.02290319 -0.02302603 1000 -0.0232718 -0.02262293 -0.02257038 -0.02290319 -0.02302603 1000 -0.0235365 -0.02378384 -0.02358701 -0.02366768 -0.02373898 1000 -0.0235365 -0.02378384 -0.02358701 -0.02366768 -0.02373898 1000
lala 10 2.4 1 second 8 1 131 5 8.1 0.139998197555542 1 0 1 0 -0.0220273 -0.02163559 -0.02183274 -0.02163319 -0.0213579 1000 -0.0220273 -0.02163559 -0.02183274 -0.02163319 -0.0213579 1000 -0.02262277 -0.02282542 -0.02456166 -0.02583752 -0.02668326 1000 -0.02262277 -0.02282542 -0.02456166 -0.02583752 -0.02668326 1000
lala 8 1.2 0 second 4 1 132 6 5.16 0.01999831199646 -1 0 -1 1 -0.02286445 -0.02253508 -0.02225421 -0.02208791 -0.02180396 1000 -0.02286445 -0.02253508 -0.02225421 -0.02208791 -0.02180396 1000 -0.02333919 -0.02326893 -0.02375534 -0.02372357 -0.02376958 1000 -0.02333919 -0.02326893 -0.02375534 -0.02372357 -0.02376958 1000
lala 8 1.2 0 first 6 1 133 4 3.84 0.159998178482056 1 0 -1 0 -0.02427554 -0.02458139 -0.02448534 1000 1000 1000 -0.02427554 -0.02458139 -0.02448534 1000 1000 1000 -0.02220755 -0.02255395 -0.02317837 -0.02323552 -0.02318376 1000 -0.02220755 -0.02255395 -0.02317837 -0.02323552 -0.02318376 1000
lala 9 1.2 0 second 16 1 134 6 3.96 0.39999794960022 0 0 -1 0 -0.02263089 -0.02217762 -0.02157403 -0.02182812 -0.02224551 1000 -0.02263089 -0.02217762 -0.02157403 -0.02182812 -0.02224551 1000 -0.02272752 -0.02271565 -0.02268599 -0.02271724 -0.02304491 1000 -0.02272752 -0.02271565 -0.02268599 -0.02271724 -0.02304491 1000
lala 8 1.2 0 second 2 1 135 5 4.5 0.339998006820679 -1 0 -1 0 -0.0232847 -0.02213306 -0.02002317 -0.01859879 -0.01817836 1000 -0.0232847 -0.02213306 -0.02002317 -0.01859879 -0.01817836 1000 -0.02003682 -0.02035695 -0.02044647 -0.02054633 -0.02108298 1000 -0.02003682 -0.02035695 -0.02044647 -0.02054633 -0.02108298 1000
lala 10 1.2 0 first 12 1 136 4 1.32 0.379997968673706 0 0 -1 0 -0.02294216 -0.02246508 -0.02165826 1000 1000 1000 -0.02294216 -0.02246508 -0.02165826 1000 1000 1000 -0.02110857 -0.02179597 -0.02158043 -0.02149101 -0.02145733 1000 -0.02110857 -0.02179597 -0.02158043 -0.02149101 -0.02145733 1000
lala 9 1.2 1 second 4 1 137 6 6.36 0.01999831199646 -1 0 1 1 -0.01963704 -0.01996392 -0.02003073 -0.01968278 -0.01935283 1000 -0.01963704 -0.01996392 -0.02003073 -0.01968278 -0.01935283 1000 -0.02024324 -0.02004655 -0.02000716 -0.02016286 -0.01994494 1000 -0.02024324 -0.02004655 -0.02000716 -0.02016286 -0.01994494 1000
lala 8 1.2 1 second 0 1 138 4 6.24 0.199998140335083 -1 0 1 1 -0.01923032 -0.01932825 -0.0195442 -0.01927885 -0.01896964 1000 -0.01923032 -0.01932825 -0.0195442 -0.01927885 -0.01896964 1000 -0.01969816 -0.0196924 -0.01973727 -0.02005663 -0.02016127 1000 -0.01969816 -0.0196924 -0.01973727 -0.02005663 -0.02016127 1000
lala 9 1.2 0 second 2 1 139 5 5.7 0.419997930526733 -1 0 -1 0 -0.02169245 -0.02181502 -0.02171201 -0.02124323 -0.02088257 1000 -0.02169245 -0.02181502 -0.02171201 -0.02124323 -0.02088257 1000 -0.02024039 -0.02030297 -0.02049336 -0.02071629 -0.02085559 1000 -0.02024039 -0.02030297 -0.02049336 -0.02071629 -0.02085559 1000
lala 9 1.2 1 second 1 1 140 4 5.320001 0.119998216629028 -1 1 1 1 -0.02273043 -0.02280154 -0.0226868 -0.02285573 -0.02280301 1000 -0.02273043 -0.02280154 -0.0226868 -0.02285573 -0.02280301 1000 -0.02176509 -0.02132594 -0.02143147 -0.02176087 -0.02148038 1000 -0.02176509 -0.02132594 -0.02143147 -0.02176087 -0.02148038 1000
lala 9 1.2 0 first 6 1 141 4 5.04 0.559997797012329 1 0 -1 1 -0.02161149 -0.02225863 -0.02269486 1000 1000 1000 -0.02161149 -0.02225863 -0.02269486 1000 1000 1000 -0.02307573 -0.02301356 -0.02272847 -0.02235277 -0.02229935 1000 -0.02307573 -0.02301356 -0.02272847 -0.02235277 -0.02229935 1000
lala 7 1.2 0 first 11 1 142 6 5.580001 0.379997968673706 1 1 -1 1 -0.0229266 -0.02325351 -0.02327972 1000 1000 1000 -0.0229266 -0.02325351 -0.02327972 1000 1000 1000 -0.02310358 -0.02287971 -0.02317654 -0.02335333 -0.02325441 1000 -0.02310358 -0.02287971 -0.02317654 -0.02335333 -0.02325441 1000
lala 8 1.2 1 second 9 1 143 5 5.450001 0.319998025894165 1 1 1 1 -0.02379842 -0.02358104 -0.02333415 -0.02333826 -0.0235051 1000 -0.02379842 -0.02358104 -0.02333415 -0.02333826 -0.0235051 1000 -0.02403837 -0.02439568 -0.0240863 -0.02400221 -0.02432306 1000 -0.02403837 -0.02439568 -0.0240863 -0.02400221 -0.02432306 1000
lala 9 1.2 1 first 9 1 144 5 4.250001 0.719997644424438 1 1 1 0 -0.02344341 -0.02368144 -0.02350828 1000 1000 1000 -0.02344341 -0.02368144 -0.02350828 1000 1000 1000 -0.02484749 -0.02530244 -0.0253858 -0.02516221 -0.02500738 1000 -0.02484749 -0.02530244 -0.0253858 -0.02516221 -0.02500738 1000
lala 10 2.4 0 second 1 1 145 4 2.920001 0.01999831199646 -1 1 -1 1 -0.01059128 -0.007820331 -0.006442663 -0.005538628 -0.005202618 1000 -0.01059128 -0.007820331 -0.006442663 -0.005538628 -0.005202618 1000 -0.006017099 -0.006883274 -0.006697612 -0.006930963 -0.00735976 1000 -0.006017099 -0.006883274 -0.006697612 -0.006930963 -0.00735976 1000
lala 9 1.2 0 second 17 1 146 6 3.180001 0.279998064041138 0 1 -1 1 -0.007321814 -0.006999504 -0.006703513 -0.006659015 -0.006645167 1000 -0.007321814 -0.006999504 -0.006703513 -0.006659015 -0.006645167 1000 -0.007657608 -0.007835231 -0.008079819 -0.008379553 -0.008147337 1000 -0.007657608 -0.007835231 -0.008079819 -0.008379553 -0.008147337 1000
lala 11 0.6 1 second 12 1 147 4 1.92 0.539997816085815 0 0 1 1 -0.008774356 -0.008406544 -0.008159291 -0.008290523 -0.008249285 1000 -0.008774356 -0.008406544 -0.008159291 -0.008290523 -0.008249285 1000 -0.007866639 -0.007991411 -0.008039933 -0.007823175 -0.008063353 1000 -0.007866639 -0.007991411 -0.008039933 -0.007823175 -0.008063353 1000
lala 8 1.2 1 second 15 1 148 5 3.050001 0.079998254776001 0 1 1 0 -0.008125668 -0.008005676 -0.007542311 -0.007917205 -0.008467444 1000 -0.008125668 -0.008005676 -0.007542311 -0.007917205 -0.008467444 1000 -0.007788092 -0.00843116 -0.008516704 -0.00845456 -0.008492594 1000 -0.007788092 -0.00843116 -0.008516704 -0.00845456 -0.008492594 1000
lala 5 1.2 1 second 7 1 149 4 5.32 0.0999982357025146 1 1 1 0 -0.009254691 -0.009103621 -0.008542699 -0.008419723 -0.008611068 1000 -0.009254691 -0.009103621 -0.008542699 -0.008419723 -0.008611068 1000 -0.009145807 -0.00880004 -0.008355498 -0.008627703 -0.009092552 1000 -0.009145807 -0.00880004 -0.008355498 -0.008627703 -0.009092552 1000
lala 10 0.6 1 first 4 1 150 6 5.76 0.379997968673706 -1 0 1 0 -0.01224216 -0.0124528 -0.01323925 -0.01375404 -0.01402699 -0.01379599 -0.01224216 -0.0124528 -0.01323925 -0.01375404 -0.01402699 -0.01379599 -0.01211127 -0.01201073 -0.01189878 -0.0119048 -0.01180639 1000 -0.01211127 -0.01201073 -0.01189878 -0.0119048 -0.01180639 1000
lala 10 2.4 1 first 6 1 151 4 7.44 0.0999982357025146 1 0 1 1 -0.01120693 -0.01108744 -0.01114647 1000 1000 1000 -0.01120693 -0.01108744 -0.01114647 1000 1000 1000 -0.01045873 -0.01004777 -0.009241053 -0.009188037 -0.009441171 1000 -0.01045873 -0.01004777 -0.009241053 -0.009188037 -0.009441171 1000
lala 9 1.2 0 second 10 1 152 6 3.96 0.219998121261597 1 0 -1 0 -0.009472374 -0.009119036 -0.008690214 -0.008654876 -0.008876694 1000 -0.009472374 -0.009119036 -0.008690214 -0.008654876 -0.008876694 1000 -0.009509198 -0.009676283 -0.009988652 -0.009503189 -0.009288094 1000 -0.009509198 -0.009676283 -0.009988652 -0.009503189 -0.009288094 1000
lala 7 1.2 1 second 14 1 153 5 2.85 0.259998083114624 0 0 1 0 -0.008775128 -0.008560193 -0.008473601 -0.008577261 -0.008715391 1000 -0.008775128 -0.008560193 -0.008473601 -0.008577261 -0.008715391 1000 -0.008631174 -0.008644349 -0.008738486 -0.008418869 -0.008454659 1000 -0.008631174 -0.008644349 -0.008738486 -0.008418869 -0.008454659 1000
lala 11 1.2 0 second 8 1 154 5 6.900001 0.699997663497925 1 0 -1 1 -0.006801747 -0.006758268 -0.00674636 -0.006685896 -0.006626939 1000 -0.006801747 -0.006758268 -0.00674636 -0.006685896 -0.006626939 1000 -0.007799632 -0.008013735 -0.008076404 -0.007651361 -0.007808978 1000 -0.007799632 -0.008013735 -0.008076404 -0.007651361 -0.007808978 1000
lala 10 0.6 1 second 10 1 155 6 4.56 0.219998121261597 1 0 1 1 -0.008708888 -0.008349766 -0.008259027 -0.008540953 -0.008824689 1000 -0.008708888 -0.008349766 -0.008259027 -0.008540953 -0.008824689 1000 -0.007805259 -0.008076411 -0.008643177 -0.008733855 -0.00866665 1000 -0.007805259 -0.008076411 -0.008643177 -0.008733855 -0.00866665 1000
lala 10 2.4 1 first 2 1 156 5 8.1 0.139998197555542 -1 0 1 0 -0.008694236 -0.009091307 -0.008878478 1000 1000 1000 -0.008694236 -0.009091307 -0.008878478 1000 1000 1000 -0.006692176 -0.006816329 -0.007224196 -0.007267556 -0.007191251 1000 -0.006692176 -0.006816329 -0.007224196 -0.007267556 -0.007191251 1000
lala 8 1.2 0 second 14 1 157 5 1.65 0.319998025894165 0 0 -1 1 -0.009395214 -0.009050527 -0.008716481 -0.008943645 -0.008546398 1000 -0.009395214 -0.009050527 -0.008716481 -0.008943645 -0.008546398 1000 -0.008080555 -0.007752557 -0.00770039 -0.007895065 -0.007531626 1000 -0.008080555 -0.007752557 -0.00770039 -0.007895065 -0.007531626 1000
lala 8 1.2 1 first 11 1 158 6 6.780001 0.159998178482056 1 1 1 0 -0.008092362 -0.008974114 -0.01094522 1000 1000 1000 -0.008092362 -0.008974114 -0.01094522 1000 1000 1000 -0.03003473 -0.02929706 -0.02819758 -0.02424282 -0.01897098 1000 -0.03003473 -0.02929706 -0.02819758 -0.02424282 -0.01897098 1000
lala 7 1.2 1 second 5 1 159 6 7.98 0.299998044967651 -1 1 1 1 -0.002317725 -0.002445277 -0.0002776585 0.0008403821 -0.005130632 1000 -0.002317725 -0.002445277 -0.0002776585 0.0008403821 -0.005130632 1000 -0.02261287 -0.02392467 -0.02403638 -0.02633384 -0.0306137 1000 -0.02261287 -0.02392467 -0.02403638 -0.02633384 -0.0306137 1000
lala 11 0.6 0 first 4 1 160 6 5.16 0.319998025894165 -1 0 -1 0 -0.01579205 -0.01387063 -0.01344405 1000 1000 1000 -0.01579205 -0.01387063 -0.01344405 1000 1000 1000 -0.01623669 -0.01678752 -0.01715683 -0.01748672 -0.01739908 1000 -0.01623669 -0.01678752 -0.01715683 -0.01748672 -0.01739908 1000
lala 12 0.3 0 second 12 1 161 4 1.62 0.299998044967651 0 0 -1 1 -0.01676603 -0.01640357 -0.01618916 -0.01670584 -0.01767288 1000 -0.01676603 -0.01640357 -0.01618916 -0.01670584 -0.01767288 1000 -0.02175091 -0.02109281 -0.02059875 -0.02024898 -0.02052666 1000 -0.02175091 -0.02109281 -0.02059875 -0.02024898 -0.02052666 1000
lala 13 0.15 1 second 12 1 162 4 1.77 0.479997873306274 0 0 1 1 -0.02113238 -0.02139945 -0.02102677 -0.02097754 -0.02117405 1000 -0.02113238 -0.02139945 -0.02102677 -0.02097754 -0.02117405 1000 -0.029235 -0.03636168 -0.0443378 -0.0514398 -0.05871766 1000 -0.029235 -0.03636168 -0.0443378 -0.0514398 -0.05871766 1000
lala 11 1.2 0 first 1 1 163 4 4.120001 0.179998159408569 -1 1 -1 0 -0.02067811 -0.01589805 -0.015287 1000 1000 1000 -0.02067811 -0.01589805 -0.015287 1000 1000 1000 -0.01880565 -0.0185489 -0.01837794 -0.01824058 -0.01860717 1000 -0.01880565 -0.0185489 -0.01837794 -0.01824058 -0.01860717 1000
lala 12 0.6 1 second 8 1 164 5 7.5 0.01999831199646 1 0 1 1 -0.02018078 -0.02008181 -0.02005437 -0.02075046 -0.02134819 1000 -0.02018078 -0.02008181 -0.02005437 -0.02075046 -0.02134819 1000 -0.02405428 -0.02484743 -0.02513537 -0.02515691 -0.0248492 1000 -0.02405428 -0.02484743 -0.02513537 -0.02515691 -0.0248492 1000
lala 8 1.2 1 first 5 1 165 6 6.780001 2.13999652862549 -1 1 1 1 -0.0249376 -0.02545893 -0.02542863 1000 1000 1000 -0.0249376 -0.02545893 -0.02542863 1000 1000 1000 -0.02829158 -0.02840994 -0.02834906 -0.02894357 -0.02904917 1000 -0.02829158 -0.02840994 -0.02834906 -0.02894357 -0.02904917 1000
lala 12 0.3 1 first 4 1 166 6 5.46 0.899997472763062 -1 0 1 0 -0.02187215 -0.01656878 -0.01298654 1000 1000 1000 -0.02187215 -0.01656878 -0.01298654 1000 1000 1000 -0.01388045 -0.013874 -0.01385417 -0.01375074 -0.01357142 1000 -0.01388045 -0.013874 -0.01385417 -0.01375074 -0.01357142 1000
lala 7 1.2 0 first 3 1 167 5 6.65 0.479997873306274 -1 1 -1 1 -0.01515175 -0.01482075 -0.01460463 1000 1000 1000 -0.01515175 -0.01482075 -0.01460463 1000 1000 1000 -0.01450747 -0.01501466 -0.01475575 -0.01458206 -0.01471953 1000 -0.01450747 -0.01501466 -0.01475575 -0.01458206 -0.01471953 1000
lala 13 0.15 1 first 4 1 168 6 5.31 0.739997625350952 -1 0 1 0 -0.01688604 -0.01676417 -0.0165847 1000 1000 1000 -0.01688604 -0.01676417 -0.0165847 1000 1000 1000 -0.01624508 -0.01606183 -0.01585193 -0.01578543 -0.01592976 1000 -0.01624508 -0.01606183 -0.01585193 -0.01578543 -0.01592976 1000
lala 14 0.075 0 second 12 1 169 4 1.695 0.339998006820679 0 0 -1 0 -0.0186988 -0.01872825 -0.01855195 -0.01818229 -0.01852208 1000 -0.0186988 -0.01872825 -0.01855195 -0.01818229 -0.01852208 1000 -0.01872534 -0.01865326 -0.01889149 -0.01936619 -0.01951984 1000 -0.01872534 -0.01865326 -0.01889149 -0.01936619 -0.01951984 1000
lala 9 1.2 0 second 5 1 170 6 5.580001 0.919997453689575 -1 1 -1 1 -0.01964261 -0.01985888 -0.01967221 -0.01951207 -0.01973767 1000 -0.01964261 -0.01985888 -0.01967221 -0.01951207 -0.01973767 1000 -0.01866875 -0.01917366 -0.01976937 -0.01986626 -0.02030842 1000 -0.01866875 -0.01917366 -0.01976937 -0.01986626 -0.02030842 1000
lala 10 0.6 0 second 5 1 171 6 6.180001 0.01999831199646 -1 1 -1 1 -0.02192272 -0.02203309 -0.02198005 -0.02170298 -0.02205306 1000 -0.02192272 -0.02203309 -0.02198005 -0.02170298 -0.02205306 1000 -0.02272578 -0.0234223 -0.02333261 -0.02323243 -0.02278015 1000 -0.02272578 -0.0234223 -0.02333261 -0.02323243 -0.02278015 1000
lala 14 0.15 0 second 4 1 172 6 5.16 0.01999831199646 -1 0 -1 0 -0.02342537 -0.02336616 -0.02314473 -0.02254056 -0.02258496 1000 -0.02342537 -0.02336616 -0.02314473 -0.02254056 -0.02258496 1000 -0.02309601 -0.02350691 -0.02365432 -0.02338598 -0.02346084 1000 -0.02309601 -0.02350691 -0.02365432 -0.02338598 -0.02346084 1000
lala 11 0.3 1 first 10 1 173 6 4.26 0.259998083114624 1 0 1 0 -0.02352412 -0.02381721 -0.02381982 1000 1000 1000 -0.02352412 -0.02381721 -0.02381982 1000 1000 1000 -0.02350638 -0.02320051 -0.02326152 -0.02375656 -0.02370215 1000 -0.02350638 -0.02320051 -0.02326152 -0.02375656 -0.02370215 1000
lala 15 0.0375 0 second 12 1 174 4 1.7325 0.359997987747192 0 0 -1 0 -0.02470415 -0.02425052 -0.02421052 -0.02339184 -0.02278726 1000 -0.02470415 -0.02425052 -0.02421052 -0.02339184 -0.02278726 1000 -0.02195641 -0.02240768 -0.02244366 -0.02238628 -0.02243673 1000 -0.02195641 -0.02240768 -0.02244366 -0.02238628 -0.02243673 1000
lala 9 1.2 0 first 0 1 175 4 5.04 0.339998006820679 -1 0 -1 0 -0.02233688 -0.02164875 -0.02156364 1000 1000 1000 -0.02233688 -0.02164875 -0.02156364 1000 1000 1000 -0.02018509 -0.02016974 -0.02018141 -0.01982473 -0.01992025 1000 -0.02018509 -0.02016974 -0.02018141 -0.01982473 -0.01992025 1000
lala 11 0.3 1 first 13 1 176 4 3.42 0.439997911453247 0 1 1 0 -0.01958362 -0.01984567 -0.01956529 1000 1000 1000 -0.01958362 -0.01984567 -0.01956529 1000 1000 1000 -0.01995507 -0.02045673 -0.0204182 -0.02050827 -0.020432 1000 -0.01995507 -0.02045673 -0.0204182 -0.02050827 -0.020432 1000
lala 12 0.15 1 first 13 1 177 4 3.27 0.319998025894165 0 1 1 0 -0.01948001 -0.01942171 -0.01935747 1000 1000 1000 -0.01948001 -0.01942171 -0.01935747 1000 1000 1000 -0.0199833 -0.02000755 -0.02027391 -0.02081439 -0.0206465 1000 -0.0199833 -0.02000755 -0.02027391 -0.02081439 -0.0206465 1000
lala 10 1.2 0 first 9 1 178 5 3.050001 0.319998025894165 1 1 -1 0 -0.0207996 -0.02049867 -0.0206339 1000 1000 1000 -0.0207996 -0.02049867 -0.0206339 1000 1000 1000 -0.02033244 -0.02063536 -0.02071768 -0.0206219 -0.02066069 1000 -0.02033244 -0.02063536 -0.02071768 -0.0206219 -0.02066069 1000
lala 11 0.6 0 first 9 1 179 5 3.650001 0.219998121261597 1 1 -1 1 -0.02086611 -0.02097899 -0.02108341 1000 1000 1000 -0.02086611 -0.02097899 -0.02108341 1000 1000 1000 -0.02137082 -0.02137879 -0.02118447 -0.02120644 -0.02191501 1000 -0.02137082 -0.02137879 -0.02118447 -0.02120644 -0.02191501 1000
lala 10 0.6 1 first 16 1 180 6 4.56 0.319998025894165 0 0 1 1 -0.02214248 -0.02233107 -0.02280966 1000 1000 1000 -0.02214248 -0.02233107 -0.02280966 1000 1000 1000 -0.02146723 -0.02179562 -0.02198062 -0.02173346 -0.02204846 1000 -0.02146723 -0.02179562 -0.02198062 -0.02173346 -0.02204846 1000
lala 12 0.3 1 first 10 1 181 6 3.96 0.259998083114624 1 0 1 1 -0.02269446 -0.02248934 -0.02283061 1000 1000 1000 -0.02269446 -0.02248934 -0.02283061 1000 1000 1000 -0.02408514 -0.02396178 -0.02406617 -0.02408579 -0.02466878 1000 -0.02408514 -0.02396178 -0.02406617 -0.02408579 -0.02466878 1000
lala 13 0.3 1 second 10 1 182 6 3.66 0.679997682571411 1 0 1 1 -0.0212695 -0.02135367 -0.02100718 -0.02067916 -0.02093264 1000 -0.0212695 -0.02135367 -0.02100718 -0.02067916 -0.02093264 1000 -0.01594345 -0.01620111 -0.01672978 -0.01665135 -0.01674223 1000 -0.01594345 -0.01620111 -0.01672978 -0.01665135 -0.01674223 1000
lala 6 1.2 1 second 7 1 183 4 4.12 0.079998254776001 1 1 1 0 -0.01663772 -0.01697553 -0.01670045 -0.01634315 -0.01611321 1000 -0.01663772 -0.01697553 -0.01670045 -0.01634315 -0.01611321 1000 -0.01668036 -0.0166487 -0.01651676 -0.01660234 -0.01665554 1000 -0.01668036 -0.0166487 -0.01651676 -0.01660234 -0.01665554 1000
lala 11 0.3 1 first 16 1 184 6 4.26 0.159998178482056 0 0 1 1 -0.01764105 -0.01734171 -0.01689608 1000 1000 1000 -0.01764105 -0.01734171 -0.01689608 1000 1000 1000 -0.01656638 -0.01635794 -0.01616465 -0.01598735 -0.01623578 1000 -0.01656638 -0.01635794 -0.01616465 -0.01598735 -0.01623578 1000
lala 13 0.3 1 second 8 1 185 5 7.2 0.339998006820679 1 0 1 1 -0.01856638 -0.0184659 -0.01869751 -0.01889388 -0.01856701 1000 -0.01856638 -0.0184659 -0.01869751 -0.01889388 -0.01856701 1000 -0.01747258 -0.01740107 -0.01715424 -0.01716666 -0.01721014 1000 -0.01747258 -0.01740107 -0.01715424 -0.01716666 -0.01721014 1000
lala 14 0.3 1 second 8 1 186 5 6.9 0.139998197555542 1 0 1 0 -0.01835913 -0.01806905 -0.01788498 -0.01771352 -0.0178819 1000 -0.01835913 -0.01806905 -0.01788498 -0.01771352 -0.0178819 1000 -0.01754799 -0.0173576 -0.01722659 -0.01694084 -0.01711135 1000 -0.01754799 -0.0173576 -0.01722659 -0.01694084 -0.01711135 1000
lala 10 0.6 0 first 17 1 187 6 3.780001 0.0999982357025146 0 1 -1 1 -0.01740676 -0.0176627 -0.01781295 1000 1000 1000 -0.01740676 -0.0176627 -0.01781295 1000 1000 1000 -0.01959304 -0.0193732 -0.01933097 -0.01921583 -0.01902412 1000 -0.01959304 -0.0193732 -0.01933097 -0.01921583 -0.01902412 1000
lala 12 0.3 1 second 16 1 188 6 3.96 0.01999831199646 0 0 1 0 -0.01982715 -0.02035954 -0.02039464 -0.02031997 -0.02053678 1000 -0.01982715 -0.02035954 -0.02039464 -0.02031997 -0.02053678 1000 -0.02185241 -0.0219046 -0.02185222 -0.02206021 -0.02178829 1000 -0.02185241 -0.0219046 -0.02185222 -0.02206021 -0.02178829 1000
lala 9 1.2 1 first 14 1 189 5 2.85 0.139998197555542 0 0 1 0 -0.02167098 -0.02161548 -0.02131505 1000 1000 1000 -0.02167098 -0.02161548 -0.02131505 1000 1000 1000 -0.0216023 -0.02172773 -0.02169907 -0.02193391 -0.02201661 1000 -0.0216023 -0.02172773 -0.02169907 -0.02193391 -0.02201661 1000
lala 7 1.2 0 second 7 1 190 4 2.92 0.119998216629028 1 1 -1 0 -0.02130823 -0.02141875 -0.02156345 -0.02102478 -0.02048672 1000 -0.02130823 -0.02141875 -0.02156345 -0.02102478 -0.02048672 1000 -0.021549 -0.02173506 -0.02155268 -0.02182464 -0.02226941 1000 -0.021549 -0.02173506 -0.02155268 -0.02182464 -0.02226941 1000
lala 9 1.2 0 second 11 1 191 6 5.580001 0.179998159408569 1 1 -1 1 -0.02287453 -0.02281642 -0.0230778 -0.02297661 -0.02295143 1000 -0.02287453 -0.02281642 -0.0230778 -0.02297661 -0.02295143 1000 -0.02303665 -0.02308245 -0.02303628 -0.02303587 -0.02299554 1000 -0.02303665 -0.02308245 -0.02303628 -0.02303587 -0.02299554 1000
lala 14 0.6 0 second 10 1 192 6 3.06 1.41999697685242 1 0 -1 0 -0.02302701 -0.02305103 -0.0231275 -0.02302935 -0.02281211 1000 -0.02302701 -0.02305103 -0.0231275 -0.02302935 -0.02281211 1000 -0.02261465 -0.02251876 -0.02291593 -0.02300152 -0.02328485 1000 -0.02261465 -0.02251876 -0.02291593 -0.02300152 -0.02328485 1000
lala 9 1.2 1 second 15 1 193 5 1.850001 0.299998044967651 0 1 1 0 -0.02410493 -0.02395822 -0.02395492 -0.02426344 -0.02437262 1000 -0.02410493 -0.02395822 -0.02395492 -0.02426344 -0.02437262 1000 -0.02461877 -0.02512808 -0.02483376 -0.02465613 -0.02467615 1000 -0.02461877 -0.02512808 -0.02483376 -0.02465613 -0.02467615 1000
lala 11 1.2 0 first 6 1 194 4 6.24 0.939997434616089 1 0 -1 0 -0.02371965 -0.02245649 -0.02181141 1000 1000 1000 -0.02371965 -0.02245649 -0.02181141 1000 1000 1000 -0.02100743 -0.02052656 -0.02039407 -0.02019129 -0.02029152 1000 -0.02100743 -0.02052656 -0.02039407 -0.02019129 -0.02029152 1000
lala 8 1.2 0 first 7 1 195 4 4.12 0.0599982738494873 1 1 -1 1 -0.02127979 -0.02121242 -0.0209994 1000 1000 1000 -0.02127979 -0.02121242 -0.0209994 1000 1000 1000 -0.01936322 -0.01968537 -0.01942188 -0.01897054 -0.01880884 1000 -0.01936322 -0.01968537 -0.01942188 -0.01897054 -0.01880884 1000
lala 10 0.6 1 first 0 1 196 4 5.64 0.01999831199646 -1 0 1 1 -0.0196958 -0.02042614 -0.02053319 1000 1000 1000 -0.0196958 -0.02042614 -0.02053319 1000 1000 1000 -0.01957729 -0.0193263 -0.01962882 -0.01970293 -0.019393 1000 -0.01957729 -0.0193263 -0.01962882 -0.01970293 -0.019393 1000
lala 8 1.2 1 first 3 1 197 5 7.849999 0.419997930526733 -1 1 1 1 -0.0197691 -0.01968272 -0.0200958 1000 1000 1000 -0.0197691 -0.01968272 -0.0200958 1000 1000 1000 -0.02102737 -0.02094045 -0.02066678 -0.02071237 -0.02063291 1000 -0.02102737 -0.02094045 -0.02066678 -0.02071237 -0.02063291 1000
lala 15 0.3 1 first 8 1 198 5 6.6 0.23999810218811 1 0 1 0 -0.02091158 -0.02111481 -0.02141084 1000 1000 1000 -0.02091158 -0.02111481 -0.02141084 1000 1000 1000 -0.02223851 -0.02206623 -0.0221853 -0.02250477 -0.0224501 1000 -0.02223851 -0.02206623 -0.0221853 -0.02250477 -0.0224501 1000
lala 9 1.2 1 first 3 1 199 5 6.65 0.219998121261597 -1 1 1 1 -0.02092124 -0.02113979 -0.02144487 1000 1000 1000 -0.02092124 -0.02113979 -0.02144487 1000 1000 1000 -0.02142768 -0.02148826 -0.02113503 -0.02122009 -0.02173313 1000 -0.02142768 -0.02148826 -0.02113503 -0.02122009 -0.02173313 1000
lala 12 1.2 1 first 1 1 200 4 5.320001 1.17999720573425 -1 1 1 1 -0.02345029 -0.02345682 -0.02337033 -0.0230431 -0.02294 -0.02254462 -0.02345029 -0.02345682 -0.02337033 -0.0230431 -0.02294 -0.02254462 -0.02013224 -0.02286492 -0.02400355 -0.02232527 -0.02158178 1000 -0.02013224 -0.02286492 -0.02400355 -0.02232527 -0.02158178 1000
lala 12 0.6 1 first 6 1 201 4 6.84 0.459997892379761 1 0 1 1 0.007005566 0.01051315 0.008978752 1000 1000 1000 0.007005566 0.01051315 0.008978752 1000 1000 1000 -0.03971203 -0.03437583 -0.03142106 -0.03047244 -0.03114726 1000 -0.03971203 -0.03437583 -0.03142106 -0.03047244 -0.03114726 1000
lala 13 0.3 1 first 6 1 202 4 6.539999 0.219998121261597 1 0 1 0 -0.02363222 -0.02122971 -0.01927068 1000 1000 1000 -0.02363222 -0.02122971 -0.01927068 1000 1000 1000 -0.01352599 -0.01325392 -0.01303979 -0.01359946 -0.01366645 1000 -0.01352599 -0.01325392 -0.01303979 -0.01359946 -0.01366645 1000
lala 10 1.2 0 first 15 1 203 5 1.65 0.379997968673706 0 1 -1 0 -0.01825348 -0.01870365 -0.0184634 1000 1000 1000 -0.01825348 -0.01870365 -0.0184634 1000 1000 1000 -0.02108611 -0.02120085 -0.02165275 -0.02120273 -0.02082832 1000 -0.02108611 -0.02120085 -0.02165275 -0.02120273 -0.02082832 1000
lala 11 1.2 0 second 2 1 204 5 6.900001 1.05999732017517 -1 0 -1 0 -0.02003391 -0.01985497 -0.0203373 -0.02000034 -0.02008624 1000 -0.02003391 -0.01985497 -0.0203373 -0.02000034 -0.02008624 1000 -0.02124232 -0.02131962 -0.02126159 -0.02124927 -0.02168309 1000 -0.02124232 -0.02131962 -0.02126159 -0.02124927 -0.02168309 1000
lala 12 0.6 0 second 9 1 205 5 4.250001 0.339998006820679 1 1 -1 1 -0.02115836 -0.02003581 -0.01999334 -0.02096564 -0.02111017 1000 -0.02115836 -0.02003581 -0.01999334 -0.02096564 -0.02111017 1000 -0.02290181 -0.02337373 -0.02307396 -0.02326747 -0.02347808 1000 -0.02290181 -0.02337373 -0.02307396 -0.02326747 -0.02347808 1000
lala 13 0.15 1 first 13 1 206 4 3.12 0.599997758865356 0 1 1 1 -0.02449919 -0.02454454 -0.02467937 1000 1000 1000 -0.02449919 -0.02454454 -0.02467937 1000 1000 1000 -0.02650783 -0.0271536 -0.02731971 -0.0277804 -0.02796772 1000 -0.02650783 -0.0271536 -0.02731971 -0.0277804 -0.02796772 1000
lala 10 1.2 0 first 3 1 207 5 5.45 0.299998044967651 -1 1 -1 0 -0.0218076 -0.01770662 -0.0146679 1000 1000 1000 -0.0218076 -0.01770662 -0.0146679 1000 1000 1000 -0.01290909 -0.0129293 -0.01335634 -0.01306248 -0.01297166 1000 -0.01290909 -0.0129293 -0.01335634 -0.01306248 -0.01297166 1000
lala 14 0.15 1 second 13 1 208 4 2.97 1.07999730110168 0 1 1 1 -0.0107166 -0.01053263 -0.01022242 -0.01010511 -0.01048389 1000 -0.0107166 -0.01053263 -0.01022242 -0.01010511 -0.01048389 1000 -0.01395123 -0.0145927 -0.01515526 -0.01516572 -0.01501856 1000 -0.01395123 -0.0145927 -0.01515526 -0.01516572 -0.01501856 1000
lala 13 0.6 0 first 1 1 209 4 4.720001 0.499997854232788 -1 1 -1 1 -0.01204374 -0.01207093 -0.01159388 1000 1000 1000 -0.01204374 -0.01207093 -0.01159388 1000 1000 1000 -0.0127093 -0.01242533 -0.01214646 -0.01220797 -0.01228483 1000 -0.0127093 -0.01242533 -0.01214646 -0.01220797 -0.01228483 1000
lala 11 0.6 1 second 15 1 210 5 2.25 0.879997491836548 0 1 1 1 -0.01362911 -0.01264381 -0.01170722 -0.01154127 -0.01114971 1000 -0.01362911 -0.01264381 -0.01170722 -0.01154127 -0.01114971 1000 -0.009792889 -0.0097018 -0.00917368 -0.009262367 -0.0101491 1000 -0.009792889 -0.0097018 -0.00917368 -0.009262367 -0.0101491 1000
lala 10 0.6 0 second 11 1 211 6 6.180001 0.259998083114624 1 1 -1 1 -0.0123191 -0.01302602 -0.01288505 -0.01300741 -0.01332893 1000 -0.0123191 -0.01302602 -0.01288505 -0.01300741 -0.01332893 1000 -0.01343957 -0.01318337 -0.01323084 -0.01317897 -0.01330539 1000 -0.01343957 -0.01318337 -0.01323084 -0.01317897 -0.01330539 1000
lala 15 0.075 1 first 4 1 212 6 5.235 0.219998121261597 -1 0 1 0 -0.01394385 -0.0142397 -0.01430916 1000 1000 1000 -0.01394385 -0.0142397 -0.01430916 1000 1000 1000 -0.0140245 -0.01368957 -0.01369406 -0.01365522 -0.01361821 1000 -0.0140245 -0.01368957 -0.01369406 -0.01365522 -0.01361821 1000
lala 12 0.6 1 first 2 1 213 5 7.5 0.179998159408569 -1 0 1 1 -0.0129795 -0.01333989 -0.01334286 1000 1000 1000 -0.0129795 -0.01333989 -0.01334286 1000 1000 1000 -0.01524574 -0.01511964 -0.01468419 -0.01435616 -0.01406961 1000 -0.01524574 -0.01511964 -0.01468419 -0.01435616 -0.01406961 1000
lala 13 0.6 0 second 9 1 214 5 4.850001 0.299998044967651 1 1 -1 0 -0.01214152 -0.01214334 -0.01215584 -0.01299301 -0.0150207 1000 -0.01214152 -0.01214334 -0.01215584 -0.01299301 -0.0150207 1000 -0.01419301 -0.0146059 -0.01431432 -0.01409862 -0.01397382 1000 -0.01419301 -0.0146059 -0.01431432 -0.01409862 -0.01397382 1000
lala 15 0.3 0 first 10 1 215 6 3.36 0.61999773979187 1 0 -1 1 -0.01268366 -0.0125253 -0.01265755 1000 1000 1000 -0.01268366 -0.0125253 -0.01265755 1000 1000 1000 -0.0134307 -0.01402242 -0.01392497 -0.01371556 -0.01354102 1000 -0.0134307 -0.01402242 -0.01392497 -0.01371556 -0.01354102 1000
lala 16 0.0375 1 first 4 1 216 6 5.1975 1.45999693870544 -1 0 1 1 -0.01315717 -0.01272449 -0.01200104 1000 1000 1000 -0.01315717 -0.01272449 -0.01200104 1000 1000 1000 -0.01183029 -0.0122551 -0.01250245 -0.01283545 -0.01282981 1000 -0.01183029 -0.0122551 -0.01250245 -0.01283545 -0.01282981 1000
lala 11 0.6 1 second 17 1 217 6 4.380001 1.59999680519104 0 1 1 0 -0.01266737 -0.0127389 -0.01293821 -0.01320167 -0.01352175 1000 -0.01266737 -0.0127389 -0.01293821 -0.01320167 -0.01352175 1000 -0.01357613 -0.01348642 -0.01298182 -0.01307479 -0.0130308 1000 -0.01357613 -0.01348642 -0.01298182 -0.01307479 -0.0130308 1000
lala 14 1.2 1 second 9 1 218 5 6.050001 0.079998254776001 1 1 1 0 -0.01467428 -0.01444277 -0.01416845 -0.01456089 -0.01445242 1000 -0.01467428 -0.01444277 -0.01416845 -0.01456089 -0.01445242 1000 -0.0136975 -0.01306922 -0.01277469 -0.01280472 -0.01296604 1000 -0.0136975 -0.01306922 -0.01277469 -0.01280472 -0.01296604 1000
lala 11 0.6 1 second 5 1 219 6 6.780001 0.219998121261597 -1 1 1 0 -0.01405672 -0.01445586 -0.01479255 -0.01502376 -0.01617353 1000 -0.01405672 -0.01445586 -0.01479255 -0.01502376 -0.01617353 1000 -0.01747173 -0.01785254 -0.01726776 -0.01695812 -0.01665798 1000 -0.01747173 -0.01785254 -0.01726776 -0.01695812 -0.01665798 1000
lala 11 0.3 0 first 0 1 220 4 5.34 0.439997911453247 -1 0 -1 0 -0.01585175 -0.01592173 -0.01581884 1000 1000 1000 -0.01585175 -0.01592173 -0.01581884 1000 1000 1000 -0.0168982 -0.01701109 -0.01730638 -0.01701033 -0.01689206 1000 -0.0168982 -0.01701109 -0.01730638 -0.01701033 -0.01689206 1000
lala 16 0.0375 0 first 12 1 221 4 1.77 1.31999707221985 0 0 -1 0 -0.0162349 -0.01621153 -0.0162947 1000 1000 1000 -0.0162349 -0.01621153 -0.0162947 1000 1000 1000 -0.0186 -0.01877715 -0.01850388 -0.01856084 -0.01844281 1000 -0.0186 -0.01877715 -0.01850388 -0.01856084 -0.01844281 1000
lala 16 0.3 0 first 10 1 222 6 3.66 0.219998121261597 1 0 -1 1 -0.01724422 -0.01768099 -0.01785486 1000 1000 1000 -0.01724422 -0.01768099 -0.01785486 1000 1000 1000 -0.01910339 -0.01878719 -0.01856257 -0.01840118 -0.01864512 1000 -0.01910339 -0.01878719 -0.01856257 -0.01840118 -0.01864512 1000
lala 10 0.6 1 first 14 1 223 5 2.25 0.219998121261597 0 0 1 0 -0.0196166 -0.01956897 -0.01956721 1000 1000 1000 -0.0196166 -0.01956897 -0.01956721 1000 1000 1000 -0.02289042 -0.02299873 -0.02307679 -0.02364558 -0.02451665 1000 -0.02289042 -0.02299873 -0.02307679 -0.02364558 -0.02451665 1000
lala 14 0.3 1 first 6 1 224 4 6.239999 0.199998140335083 1 0 1 0 -0.02443765 -0.02487218 -0.02548702 1000 1000 1000 -0.02443765 -0.02487218 -0.02548702 1000 1000 1000 -0.02650332 -0.0265885 -0.02672324 -0.02681509 -0.02676131 1000 -0.02650332 -0.0265885 -0.02672324 -0.02681509 -0.02676131 1000
lala 12 0.3 0 second 5 1 225 6 6.48 0.359997987747192 -1 1 -1 1 -0.01188011 -0.01060339 -0.01003793 -0.01029071 -0.01041387 1000 -0.01188011 -0.01060339 -0.01003793 -0.01029071 -0.01041387 1000 -0.00982471 -0.009703828 -0.009979916 -0.01018972 -0.0102746 1000 -0.00982471 -0.009703828 -0.009979916 -0.01018972 -0.0102746 1000
lala 12 0.3 1 first 15 1 226 5 1.95 0.419997930526733 0 1 1 1 -0.01225855 -0.01271152 -0.01288439 1000 1000 1000 -0.01225855 -0.01271152 -0.01288439 1000 1000 1000 -0.01582115 -0.01569637 -0.01534185 -0.01486681 -0.0141444 1000 -0.01582115 -0.01569637 -0.01534185 -0.01486681 -0.0141444 1000
lala 13 0.3 1 second 15 1 227 5 1.65 0.119998216629028 0 1 1 1 -0.0245029 -0.02479491 -0.02537817 -0.02676909 -0.02920557 1000 -0.0245029 -0.02479491 -0.02537817 -0.02676909 -0.02920557 1000 -0.01528834 -0.02626995 -0.03078501 -0.03140561 -0.03560671 1000 -0.01528834 -0.02626995 -0.03078501 -0.03140561 -0.03560671 1000
lala 14 0.3 0 first 15 1 228 5 1.65 0.139998197555542 0 1 -1 1 -0.01883596 -0.01201 -0.008215554 1000 1000 1000 -0.01883596 -0.01201 -0.008215554 1000 1000 1000 -0.01116943 -0.01182599 -0.01176866 -0.01226436 -0.0131125 1000 -0.01116943 -0.01182599 -0.01176866 -0.01226436 -0.0131125 1000
lala 16 0.6 1 second 8 1 229 5 6 0.079998254776001 1 0 1 0 -0.01780122 -0.017831 -0.01747473 -0.01820243 -0.01829163 1000 -0.01780122 -0.017831 -0.01747473 -0.01820243 -0.01829163 1000 -0.01803926 -0.01913133 -0.01852902 -0.01895962 -0.01896001 1000 -0.01803926 -0.01913133 -0.01852902 -0.01895962 -0.01896001 1000
lala 13 0.3 0 first 2 1 230 5 7.2 0.719997644424438 -1 0 -1 0 -0.02144057 -0.02216304 -0.0223162 1000 1000 1000 -0.02144057 -0.02216304 -0.0223162 1000 1000 1000 -0.02094908 -0.01963043 -0.02029806 -0.02090026 -0.01990939 1000 -0.02094908 -0.01963043 -0.02029806 -0.02090026 -0.01990939 1000
lala 15 0.15 0 second 15 1 231 5 1.8 0.219998121261597 0 1 -1 1 -0.02210672 -0.02242304 -0.02094816 -0.02006455 -0.02104946 1000 -0.02210672 -0.02242304 -0.02094816 -0.02006455 -0.02104946 1000 -0.01937106 -0.01988249 -0.02003036 -0.01931354 -0.02015902 1000 -0.01937106 -0.01988249 -0.02003036 -0.01931354 -0.02015902 1000
lala 17 0.3 0 second 10 1 232 6 3.96 0.119998216629028 1 0 -1 1 -0.02134296 -0.02111309 -0.02155772 -0.02062515 -0.02003056 1000 -0.02134296 -0.02111309 -0.02155772 -0.02062515 -0.02003056 1000 -0.02193462 -0.02115061 -0.02081355 -0.02118292 -0.02026839 1000 -0.02193462 -0.02115061 -0.02081355 -0.02118292 -0.02026839 1000
lala 17 0.0375 1 first 12 1 233 4 1.8075 0.199998140335083 0 0 1 1 -0.02010548 -0.01943004 -0.02036572 1000 1000 1000 -0.02010548 -0.01943004 -0.02036572 1000 1000 1000 -0.02381217 -0.02294609 -0.02310774 -0.022898 -0.02220393 1000 -0.02381217 -0.02294609 -0.02310774 -0.022898 -0.02220393 1000
lala 14 0.15 1 second 2 1 234 5 7.35 0.319998025894165 -1 0 1 0 -0.02306343 -0.02328206 -0.02358857 -0.02330459 -0.02385601 1000 -0.02306343 -0.02328206 -0.02358857 -0.02330459 -0.02385601 1000 -0.02635074 -0.02698716 -0.02687092 -0.02722495 -0.02750775 1000 -0.02635074 -0.02698716 -0.02687092 -0.02722495 -0.02750775 1000
lala 15 0.3 1 second 13 1 235 4 2.67 0.539997816085815 0 1 1 1 -0.01677316 -0.01703086 -0.01788186 -0.01824528 -0.01788759 1000 -0.01677316 -0.01703086 -0.01788186 -0.01824528 -0.01788759 1000 -0.02011433 -0.01993588 -0.01986919 -0.02051122 -0.02061107 1000 -0.02011433 -0.01993588 -0.01986919 -0.02051122 -0.02061107 1000
lala 12 0.15 1 second 0 1 236 4 5.49 0.359997987747192 -1 0 1 0 -0.0256193 -0.02565403 -0.02631545 -0.02662711 -0.02684035 1000 -0.0256193 -0.02565403 -0.02631545 -0.02662711 -0.02684035 1000 -0.02706659 -0.02702327 -0.02635811 -0.0264414 -0.02704594 1000 -0.02706659 -0.02702327 -0.02635811 -0.0264414 -0.02704594 1000
lala 9 1.2 1 first 7 1 237 4 5.32 0.279998064041138 1 1 1 0 -0.02360236 -0.02252797 -0.02269177 1000 1000 1000 -0.02360236 -0.02252797 -0.02269177 1000 1000 1000 -0.02510185 -0.02541758 -0.02585461 -0.02533078 -0.02549344 1000 -0.02510185 -0.02541758 -0.02585461 -0.02533078 -0.02549344 1000
lala 13 0.15 0 second 5 1 238 6 6.630001 0.319998025894165 -1 1 -1 1 -0.02311828 -0.0219221 -0.02109813 -0.0205739 -0.02029101 1000 -0.02311828 -0.0219221 -0.02109813 -0.0205739 -0.02029101 1000 -0.02060345 -0.02066142 -0.02056499 -0.02022756 -0.0199314 1000 -0.02060345 -0.02066142 -0.02056499 -0.02022756 -0.0199314 1000
lala 13 0.075 1 second 0 1 239 4 5.415 0.179998159408569 -1 0 1 1 -0.02247979 -0.02175561 -0.0214666 -0.02165663 -0.02141828 1000 -0.02247979 -0.02175561 -0.0214666 -0.02165663 -0.02141828 1000 -0.02042114 -0.02030879 -0.02059387 -0.02048519 -0.02014533 1000 -0.02042114 -0.02030879 -0.02059387 -0.02048519 -0.02014533 1000
lala 17 1.2 0 first 8 1 240 5 4.8 0.119998216629028 1 0 -1 1 -0.02136486 -0.02185114 -0.02188789 1000 1000 1000 -0.02136486 -0.02185114 -0.02188789 1000 1000 1000 -0.02034711 -0.01972233 -0.01919401 -0.01879518 -0.01848557 1000 -0.02034711 -0.01972233 -0.01919401 -0.01879518 -0.01848557 1000
lala 11 0.6 1 second 3 1 241 5 6.05 0.01999831199646 -1 1 1 0 -0.01678282 -0.01606996 -0.01601981 -0.0160385 -0.0155478 1000 -0.01678282 -0.01606996 -0.01601981 -0.0160385 -0.0155478 1000 -0.01605458 -0.01593919 -0.01565293 -0.01557691 -0.01503237 1000 -0.01605458 -0.01593919 -0.01565293 -0.01557691 -0.01503237 1000
lala 11 0.6 1 first 11 1 242 6 6.780001 0.01999831199646 1 1 1 0 -0.01455549 -0.01463172 -0.01492073 1000 1000 1000 -0.01455549 -0.01463172 -0.01492073 1000 1000 1000 -0.01483752 -0.01449363 -0.01449825 -0.01448748 -0.01425818 1000 -0.01483752 -0.01449363 -0.01449825 -0.01448748 -0.01425818 1000
lala 13 0.3 1 first 16 1 243 6 3.66 0.139998197555542 0 0 1 0 -0.01638925 -0.01613524 -0.01559875 1000 1000 1000 -0.01638925 -0.01613524 -0.01559875 1000 1000 1000 -0.01364203 -0.01363158 -0.01384082 -0.01351029 -0.0137131 1000 -0.01364203 -0.01363158 -0.01384082 -0.01351029 -0.0137131 1000
lala 12 0.3 1 second 17 1 244 6 4.080001 0.01999831199646 0 1 1 0 -0.0152709 -0.0146129 -0.01430784 -0.01499528 -0.01724508 1000 -0.0152709 -0.0146129 -0.01430784 -0.01499528 -0.01724508 1000 -0.00221115 9.318304E-06 0.0007029925 0.0002031349 0.0009877536 1000 -0.00221115 9.318304E-06 0.0007029925 0.0002031349 0.0009877536 1000
lala 13 0.3 1 first 17 1 245 6 3.780001 0.179998159408569 0 1 1 1 -0.002086756 -0.003583145 -0.005477267 1000 1000 1000 -0.002086756 -0.003583145 -0.005477267 1000 1000 1000 -0.008604314 -0.008449785 -0.007620048 -0.00727384 -0.007380574 1000 -0.008604314 -0.008449785 -0.007620048 -0.00727384 -0.007380574 1000
lala 12 0.3 1 second 3 1 246 5 5.75 0.23999810218811 -1 1 1 0 -0.011245 -0.01121527 -0.0110032 -0.01081249 -0.01058993 1000 -0.011245 -0.01121527 -0.0110032 -0.01081249 -0.01058993 1000 -0.01409787 -0.013212 -0.01197339 -0.01158357 -0.01173181 1000 -0.01409787 -0.013212 -0.01197339 -0.01158357 -0.01173181 1000
lala 15 0.075 1 first 2 1 247 5 7.275001 0.119998216629028 -1 0 1 1 -0.01134907 -0.01223654 -0.01248962 1000 1000 1000 -0.01134907 -0.01223654 -0.01248962 1000 1000 1000 -0.01321247 -0.01327484 -0.01380203 -0.01365582 -0.01313227 1000 -0.01321247 -0.01327484 -0.01380203 -0.01365582 -0.01313227 1000
lala 12 0.3 1 second 11 1 248 6 6.48 0.0999982357025146 1 1 1 0 -0.01541848 -0.01546355 -0.01554365 -0.01587273 -0.01576043 1000 -0.01541848 -0.01546355 -0.01554365 -0.01587273 -0.01576043 1000 -0.01713434 -0.01712662 -0.01764522 -0.01812789 -0.01814954 1000 -0.01713434 -0.01712662 -0.01764522 -0.01812789 -0.01814954 1000
lala 13 0.3 0 second 3 1 249 5 5.449999 0.0599982738494873 -1 1 -1 1 -0.01735129 -0.01735172 -0.01745865 -0.01729692 -0.01700338 1000 -0.01735129 -0.01735172 -0.01745865 -0.01729692 -0.01700338 1000 -0.01840564 -0.01807534 -0.01828049 -0.01881739 -0.01857092 1000 -0.01840564 -0.01807534 -0.01828049 -0.01881739 -0.01857092 1000
lala 14 0.3 0 first 1 1 250 4 5.020001 0.23999810218811 -1 1 -1 1 -0.02524101 -0.02577197 -0.02562158 -0.02545382 -0.02544181 -0.02586381 -0.02524101 -0.02577197 -0.02562158 -0.02545382 -0.02544181 -0.02586381 -0.02880539 -0.02907111 -0.02921668 -0.02955524 -0.02985644 1000 -0.02880539 -0.02907111 -0.02921668 -0.02955524 -0.02985644 1000
lala 10 0.6 0 first 7 1 251 4 4.72 0.01999831199646 1 1 -1 1 -0.02414509 -0.02248477 -0.02190642 1000 1000 1000 -0.02414509 -0.02248477 -0.02190642 1000 1000 1000 -0.02024451 -0.02030276 -0.02047168 -0.0204378 -0.02043284 1000 -0.02024451 -0.02030276 -0.02047168 -0.0204378 -0.02043284 1000
lala 15 0.3 0 first 1 1 252 4 5.320001 0.199998140335083 -1 1 -1 0 -0.02217839 -0.02218813 -0.02245005 1000 1000 1000 -0.02217839 -0.02218813 -0.02245005 1000 1000 1000 -0.02163799 -0.02142193 -0.0212756 -0.02129928 -0.02137694 1000 -0.02163799 -0.02142193 -0.0212756 -0.02129928 -0.02137694 1000
lala 14 0.3 1 first 17 1 253 6 3.480001 0.199998140335083 0 1 1 1 -0.02281994 -0.02265449 -0.02266388 1000 1000 1000 -0.02281994 -0.02265449 -0.02266388 1000 1000 1000 -0.02312241 -0.02275891 -0.02265695 -0.0227982 -0.02293856 1000 -0.02312241 -0.02275891 -0.02265695 -0.0227982 -0.02293856 1000
lala 11 0.3 1 first 7 1 254 4 5.02 0.479997873306274 1 1 1 0 -0.02256922 -0.02267639 -0.0226147 1000 1000 1000 -0.02256922 -0.02267639 -0.0226147 1000 1000 1000 -0.02400552 -0.02400212 -0.02407744 -0.02388474 -0.02373615 1000 -0.02400552 -0.02400212 -0.02407744 -0.02388474 -0.02373615 1000
lala 18 0.01875 1 first 12 1 255 4 1.78875 0.719997644424438 0 0 1 0 -0.02476272 -0.0248116 -0.02459523 1000 1000 1000 -0.02476272 -0.0248116 -0.02459523 1000 1000 1000 -0.02600369 -0.0261284 -0.02648384 -0.02683387 -0.02627543 1000 -0.02600369 -0.0261284 -0.02648384 -0.02683387 -0.02627543 1000
lala 16 0.6 0 first 13 1 256 4 2.07 0.339998006820679 0 1 -1 0 -0.02470528 -0.02459825 -0.02481624 1000 1000 1000 -0.02470528 -0.02459825 -0.02481624 1000 1000 1000 -0.02418988 -0.023759 -0.02353236 -0.02352121 -0.02348497 1000 -0.02418988 -0.023759 -0.02353236 -0.02352121 -0.02348497 1000
lala 12 0.15 1 second 7 1 257 4 4.87 0.299998044967651 1 1 1 0 -0.02339615 -0.02329049 -0.02371281 -0.02444305 -0.02427066 1000 -0.02339615 -0.02329049 -0.02371281 -0.02444305 -0.02427066 1000 -0.02573075 -0.02554048 -0.02542419 -0.02487271 -0.02470834 1000 -0.02573075 -0.02554048 -0.02542419 -0.02487271 -0.02470834 1000
lala 14 0.075 0 first 0 1 258 4 5.34 0.599997758865356 -1 0 -1 1 -0.02316371 -0.02320343 -0.02285407 1000 1000 1000 -0.02316371 -0.02320343 -0.02285407 1000 1000 1000 -0.02147349 -0.02122285 -0.02119845 -0.02135025 -0.02114583 1000 -0.02147349 -0.02122285 -0.02119845 -0.02135025 -0.02114583 1000
lala 13 0.3 1 first 11 1 259 6 6.18 0.23999810218811 1 1 1 1 -0.02109291 -0.0212234 -0.02271241 1000 1000 1000 -0.02109291 -0.0212234 -0.02271241 1000 1000 1000 -0.01911614 -0.01804873 -0.01664273 -0.0148648 -0.01474955 1000 -0.01911614 -0.01804873 -0.01664273 -0.0148648 -0.01474955 1000
lala 14 0.3 0 first 11 1 260 6 5.88 0.319998025894165 1 1 -1 1 -0.01317634 -0.01326399 -0.01324302 1000 1000 1000 -0.01317634 -0.01326399 -0.01324302 1000 1000 1000 -0.01473678 -0.01490858 -0.01522908 -0.01521097 -0.01569001 1000 -0.01473678 -0.01490858 -0.01522908 -0.01521097 -0.01569001 1000
lala 16 0.3 0 first 1 1 261 4 5.620001 0.23999810218811 -1 1 -1 1 -0.01829587 -0.01764013 -0.01698295 1000 1000 1000 -0.01829587 -0.01764013 -0.01698295 1000 1000 1000 -0.01887145 -0.01911328 -0.02010074 -0.02052778 -0.02064686 1000 -0.01887145 -0.01911328 -0.02010074 -0.02052778 -0.02064686 1000
lala 17 0.6 1 second 1 1 262 4 6.220001 0.819997549057007 -1 1 1 0 -0.02152002 -0.02147946 -0.02106739 -0.02118804 -0.02185807 1000 -0.02152002 -0.02147946 -0.02106739 -0.02118804 -0.02185807 1000 -0.02325597 -0.02447184 -0.02495004 -0.02551194 -0.02586879 1000 -0.02325597 -0.02447184 -0.02495004 -0.02551194 -0.02586879 1000
lala 15 0.15 1 first 11 1 263 6 6.03 0.339998006820679 1 1 1 0 -0.0248187 -0.02458907 -0.02462345 1000 1000 1000 -0.0248187 -0.02458907 -0.02462345 1000 1000 1000 -0.02739995 -0.02712553 -0.02642532 -0.02576646 -0.02520178 1000 -0.02739995 -0.02712553 -0.02642532 -0.02576646 -0.02520178 1000
lala 15 0.6 0 first 9 1 264 5 5.450001 0.319998025894165 1 1 -1 1 -0.02414511 -0.02392846 -0.02413861 1000 1000 1000 -0.02414511 -0.02392846 -0.02413861 1000 1000 1000 -0.02341123 -0.02373381 -0.02354291 -0.02372771 -0.02436834 1000 -0.02341123 -0.02373381 -0.02354291 -0.02372771 -0.02436834 1000
lala 16 0.15 0 first 15 1 265 5 1.95 0.799997568130493 0 1 -1 0 -0.02462085 -0.02437759 -0.02413258 1000 1000 1000 -0.02462085 -0.02437759 -0.02413258 1000 1000 1000 -0.02538292 -0.02520175 -0.02519328 -0.02519274 -0.02530519 1000 -0.02538292 -0.02520175 -0.02519328 -0.02519274 -0.02530519 1000
lala 14 0.15 1 first 3 1 266 5 5.599999 1.7199969291687 -1 1 1 0 -0.02502771 -0.02531382 -0.02488152 1000 1000 1000 -0.02502771 -0.02531382 -0.02488152 1000 1000 1000 -0.02552087 -0.02524441 -0.02521009 -0.02583308 -0.02596929 1000 -0.02552087 -0.02524441 -0.02521009 -0.02583308 -0.02596929 1000
lala 15 0.3 1 first 6 1 267 4 5.939999 0.179998159408569 1 0 1 0 -0.0247365 -0.02506471 -0.02536778 1000 1000 1000 -0.0247365 -0.02506471 -0.02536778 1000 1000 1000 -0.02686709 -0.02659092 -0.02643734 -0.02648375 -0.02658391 1000 -0.02686709 -0.02659092 -0.02643734 -0.02648375 -0.02658391 1000
lala 16 0.075 1 second 11 1 268 6 5.955 0.01999831199646 1 1 1 1 -0.02380396 -0.02376031 -0.02372403 -0.02362522 -0.02351935 1000 -0.02380396 -0.02376031 -0.02372403 -0.02362522 -0.02351935 1000 -0.02245539 -0.02232716 -0.02229593 -0.02192822 -0.02171949 1000 -0.02245539 -0.02232716 -0.02229593 -0.02192822 -0.02171949 1000
lala 16 0.075 1 second 2 1 269 5 7.200001 0.01999831199646 -1 0 1 0 -0.02245359 -0.02282657 -0.02271506 -0.02217754 -0.02193711 1000 -0.02245359 -0.02282657 -0.02271506 -0.02217754 -0.02193711 1000 -0.02158122 -0.02143092 -0.0213456 -0.02135347 -0.0213925 1000 -0.02158122 -0.02143092 -0.0213456 -0.02135347 -0.0213925 1000
lala 11 0.6 0 first 14 1 270 5 1.65 0.0599982738494873 0 0 -1 1 -0.02206411 -0.02177575 -0.02160885 1000 1000 1000 -0.02206411 -0.02177575 -0.02160885 1000 1000 1000 -0.02173164 -0.02149182 -0.02121586 -0.02083846 -0.02072254 1000 -0.02173164 -0.02149182 -0.02121586 -0.02083846 -0.02072254 1000
lala 17 0.3 1 second 13 1 271 4 2.37 0.01999831199646 0 1 1 1 -0.02079031 -0.02084539 -0.02137081 -0.02143702 -0.02164944 1000 -0.02079031 -0.02084539 -0.02137081 -0.02143702 -0.02164944 1000 -0.02169789 -0.02231377 -0.02222129 -0.02217349 -0.02219541 1000 -0.02169789 -0.02231377 -0.02222129 -0.02217349 -0.02219541 1000
lala 18 0.15 1 second 13 1 272 4 2.22 0.01999831199646 0 1 1 1 -0.02357686 -0.02338344 -0.02313122 -0.02291204 -0.02269786 1000 -0.02357686 -0.02338344 -0.02313122 -0.02291204 -0.02269786 1000 -0.02308983 -0.02296482 -0.02288804 -0.02334945 -0.02311453 1000 -0.02308983 -0.02296482 -0.02288804 -0.02334945 -0.02311453 1000
lala 19 0.15 1 second 13 1 273 4 2.069999 0.01999831199646 0 1 1 0 -0.0236161 -0.023323 -0.02305959 -0.02307604 -0.02324633 1000 -0.0236161 -0.023323 -0.02305959 -0.02307604 -0.02324633 1000 -0.02211657 -0.02234224 -0.02251832 -0.02244991 -0.02251567 1000 -0.02211657 -0.02234224 -0.02251832 -0.02244991 -0.02251567 1000
lala 17 0.075 0 first 2 1 274 5 7.125001 0.119998216629028 -1 0 -1 0 -0.0245866 -0.024966 -0.02571618 1000 1000 1000 -0.0245866 -0.024966 -0.02571618 1000 1000 1000 -0.02664838 -0.02653284 -0.02648834 -0.02658913 -0.02633557 1000 -0.02664838 -0.02653284 -0.02648834 -0.02658913 -0.02633557 1000
lala 13 0.15 0 first 7 1 275 4 4.72 0.419997930526733 1 1 -1 1 -0.02485067 -0.02498259 -0.02593736 1000 1000 1000 -0.02485067 -0.02498259 -0.02593736 1000 1000 1000 -0.02532597 -0.02507586 -0.02471149 -0.02433285 -0.0240327 1000 -0.02532597 -0.02507586 -0.02471149 -0.02433285 -0.0240327 1000
lala 16 0.3 1 second 9 1 276 5 5.750001 0.01999831199646 1 1 1 0 -0.02491795 -0.02536209 -0.02584593 -0.0255838 -0.02558164 1000 -0.02491795 -0.02536209 -0.02584593 -0.0255838 -0.02558164 1000 -0.0263452 -0.02621304 -0.0264162 -0.02680824 -0.0267055 1000 -0.0263452 -0.02621304 -0.0264162 -0.02680824 -0.0267055 1000
lala 18 0.3 1 first 1 1 277 4 5.920001 0.359997987747192 -1 1 1 1 -0.02411537 -0.02350196 -0.02243089 1000 1000 1000 -0.02411537 -0.02350196 -0.02243089 1000 1000 1000 -0.02336181 -0.02335824 -0.02347257 -0.02369286 -0.02378011 1000 -0.02336181 -0.02335824 -0.02347257 -0.02369286 -0.02378011 1000
lala 18 0.6 1 second 10 1 278 6 4.56 0.179998159408569 1 0 1 1 -0.02472643 -0.02451836 -0.02409863 -0.02398768 -0.02399162 1000 -0.02472643 -0.02451836 -0.02409863 -0.02398768 -0.02399162 1000 -0.02364659 -0.02363671 -0.02378224 -0.02398612 -0.02412861 1000 -0.02364659 -0.02363671 -0.02378224 -0.02398612 -0.02412861 1000
lala 17 0.0375 0 second 4 1 279 6 5.16 0.0599982738494873 -1 0 -1 0 -0.02514049 -0.02517574 -0.02448122 -0.02393334 -0.02384158 1000 -0.02514049 -0.02517574 -0.02448122 -0.02393334 -0.02384158 1000 -0.02349793 -0.0233313 -0.02335616 -0.02334895 -0.02335871 1000 -0.02349793 -0.0233313 -0.02335616 -0.02334895 -0.02335871 1000
lala 14 0.6 1 first 16 1 280 6 3.06 0.279998064041138 0 0 1 1 -0.02457483 -0.02471972 -0.02505484 1000 1000 1000 -0.02457483 -0.02471972 -0.02505484 1000 1000 1000 -0.02645696 -0.02604086 -0.02572873 -0.02576054 -0.02584165 1000 -0.02645696 -0.02604086 -0.02572873 -0.02576054 -0.02584165 1000
lala 18 0.01875 1 second 4 1 281 6 5.17875 0.219998121261597 -1 0 1 0 -0.02551182 -0.02552235 -0.02551189 -0.02609075 -0.02697031 1000 -0.02551182 -0.02552235 -0.02551189 -0.02609075 -0.02697031 1000 -0.02709521 -0.02788303 -0.02664185 -0.02614837 -0.02635754 1000 -0.02709521 -0.02788303 -0.02664185 -0.02614837 -0.02635754 1000
lala 14 0.15 0 first 5 1 282 6 6.780001 0.679997682571411 -1 1 -1 1 -0.01863212 -0.01328707 -0.007915977 1000 1000 1000 -0.01863212 -0.01328707 -0.007915977 1000 1000 1000 -0.0559282 -0.05576808 -0.05595219 -0.05508021 -0.05029765 1000 -0.0559282 -0.05576808 -0.05595219 -0.05508021 -0.05029765 1000
lala 15 0.075 0 first 3 1 283 5 5.525 0.01999831199646 -1 1 -1 0 -0.01943378 -0.01262764 -0.01140976 1000 1000 1000 -0.01943378 -0.01262764 -0.01140976 1000 1000 1000 -0.02035628 -0.01874542 -0.01905364 -0.01954665 -0.019271 1000 -0.02035628 -0.01874542 -0.01905364 -0.01954665 -0.019271 1000
lala 15 0.15 0 first 5 1 284 6 6.930001 0.179998159408569 -1 1 -1 1 -0.02285348 -0.02349846 -0.024018 1000 1000 1000 -0.02285348 -0.02349846 -0.024018 1000 1000 1000 -0.03387626 -0.03368993 -0.03262319 -0.03194978 -0.03169892 1000 -0.03387626 -0.03368993 -0.03262319 -0.03194978 -0.03169892 1000
lala 19 0.009375 1 second 4 1 285 6 5.169375 0.0599982738494873 -1 0 1 0 -0.02557804 -0.02433603 -0.02358648 -0.02354004 -0.02367006 1000 -0.02557804 -0.02433603 -0.02358648 -0.02354004 -0.02367006 1000 -0.02218024 -0.02227504 -0.02252587 -0.02240175 -0.02246632 1000 -0.02218024 -0.02227504 -0.02252587 -0.02240175 -0.02246632 1000
lala 16 0.3 1 second 5 1 286 6 7.230001 0.01999831199646 -1 1 1 1 -0.0225201 -0.022213 -0.02218523 -0.02252341 -0.0221593 1000 -0.0225201 -0.022213 -0.02218523 -0.02252341 -0.0221593 1000 -0.02222863 -0.02293601 -0.02276972 -0.02263259 -0.02231116 1000 -0.02222863 -0.02293601 -0.02276972 -0.02263259 -0.02231116 1000
lala 17 0.15 0 second 15 1 287 5 2.1 0.139998197555542 0 1 -1 1 -0.02416589 -0.02421201 -0.02422516 -0.02445286 -0.02493257 1000 -0.02416589 -0.02421201 -0.02422516 -0.02445286 -0.02493257 1000 -0.0265175 -0.02665161 -0.02626281 -0.0259224 -0.02621629 1000 -0.0265175 -0.02665161 -0.02626281 -0.0259224 -0.02621629 1000
lala 16 0.0375 1 second 3 1 288 5 5.5625 0.39999794960022 -1 1 1 1 -0.02524835 -0.02472921 -0.0241892 -0.02416659 -0.02475714 1000 -0.02524835 -0.02472921 -0.0241892 -0.02416659 -0.02475714 1000 -0.02398328 -0.02406111 -0.02408858 -0.02385817 -0.02345099 1000 -0.02398328 -0.02406111 -0.02408858 -0.02385817 -0.02345099 1000
lala 14 0.075 0 first 7 1 289 4 4.795 0.459997892379761 1 1 -1 0 -0.0220751 -0.02187589 -0.02199707 1000 1000 1000 -0.0220751 -0.02187589 -0.02199707 1000 1000 1000 -0.02501784 -0.02504158 -0.02510652 -0.02522857 -0.02581062 1000 -0.02501784 -0.02504158 -0.02510652 -0.02522857 -0.02581062 1000
lala 15 1.2 0 second 16 1 290 6 1.98 0.279998064041138 0 0 -1 0 -0.02558489 -0.02505896 -0.0251781 -0.02527957 -0.02520316 1000 -0.02558489 -0.02505896 -0.0251781 -0.02527957 -0.02520316 1000 -0.02477382 -0.02505914 -0.02509911 -0.02485917 -0.02465405 1000 -0.02477382 -0.02505914 -0.02509911 -0.02485917 -0.02465405 1000
lala 17 0.01875 0 first 3 1 291 5 5.543749 0.159998178482056 -1 1 -1 1 -0.02150496 -0.01705109 -0.01254301 1000 1000 1000 -0.02150496 -0.01705109 -0.01254301 1000 1000 1000 -0.01188519 -0.01196748 -0.0121965 -0.01316285 -0.01410277 1000 -0.01188519 -0.01196748 -0.0121965 -0.01316285 -0.01410277 1000
lala 16 0.6 0 first 6 1 292 4 5.339999 0.479997873306274 1 0 -1 0 -0.01846169 -0.01865421 -0.01918499 1000 1000 1000 -0.01846169 -0.01865421 -0.01918499 1000 1000 1000 -0.01826431 -0.01776991 -0.01789555 -0.01822676 -0.01758422 1000 -0.01826431 -0.01776991 -0.01789555 -0.01822676 -0.01758422 1000
lala 17 0.3 1 second 6 1 293 4 5.639999 0.179998159408569 1 0 1 1 -0.01748489 -0.01787962 -0.01779849 -0.01710953 -0.01657671 1000 -0.01748489 -0.01787962 -0.01779849 -0.01710953 -0.01657671 1000 -0.01653911 -0.01656979 -0.01671843 -0.01687011 -0.01713201 1000 -0.01653911 -0.01656979 -0.01671843 -0.01687011 -0.01713201 1000
lala 18 0.009375 1 second 3 1 294 5 5.553124 0.0999982357025146 -1 1 1 1 -0.01804235 -0.01844955 -0.01795474 -0.01774118 -0.01755562 1000 -0.01804235 -0.01844955 -0.01795474 -0.01774118 -0.01755562 1000 -0.0181808 -0.01802453 -0.01811486 -0.01829646 -0.01870929 1000 -0.0181808 -0.01802453 -0.01811486 -0.01829646 -0.01870929 1000
lala 12 0.3 0 second 14 1 295 5 1.95 0.259998083114624 0 0 -1 0 -0.02084413 -0.0204584 -0.02074214 -0.02004625 -0.01990891 1000 -0.02084413 -0.0204584 -0.02074214 -0.02004625 -0.01990891 1000 -0.02013022 -0.01914627 -0.01851397 -0.01812558 -0.01794254 1000 -0.02013022 -0.01914627 -0.01851397 -0.01812558 -0.01794254 1000
lala 19 0.01875 0 second 12 1 296 4 1.77 0.23999810218811 0 0 -1 0 -0.01857539 -0.01893397 -0.01908832 -0.01854775 -0.01862453 1000 -0.01857539 -0.01893397 -0.01908832 -0.01854775 -0.01862453 1000 -0.01985429 -0.01976917 -0.01961106 -0.01911703 -0.01846111 1000 -0.01985429 -0.01976917 -0.01961106 -0.01911703 -0.01846111 1000
lala 19 0.3 1 first 1 1 297 4 5.620001 0.0399982929229736 -1 1 1 1 -0.02004156 -0.02011806 -0.02010194 1000 1000 1000 -0.02004156 -0.02011806 -0.02010194 1000 1000 1000 -0.02166314 -0.02201081 -0.02218904 -0.02225099 -0.02290416 1000 -0.02166314 -0.02201081 -0.02218904 -0.02225099 -0.02290416 1000
lala 18 0.6 1 first 8 1 298 5 5.4 0.279998064041138 1 0 1 0 -0.02344389 -0.02309638 -0.02290477 1000 1000 1000 -0.02344389 -0.02309638 -0.02290477 1000 1000 1000 -0.02400722 -0.02486302 -0.02536461 -0.0252013 -0.02491951 1000 -0.02400722 -0.02486302 -0.02536461 -0.0252013 -0.02491951 1000
lala 20 0.009375 1 first 12 1 299 4 1.779375 0.479997873306274 0 0 1 0 -0.02502643 -0.02519461 -0.02541916 1000 1000 1000 -0.02502643 -0.02519461 -0.02541916 1000 1000 1000 -0.02597361 -0.02560313 -0.02552653 -0.02587928 -0.02598384 1000 -0.02597361 -0.02560313 -0.02552653 -0.02587928 -0.02598384 1000
lala 19 0.0046875 1 second 3 1 300 5 5.548437 0.179998159408569 -1 1 1 0 0.009677323 0.008335765 0.007877725 0.007439087 0.00721645 1000 0.009677323 0.008335765 0.007877725 0.007439087 0.00721645 1000 -0.001478222 -0.001777834 -0.002920394 -0.002733625 -0.002665515 1000 -0.001478222 -0.001777834 -0.002920394 -0.002733625 -0.002665515 1000
lala 20 0.009375 0 first 4 1 301 6 5.16 1.11999726295471 -1 0 -1 1 -0.004762477 -0.005507514 -0.005237231 1000 1000 1000 -0.004762477 -0.005507514 -0.005237231 1000 1000 1000 -0.009374835 -0.01059841 -0.01198104 -0.01318769 -0.01316878 1000 -0.009374835 -0.01059841 -0.01198104 -0.01318769 -0.01316878 1000
lala 19 0.3 1 second 10 1 302 6 4.26 0.439997911453247 1 0 1 1 -0.01741515 -0.01851941 -0.02042777 -0.02676471 -0.03408793 1000 -0.01741515 -0.01851941 -0.02042777 -0.02676471 -0.03408793 1000 -0.027513 -0.01251753 -0.001913696 -0.002402906 -0.009328052 1000 -0.027513 -0.01251753 -0.001913696 -0.002402906 -0.009328052 1000
lala 20 0.15 1 first 13 1 303 4 1.919999 0.199998140335083 0 1 1 0 0.001145095 0.005807845 0.004891168 1000 1000 1000 0.001145095 0.005807845 0.004891168 1000 1000 1000 -0.009307382 -0.009439506 -0.009575834 -0.009530067 -0.009476685 1000 -0.009307382 -0.009439506 -0.009575834 -0.009530067 -0.009476685 1000
lala 18 0.15 1 first 6 1 304 4 5.489999 0.159998178482056 1 0 1 0 -0.01205437 -0.01194317 -0.012528 1000 1000 1000 -0.01205437 -0.01194317 -0.012528 1000 1000 1000 -0.01715273 -0.01689405 -0.01708524 -0.0168222 -0.01662808 1000 -0.01715273 -0.01689405 -0.01708524 -0.0168222 -0.01662808 1000
lala 19 0.15 0 first 6 1 305 4 5.339999 0.079998254776001 1 0 -1 1 -0.01695025 -0.01696892 -0.01701501 1000 1000 1000 -0.01695025 -0.01696892 -0.01701501 1000 1000 1000 -0.02296926 -0.02389688 -0.02409724 -0.02456981 -0.02475825 1000 -0.02296926 -0.02389688 -0.02409724 -0.02456981 -0.02475825 1000
lala 17 0.15 0 first 5 1 306 6 7.080001 0.279998064041138 -1 1 -1 1 -0.02447945 -0.02461997 -0.02570393 1000 1000 1000 -0.02447945 -0.02461997 -0.02570393 1000 1000 1000 -0.03135514 -0.03106 -0.03089123 -0.03146466 -0.03116917 1000 -0.03135514 -0.03106 -0.03089123 -0.03146466 -0.03116917 1000
lala 21 0.0046875 1 second 4 1 307 6 5.164687 0.119998216629028 -1 0 1 1 -0.01992443 -0.01950884 -0.01892052 -0.01829759 -0.0179207 1000 -0.01992443 -0.01950884 -0.01892052 -0.01829759 -0.0179207 1000 -0.01960105 -0.01981983 -0.02004016 -0.02038117 -0.02132726 1000 -0.01960105 -0.01981983 -0.02004016 -0.02038117 -0.02132726 1000
lala 20 0.3 1 first 10 1 308 6 3.96 0.0999982357025146 1 0 1 0 -0.02448207 -0.02468993 -0.02469893 1000 1000 1000 -0.02448207 -0.02468993 -0.02469893 1000 1000 1000 -0.02364324 -0.02371662 -0.02369322 -0.0233681 -0.02305165 1000 -0.02364324 -0.02371662 -0.02369322 -0.0233681 -0.02305165 1000
lala 21 0.3 1 first 13 1 309 4 1.619999 0.759997606277466 0 1 1 1 -0.02316339 -0.02335647 -0.02326325 1000 1000 1000 -0.02316339 -0.02335647 -0.02326325 1000 1000 1000 -0.02560112 -0.02540928 -0.02514756 -0.02520052 -0.02547443 1000 -0.02560112 -0.02540928 -0.02514756 -0.02520052 -0.02547443 1000
lala 15 0.6 1 first 17 1 310 6 2.880001 0.339998006820679 0 1 1 1 -0.02477638 -0.02450169 -0.02439901 1000 1000 1000 -0.02477638 -0.02450169 -0.02439901 1000 1000 1000 -0.02685736 -0.02754533 -0.02732097 -0.02749402 -0.02738717 1000 -0.02685736 -0.02754533 -0.02732097 -0.02749402 -0.02738717 1000
lala 17 0.075 0 first 11 1 311 6 5.880001 0.179998159408569 1 1 -1 0 -0.01689149 -0.008245202 -0.002229048 1000 1000 1000 -0.01689149 -0.008245202 -0.002229048 1000 1000 1000 0.00441274 0.004522147 0.004548776 0.004260956 0.004618628 1000 0.00441274 0.004522147 0.004548776 0.004260956 0.004618628 1000
lala 22 0.6 0 second 13 1 312 4 1.32 0.299998044967651 0 1 -1 1 0.004926358 0.005265938 0.005437542 0.005242807 0.005500178 1000 0.004926358 0.005265938 0.005437542 0.005242807 0.005500178 1000 0.006927451 0.00702014 0.006861362 0.006578858 0.007030707 1000 0.006927451 0.00702014 0.006861362 0.006578858 0.007030707 1000
lala 13 0.3 0 first 14 1 313 5 2.25 0.39999794960022 0 0 -1 1 0.006311578 0.007206799 0.007350264 1000 1000 1000 0.006311578 0.007206799 0.007350264 1000 1000 1000 0.007153682 0.007661597 0.008206565 0.008929492 0.009262733 1000 0.007153682 0.007661597 0.008206565 0.008929492 0.009262733 1000
lala 17 0.15 0 first 9 1 314 5 5.600001 0.0999982357025146 1 1 -1 0 0.01033841 0.01053385 0.01015271 1000 1000 1000 0.01033841 0.01053385 0.01015271 1000 1000 1000 0.008389411 0.008487744 0.008768807 0.009137067 0.009085976 1000 0.008389411 0.008487744 0.008768807 0.009137067 0.009085976 1000
lala 16 0.6 1 second 16 1 315 6 2.58 0.01999831199646 0 0 1 0 0.00895595 0.009163887 0.00898847 0.009366663 0.009166147 1000 0.00895595 0.009163887 0.00898847 0.009366663 0.009166147 1000 0.008526162 0.008741939 0.008165355 0.007885507 0.008355961 1000 0.008526162 0.008741939 0.008165355 0.007885507 0.008355961 1000
lala 20 0.075 1 second 6 1 316 4 5.414999 0.01999831199646 1 0 1 1 0.008929101 0.009673906 0.009904388 0.009869715 0.009629461 1000 0.008929101 0.009673906 0.009904388 0.009869715 0.009629461 1000 0.009390862 0.009200639 0.009229839 0.009174202 0.0085785 1000 0.009390862 0.009200639 0.009229839 0.009174202 0.0085785 1000
lala 21 0.3 0 second 10 1 317 6 3.66 1.13999724388123 1 0 -1 1 0.008679799 0.009200491 0.01024431 0.0106647 0.01067574 1000 0.008679799 0.009200491 0.01024431 0.0106647 0.01067574 1000 0.01011944 0.01007218 0.009671838 0.009375416 0.009121737 1000 0.01011944 0.01007218 0.009671838 0.009375416 0.009121737 1000
lala 16 1.2 1 second 17 1 318 6 1.98 0.319998025894165 0 1 1 0 0.009975553 0.009753367 0.009463718 0.009785783 0.009772324 1000 0.009975553 0.009753367 0.009463718 0.009785783 0.009772324 1000 0.007732888 0.007839172 0.008043204 0.007849331 0.007272663 1000 0.007732888 0.007839172 0.008043204 0.007849331 0.007272663 1000
lala 17 0.3 1 first 16 1 319 6 2.28 0.439997911453247 0 0 1 1 0.008014712 0.00794826 0.008020818 1000 1000 1000 0.008014712 0.00794826 0.008020818 1000 1000 1000 0.009428279 0.009541338 0.00922941 0.008537341 0.007963219 1000 0.009428279 0.009541338 0.00922941 0.008537341 0.007963219 1000
lala 15 0.075 1 first 7 1 320 4 4.869999 0.139998197555542 1 1 1 1 0.005648547 0.005232348 0.005656123 1000 1000 1000 0.005648547 0.005232348 0.005656123 1000 1000 1000 0.008972242 0.008357566 0.007819927 0.007587478 0.008077747 1000 0.008972242 0.008357566 0.007819927 0.007587478 0.008077747 1000
lala 20 0.0046875 1 second 3 1 321 5 5.54375 1.73999691009521 -1 1 1 1 0.006772785 0.006564396 0.006220929 0.00531307 0.005020305 1000 0.006772785 0.006564396 0.006220929 0.00531307 0.005020305 1000 0.008458919 0.0082382 0.009030104 0.008822973 0.008765625 1000 0.008458919 0.0082382 0.009030104 0.008822973 0.008765625 1000
