subject PestNr Step_Size_OnTrial Pest_Faster Pest_Interval Condition block trial velH velH_Pest Reaction_Time velH_Subject Start_Above Response_MotionEstimation RightOrLeftxRotations_first0 xRotations_first1 xRotations_first2 xRotations_first3 xRotations_first4 xRotations_first5 yRotations_first0 yRotations_first1 yRotations_first2 yRotations_first3 yRotations_first4 yRotations_first5 xRotations_second0 xRotations_second1 xRotations_second2 xRotations_second3 xRotations_second4 xRotations_second5 yRotations_second0 yRotations_second1 yRotations_second2 yRotations_second3 yRotations_second4 yRotations_second5
lala 1 1.2 1 second 0 1 1 3 3.99 5.61999368667603 0 1 1 0 0.01884495 0.01812812 0.01781179 0.01788347 0.01772983 1000 0.006040184 0.006493827 0.006931762 0.006589734 0.006469474 1000 0.02004034 0.02031111 0.02043703 0.02113487 0.02148329 1000 0.006929027 0.007334313 0.02043703 0.007579481 0.007647959 1000
lala 2 1.2 1 second 0 1 2 3 2.79 0.359997987747192 0 1 1 1 0.01225497 0.01131707 0.01094329 0.01071464 0.01125864 1000 0.009480713 0.009464123 0.009907573 0.01055001 0.01074784 1000 0.01239623 0.01180287 0.01215989 0.01180533 0.01166673 1000 0.01174824 0.01113563 0.01215989 0.01128782 0.01102671 1000
lala 3 1.2 0 second 0 1 3 3 1.59 0.339998006820679 0 1 -1 0 0.01367321 0.01413248 0.0134551 0.01296208 0.01241385 1000 0.01244872 0.01184971 0.01145488 0.0115382 0.01179309 1000 0.01162064 0.01160245 0.01139926 0.01135508 0.01143269 1000 0.01233441 0.01264175 0.01139926 0.01261013 0.01255854 1000
lala 4 1.2 1 second 0 1 4 3 2.79 0.559997797012329 0 1 1 0 0.01332116 0.01392398 0.01338602 0.0134424 0.01319189 1000 0.01471227 0.01438508 0.01415248 0.01420279 0.01413117 1000 0.01196519 0.0112988 0.0113152 0.01155106 0.01142515 1000 0.01443049 0.01454928 0.0113152 0.01518396 0.0151185 1000
lala 5 0.6 1 first 0 1 5 3 2.19 0.459997892379761 0 1 1 0 0.007361966 0.005773661 0.004685776 0.004766027 0.004083255 1000 0.01670508 0.01726319 0.01751229 0.01785325 0.01812742 1000 0.009376241 0.009218032 0.008074448 0.007932829 0.008507259 1000 0.01734829 0.01722815 0.008074448 0.01712004 0.01707235 1000
lala 6 0.6 0 first 0 1 6 3 1.59 1.03999733924866 0 1 -1 0 0.009444698 0.009764948 0.01027835 0.01137511 0.01151369 1000 0.0171962 0.01700841 0.01723446 0.01710478 0.01683716 1000 0.0113104 0.01040192 0.01015054 0.01080485 0.01085577 1000 0.01731118 0.01747864 0.01015054 0.01784778 0.01777193 1000
lala 7 0.3 0 first 0 1 7 3 1.89 1.79999685287476 0 1 -1 0 0.01236349 0.01207956 0.0117525 0.01204965 0.01131716 1000 0.01725929 0.01752477 0.01804747 0.0180271 0.0173445 1000 0.01069356 0.01083429 0.01028978 0.009939606 0.009178118 1000 0.01781352 0.01793965 0.01028978 0.01760779 0.01788553 1000
lala 8 0.3 1 first 0 1 8 3 2.19 1.19999718666077 0 1 1 1 0.01030592 0.009834494 0.009314049 0.009365685 0.008923634 1000 0.02012559 0.02034775 0.02064592 0.02092559 0.02092298 1000 0.009893369 0.0101072 0.01056693 0.01054707 0.009440924 1000 0.0207765 0.02060709 0.01056693 0.02057135 0.02083594 1000
lala 9 0.15 0 first 0 1 9 3 2.04 0.839997529983521 0 1 -1 1 0.009698726 0.009741941 0.009448305 0.009598883 0.01009621 1000 0.02106571 0.02138583 0.02171985 0.02200086 0.02167434 1000 0.009327437 0.0098808 0.009572017 0.009207323 0.008400305 1000 0.02194106 0.02175168 0.009572017 0.02178409 0.02186266 1000
lala 10 0.075 0 first 0 1 10 3 2.115 0.819997549057007 0 1 -1 0 0.002647695 0.002756351 0.00354647 0.004359895 0.004283035 1000 0.01951673 0.01950324 0.01901178 0.01867362 0.01888536 1000 0.004477333 0.004906077 0.005703133 0.006089513 0.006602121 1000 0.01939922 0.01939861 0.005703133 0.01898146 0.01904627 1000
lala 11 0.075 1 second 0 1 11 3 2.19 0.519997835159302 0 1 1 0 0.007295057 0.007346829 0.007324471 0.007907401 0.008374299 1000 0.01933337 0.01945299 0.0195776 0.01918835 0.0190109 1000 0.007737444 0.006695663 0.007093332 0.008282418 0.008625974 1000 0.02017753 0.02056553 0.007093332 0.02038613 0.02015745 1000
lala 12 0.0375 1 first 0 1 12 3 2.1525 1.0999972820282 0 1 1 0 0.006857845 0.007401972 0.00740565 0.007568969 0.007260937 1000 0.01985076 0.02012567 0.02032929 0.01998661 0.02048534 1000 0.00753346 0.00767858 0.007916523 0.007259092 0.007082646 1000 0.02114712 0.02098154 0.007916523 0.02062943 0.02088179 1000
lala 13 0.0375 0 first 0 1 13 3 2.115 1.11999726295471 0 1 -1 0 0.007256428 0.007556807 0.00691786 0.006555337 0.00598547 1000 0.02009026 0.02041495 0.02021756 0.02011336 0.02012096 1000 0.006034131 0.006349042 0.006449491 0.007506839 0.007355904 1000 0.0209815 0.02112938 0.006449491 0.0214475 0.02102365 1000
lala 14 0.01875 1 second 0 1 14 3 2.13375 0.519997835159302 0 1 1 0 0.00673175 0.006232554 0.005768429 0.006216716 0.007418371 1000 0.02039219 0.02085347 0.02161703 0.02139448 0.02116245 1000 0.006991335 0.006925663 0.006221021 0.005982641 0.005647777 1000 0.02127469 0.02141915 0.006221021 0.02160044 0.02174484 1000
lala 15 0.009375 1 first 0 1 15 3 2.124375 0.559997797012329 0 1 1 0 0.0008071379 0.0008577362 0.000463639 0.0006136483 0.0002813503 1000 0.02239988 0.02277102 0.02219241 0.02234315 0.02277141 1000 0.001118386 0.001645766 0.002810357 0.002487659 0.002183796 1000 0.02405784 0.02390462 0.002810357 0.02366551 0.02397251 1000
lala 16 0.009375 1 first 0 1 16 3 2.115 0.459997892379761 0 1 1 0 0.001371853 0.001692238 0.002267792 0.003177777 0.002734313 1000 0.02417018 0.02393455 0.02421302 0.02434536 0.02367107 1000 0.002436424 0.001474665 0.00190651 0.002191378 0.00287253 1000 0.02430973 0.02426888 0.00190651 0.02462437 0.02453612 1000
lala 17 0.009375 1 first 0 1 17 3 2.105625 0.859997510910034 0 1 1 1 0.002210591 0.002505666 0.00267912 0.002045328 0.0009347449 1000 0.02569214 0.02585592 0.0259766 0.02535272 0.02527252 1000 0.0006684923 0.001381899 0.00165773 0.00166653 0.001414781 1000 0.02536337 0.02533086 0.00165773 0.02560531 0.02501096 1000
lala 18 0.01875 1 first 0 1 18 3 2.086875 1.11999726295471 0 1 1 1 -7.620925E-05 0.0002612142 0.0003851189 0.0002429626 -0.0003749285 1000 0.02445134 0.02421091 0.02383887 0.0239671 0.02429775 1000 -0.0003104118 2.08643E-05 0.0007094292 0.000336176 0.0001951359 1000 0.02339511 0.02342633 0.0007094292 0.0235024 0.02347563 1000
lala 19 0.0375 0 first 0 1 19 3 2.049375 0.419997930526733 0 1 -1 0 -0.000578369 -0.0003972615 -0.0001381627 0.0007656291 0.001014362 1000 0.02234521 0.02223689 0.02243589 0.02218558 0.02195791 1000 0.0005235079 -7.209432E-05 -0.0001080636 -0.0006362253 -0.0004094946 1000 0.02315398 0.02291674 -0.0001080636 0.02326228 0.02329063 1000
lala 20 0.01875 1 second 0 1 20 3 2.068125 0.319998025894165 0 1 1 1 0.0002569261 -0.000114419 -0.0007221482 -0.0008302377 -0.001087301 1000 0.0199715 0.02098457 0.0211122 0.02134923 0.02150378 1000 -0.0003711871 -0.000818421 -0.000907573 -0.001568498 -0.001824686 1000 0.02111279 0.02091743 -0.000907573 0.02143824 0.02156436 1000
lala 21 0.009375 1 second 0 1 21 3 2.05875 1.13999724388123 0 1 1 1 -0.002018324 -0.001784893 -0.001090625 -0.0004834131 -0.0002932763 1000 0.02161408 0.02145097 0.02158076 0.02131682 0.0212951 1000 -0.0008396423 -0.001269044 -0.0009835389 -0.0004643138 2.027561E-05 1000 0.02211108 0.02266351 -0.0009835389 0.02247007 0.02273828 1000
lala 22 0.009375 1 first 0 1 22 3 2.049375 1.25999712944031 0 1 1 1 -0.0003499768 -9.637242E-05 -0.0005574749 -0.0005971873 -0.001157141 1000 0.02172177 0.02188101 0.02190239 0.02182453 0.02192853 1000 -0.000770617 -0.0005596987 -0.0002292864 6.097794E-05 -0.0006016318 1000 0.02075132 0.02081522 -0.0002292864 0.02108795 0.02052424 1000
lala 23 0.009375 1 second 0 1 23 3 2.04 1.01999735832214 0 1 1 1 -0.001101192 -0.00142302 -0.001196141 -0.0006617341 -0.0001938833 1000 0.02031023 0.02081502 0.02072292 0.02061882 0.02063287 1000 -0.00159326 -0.001798228 -0.001982605 -0.001249222 -0.0004005668 1000 0.0212295 0.02182542 -0.001982605 0.02132228 0.0208646 1000
lala 24 0.01875 1 first 0 1 24 3 2.02125 0.559997797012329 0 1 1 0 0.003913046 0.005256179 0.005558875 0.006179684 0.007129562 1000 0.01651265 0.01545712 0.01521122 0.0146465 0.01541787 1000 0.007279142 0.007591849 0.008312418 0.008445411 0.008308613 1000 0.01521633 0.01515406 0.008312418 0.01422579 0.013913 1000
lala 25 0.0375 1 second 0 1 25 3 1.98375 0.699997663497925 0 1 1 0 0.0112931 0.0119457 0.01268742 0.01294973 0.01236953 1000 0.009756989 0.01040608 0.01074576 0.01072438 0.01046664 1000 0.01230943 0.01160281 0.01163318 0.01192409 0.01324764 1000 0.01206409 0.01227545 0.01163318 0.01179087 0.01176583 1000
lala 26 0.075 0 second 0 1 26 3 1.90875 0.479997873306274 0 1 -1 0 0.01263358 0.01277926 0.01255091 0.01316119 0.0134117 1000 0.01055687 0.01123222 0.01179635 0.01151519 0.01130804 1000 0.01323568 0.0134956 0.01302742 0.01321841 0.01362378 1000 0.0108705 0.01086176 0.01302742 0.01118777 0.01064342 1000
