subject PestNr Step_Size_OnTrial Pest_Faster Pest_Interval Condition block trial velH velH_Pest Reaction_Time velH_Subject Start_Above Response_MotionEstimation RightOrLeftxRotations_first0 xRotations_first1 xRotations_first2 xRotations_first3 xRotations_first4 xRotations_first5 yRotations_first0 yRotations_first1 yRotations_first2 yRotations_first3 yRotations_first4 yRotations_first5 xRotations_second0 xRotations_second1 xRotations_second2 xRotations_second3 xRotations_second4 xRotations_second5 yRotations_second0 yRotations_second1 yRotations_second2 yRotations_second3 yRotations_second4 yRotations_second5
lala 1 1.2 1 second 13 1 1 4 5.32 0.359997987747192 0 1 1 1 0.02086917 0.02263601 0.02277436 0.02203261 0.02228824 1000 0.02086917 0.02263601 0.02277436 0.02203261 0.02228824 1000 0.02186299 0.02287228 0.02237447 0.02207025 0.02170343 1000 0.02186299 0.02287228 0.02237447 0.02207025 0.02170343 1000
lala 1 1.2 1 second 15 1 2 5 6.65 0.579997777938843 0 1 1 0 0.02309969 0.02267492 0.02330061 0.0233389 0.02364883 1000 0.02309969 0.02267492 0.02330061 0.0233389 0.02364883 1000 0.02341282 0.02317572 0.02363925 0.023434 0.02296898 1000 0.02341282 0.02317572 0.02363925 0.023434 0.02296898 1000
lala 1 1.2 0 first 8 1 3 5 3.3 0.799997568130493 1 0 -1 0 0.02261121 0.02088617 0.02190193 1000 1000 1000 0.02261121 0.02088617 0.02190193 1000 1000 1000 0.02298443 0.02291871 0.0228952 0.02260691 0.02237721 1000 0.02298443 0.02291871 0.0228952 0.02260691 0.02237721 1000
lala 1 1.2 1 second 5 1 4 6 7.98 0.579997777938843 -1 1 1 0 0.0207143 0.01992367 0.0193071 0.01951082 0.01982367 1000 0.0207143 0.01992367 0.0193071 0.01951082 0.01982367 1000 0.02050596 0.02080549 0.02050511 0.0204556 0.01995196 1000 0.02050596 0.02080549 0.02050511 0.0204556 0.01995196 1000
lala 1 1.2 1 second 9 1 5 5 6.65 0.199998140335083 1 1 1 1 0.01948458 0.01959608 0.02044455 0.0207104 0.02023134 1000 0.01948458 0.01959608 0.02044455 0.0207104 0.02023134 1000 0.02118175 0.02083223 0.02036011 0.0193795 0.01931749 1000 0.02118175 0.02083223 0.02036011 0.0193795 0.01931749 1000
lala 2 1.2 1 first 15 1 6 5 5.45 0.519997835159302 0 1 1 1 0.01912948 0.01838432 0.01860969 1000 1000 1000 0.01912948 0.01838432 0.01860969 1000 1000 1000 0.0184169 0.01869033 0.01917522 0.0194338 0.01881899 1000 0.0184169 0.01869033 0.01917522 0.0194338 0.01881899 1000
lala 2 1.2 1 second 8 1 7 5 4.5 0.439997911453247 1 0 1 1 0.0181849 0.01729574 0.01701637 0.01676345 0.01659983 1000 0.0181849 0.01729574 0.01701637 0.01676345 0.01659983 1000 0.01663064 0.01692317 0.01634055 0.01601093 0.0153386 1000 0.01663064 0.01692317 0.01634055 0.01601093 0.0153386 1000
lala 2 1.2 0 second 5 1 8 6 6.780001 1.97999668121338 -1 1 -1 0 0.01600244 0.01611635 0.01633687 0.01732814 0.01697213 1000 0.01600244 0.01611635 0.01633687 0.01732814 0.01697213 1000 0.0165756 0.01614622 0.0164498 0.01716583 0.01773267 1000 0.0165756 0.01614622 0.0164498 0.01716583 0.01773267 1000
lala 1 1.2 1 second 11 1 9 6 7.98 0.379997968673706 1 1 1 1 0.01621119 0.01651547 0.01692771 0.01699989 0.01703725 1000 0.01621119 0.01651547 0.01692771 0.01699989 0.01703725 1000 0.01636225 0.01604448 0.01563334 0.01571746 0.01614287 1000 0.01636225 0.01604448 0.01563334 0.01571746 0.01614287 1000
lala 2 1.2 1 second 11 1 10 6 6.780001 0.499997854232788 1 1 1 0 0.0162786 0.01648379 0.01664285 0.0169457 0.01687665 1000 0.0162786 0.01648379 0.01664285 0.0169457 0.01687665 1000 0.01575992 0.0155802 0.01638818 0.01683928 0.01759182 1000 0.01575992 0.0155802 0.01638818 0.01683928 0.01759182 1000
lala 1 1.2 1 second 3 1 11 5 6.65 0.339998006820679 -1 1 1 1 0.01661722 0.01670478 0.01681327 0.01630912 0.01588239 1000 0.01661722 0.01670478 0.01681327 0.01630912 0.01588239 1000 0.01581502 0.01650344 0.01671712 0.01609759 0.01593589 1000 0.01581502 0.01650344 0.01671712 0.01609759 0.01593589 1000
lala 1 1.2 0 second 16 1 12 6 3.96 0.939997434616089 0 0 -1 0 0.01652439 0.01601335 0.0158053 0.01619538 0.0160762 1000 0.01652439 0.01601335 0.0158053 0.01619538 0.0160762 1000 0.01427189 0.01403489 0.01475773 0.01462971 0.01493222 1000 0.01427189 0.01403489 0.01475773 0.01462971 0.01493222 1000
lala 3 1.2 0 second 8 1 13 5 3.3 1.43999695777893 1 0 -1 0 0.0156821 0.01530337 0.01553274 0.01613007 0.01615284 1000 0.0156821 0.01530337 0.01553274 0.01613007 0.01615284 1000 0.01492477 0.01479794 0.01469291 0.01372946 0.01436522 1000 0.01492477 0.01479794 0.01469291 0.01372946 0.01436522 1000
lala 1 1.2 1 first 14 1 14 5 3.3 0.719997644424438 0 0 1 1 0.01476591 0.01448446 0.01452696 1000 1000 1000 0.01476591 0.01448446 0.01452696 1000 1000 1000 0.01370096 0.01353965 0.01310352 0.01293552 0.01250249 1000 0.01370096 0.01353965 0.01310352 0.01293552 0.01250249 1000
lala 4 1.2 0 first 8 1 15 5 4.5 0.779997587203979 1 0 -1 0 0.01414435 0.01233193 0.0122664 1000 1000 1000 0.01414435 0.01233193 0.0122664 1000 1000 1000 0.01213762 0.0120848 0.01216542 0.01221301 0.01182018 1000 0.01213762 0.0120848 0.01216542 0.01221301 0.01182018 1000
lala 1 1.2 1 first 1 1 16 4 5.32 1.79999685287476 -1 1 1 0 0.01178147 0.01091343 0.009957755 1000 1000 1000 0.01178147 0.01091343 0.009957755 1000 1000 1000 0.009905146 0.01016084 0.01068597 0.01020446 0.00983064 1000 0.009905146 0.01016084 0.01068597 0.01020446 0.00983064 1000
lala 1 1.2 0 second 2 1 17 5 3.3 0.579997777938843 -1 0 -1 1 0.004353538 0.0040052 0.00420569 0.004430261 0.004953566 1000 0.004353538 0.0040052 0.00420569 0.004430261 0.004953566 1000 0.00585953 0.006029443 0.005865633 0.006008659 0.00657857 1000 0.00585953 0.006029443 0.005865633 0.006008659 0.00657857 1000
lala 1 1.2 1 first 17 1 18 6 7.98 0.979997396469116 0 1 1 1 0.007615379 0.006623085 0.006202402 1000 1000 1000 0.007615379 0.006623085 0.006202402 1000 1000 1000 0.007140597 0.008092572 0.007739204 0.006664701 0.005739533 1000 0.007140597 0.008092572 0.007739204 0.006664701 0.005739533 1000
lala 1 1.2 0 second 12 1 19 4 2.64 0.639997720718384 0 0 -1 1 0.007570518 0.00678951 0.005949289 0.007341009 0.007378119 1000 0.007570518 0.00678951 0.005949289 0.007341009 0.007378119 1000 0.006767664 0.006317371 0.005658184 0.005641238 0.006124171 1000 0.006767664 0.006317371 0.005658184 0.005641238 0.006124171 1000
lala 3 1.2 1 second 15 1 20 5 4.25 0.499997854232788 0 1 1 0 0.007492642 0.007411127 0.006895668 0.006197853 0.006029281 1000 0.007492642 0.007411127 0.006895668 0.006197853 0.006029281 1000 0.006435282 0.007005529 0.00709445 0.006135209 0.005502946 1000 0.006435282 0.007005529 0.00709445 0.006135209 0.005502946 1000
lala 4 1.2 0 second 15 1 21 5 3.05 0.579997777938843 0 1 -1 1 0.005920745 0.00529318 0.00592675 0.006642085 0.007695124 1000 0.005920745 0.00529318 0.00592675 0.006642085 0.007695124 1000 0.005981613 0.005346667 0.005498489 0.005876317 0.006541683 1000 0.005981613 0.005346667 0.005498489 0.005876317 0.006541683 1000
lala 3 1.2 0 first 11 1 22 6 5.580001 1.65999698638916 1 1 -1 0 0.005299005 0.005228398 0.005805844 1000 1000 1000 0.005299005 0.005228398 0.005805844 1000 1000 1000 0.006969559 0.006317792 0.006206228 0.005756657 0.005952667 1000 0.006969559 0.006317792 0.006206228 0.005756657 0.005952667 1000
lala 1 1.2 1 first 7 1 23 4 5.32 0.599997758865356 1 1 1 0 0.006649947 0.00681871 0.006083346 1000 1000 1000 0.006649947 0.00681871 0.006083346 1000 1000 1000 0.005520735 0.00554703 0.00480277 0.005475605 0.005710333 1000 0.005520735 0.00554703 0.00480277 0.005475605 0.005710333 1000
lala 3 1.2 1 first 5 1 24 6 7.98 0.659997701644897 -1 1 1 0 0.006198515 0.005603898 0.004798471 1000 1000 1000 0.006198515 0.005603898 0.004798471 1000 1000 1000 0.005204403 0.006067519 0.006250384 0.00591005 0.005395358 1000 0.005204403 0.006067519 0.006250384 0.00591005 0.005395358 1000
lala 2 1.2 1 first 3 1 25 5 5.45 0.979997396469116 -1 1 1 1 0.006148284 0.006144125 0.004556152 1000 1000 1000 0.006148284 0.006144125 0.004556152 1000 1000 1000 0.007083903 0.007844511 0.008886568 0.00829226 0.007935175 1000 0.007083903 0.007844511 0.008886568 0.00829226 0.007935175 1000
lala 5 1.2 1 first 15 1 26 5 4.25 0.659997701644897 0 1 1 1 0.008151668 0.008539106 0.008064422 1000 1000 1000 0.008151668 0.008539106 0.008064422 1000 1000 1000 0.008926966 0.009005871 0.008658091 0.008582992 0.007917309 1000 0.008926966 0.009005871 0.008658091 0.008582992 0.007917309 1000
lala 6 1.2 0 first 15 1 27 5 3.05 0.519997835159302 0 1 -1 1 0.01057594 0.009506271 0.008798 1000 1000 1000 0.01057594 0.009506271 0.008798 1000 1000 1000 0.009068659 0.009032916 0.009421805 0.008940122 0.008549999 1000 0.009068659 0.009032916 0.009421805 0.008940122 0.008549999 1000
lala 2 1.2 0 first 2 1 28 5 4.5 0.99999737739563 -1 0 -1 0 0.01027737 0.009630755 0.00906161 1000 1000 1000 0.01027737 0.009630755 0.00906161 1000 1000 1000 0.008156355 0.008629444 0.008888257 0.009795099 0.009340771 1000 0.008156355 0.008629444 0.008888257 0.009795099 0.009340771 1000
lala 1 1.2 0 second 0 1 29 4 2.64 0.759997606277466 -1 0 -1 1 0.01156933 0.01180005 0.01118153 0.009963614 0.009945079 1000 0.01156933 0.01180005 0.01118153 0.009963614 0.009945079 1000 0.009283896 0.008752696 0.008621918 0.008262364 0.008459287 1000 0.009283896 0.008752696 0.008621918 0.008262364 0.008459287 1000
lala 5 1.2 1 first 8 1 30 5 5.7 0.859997510910034 1 0 1 0 0.009190636 0.00938559 0.009593766 1000 1000 1000 0.009190636 0.00938559 0.009593766 1000 1000 1000 0.01039206 0.0094011 0.009003748 0.009039943 0.009975051 1000 0.01039206 0.0094011 0.009003748 0.009039943 0.009975051 1000
lala 1 1.2 1 first 4 1 31 6 3.96 2.81999588012695 -1 0 1 0 0.01038758 0.01069057 0.01023247 1000 1000 1000 0.01038758 0.01069057 0.01023247 1000 1000 1000 0.009137742 0.00862636 0.009352857 0.01033769 0.0111963 1000 0.009137742 0.00862636 0.009352857 0.01033769 0.0111963 1000
lala 1 1.2 1 second 10 1 32 6 3.96 0.879997491836548 1 0 1 0 0.007998751 0.007999927 0.008762316 0.0107545 0.01215937 1000 0.007998751 0.007999927 0.008762316 0.0107545 0.01215937 1000 0.008451534 0.00759175 0.007874098 0.008477692 0.009545531 1000 0.008451534 0.00759175 0.007874098 0.008477692 0.009545531 1000
lala 2 1.2 0 first 10 1 33 6 2.76 0.519997835159302 1 0 -1 1 0.008836175 0.008600966 0.007598652 1000 1000 1000 0.008836175 0.008600966 0.007598652 1000 1000 1000 0.008259758 0.009124452 0.009378903 0.009033776 0.008325455 1000 0.008259758 0.009124452 0.009378903 0.009033776 0.008325455 1000
lala 2 1.2 0 first 14 1 34 5 2.1 0.659997701644897 0 0 -1 0 0.008212456 0.007802044 0.007511819 1000 1000 1000 0.008212456 0.007802044 0.007511819 1000 1000 1000 0.006920551 0.006544109 0.006616703 0.007179424 0.007620614 1000 0.006920551 0.006544109 0.006616703 0.007179424 0.007620614 1000
lala 6 1.2 0 first 8 1 35 5 4.5 0.879997491836548 1 0 -1 0 0.007898265 0.006650952 0.007512273 1000 1000 1000 0.007898265 0.006650952 0.007512273 1000 1000 1000 0.006765068 0.007198728 0.006979908 0.007050023 0.006328647 1000 0.006765068 0.007198728 0.006979908 0.007050023 0.006328647 1000
lala 3 1.2 1 second 10 1 36 6 3.96 2.03999662399292 1 0 1 1 0.006598827 0.005873387 0.005940626 0.00646207 0.006495582 1000 0.006598827 0.005873387 0.005940626 0.00646207 0.006495582 1000 0.006529111 0.005694351 0.005109114 0.004597092 0.005440798 1000 0.006529111 0.005694351 0.005109114 0.004597092 0.005440798 1000
lala 2 1.2 0 first 4 1 37 6 2.76 0.39999794960022 -1 0 -1 0 0.007206309 0.005944764 0.005187725 1000 1000 1000 0.007206309 0.005944764 0.005187725 1000 1000 1000 0.006360835 0.006726047 0.007610109 0.006903095 0.006315507 1000 0.006360835 0.006726047 0.007610109 0.006903095 0.006315507 1000
lala 7 1.2 1 second 15 1 38 5 4.25 0.959997415542603 0 1 1 1 0.00632185 0.005862834 0.005684271 0.005816035 0.006381954 1000 0.00632185 0.005862834 0.005684271 0.005816035 0.006381954 1000 0.003624416 0.003110771 0.002129139 0.003178397 0.004088914 1000 0.003624416 0.003110771 0.002129139 0.003178397 0.004088914 1000
lala 3 1.2 1 first 14 1 39 5 3.3 1.97999668121338 0 0 1 0 0.003004074 0.001377814 0.0006152933 1000 1000 1000 0.003004074 0.001377814 0.0006152933 1000 1000 1000 0.002690161 0.003744049 0.003543243 0.003772019 0.003165817 1000 0.002690161 0.003744049 0.003543243 0.003772019 0.003165817 1000
lala 7 1.2 0 first 8 1 40 5 5.7 0.639997720718384 1 0 -1 1 0.003418987 0.002915998 0.003483905 1000 1000 1000 0.003418987 0.002915998 0.003483905 1000 1000 1000 0.003854235 0.004214392 0.003410237 0.003595988 0.004023486 1000 0.003854235 0.004214392 0.003410237 0.003595988 0.004023486 1000
lala 4 1.2 0 first 10 1 41 6 2.76 0.599997758865356 1 0 -1 0 0.002611972 0.002791887 0.004217747 1000 1000 1000 0.002611972 0.002791887 0.004217747 1000 1000 1000 0.00144374 0.0008159326 0.0009639888 0.001772998 0.002154789 1000 0.00144374 0.0008159326 0.0009639888 0.001772998 0.002154789 1000
lala 2 1.2 1 first 0 1 42 4 3.84 0.679997682571411 -1 0 1 1 0.003960028 0.003839997 0.004770027 1000 1000 1000 0.003960028 0.003839997 0.004770027 1000 1000 1000 0.0004719819 0.0001654025 -0.0001802215 0.0004152191 0.001024346 1000 0.0004719819 0.0001654025 -0.0001802215 0.0004152191 0.001024346 1000
lala 4 1.2 1 first 11 1 43 6 6.780001 0.419997930526733 1 1 1 1 0.002977627 0.002729814 0.002556173 1000 1000 1000 0.002977627 0.002729814 0.002556173 1000 1000 1000 0.002334977 0.001929665 0.002639796 0.002834825 0.003415923 1000 0.002334977 0.001929665 0.002639796 0.002834825 0.003415923 1000
lala 3 1.2 1 second 2 1 44 5 5.7 0.599997758865356 -1 0 1 1 0.003451421 0.002594566 0.002486745 0.002960616 0.003640121 1000 0.003451421 0.002594566 0.002486745 0.002960616 0.003640121 1000 0.003952823 0.003562615 0.002877216 0.002629489 0.002326781 1000 0.003952823 0.003562615 0.002877216 0.002629489 0.002326781 1000
lala 1 1.2 0 first 6 1 45 4 2.64 0.419997930526733 1 0 -1 0 0.001828371 0.001446136 0.002412388 1000 1000 1000 0.001828371 0.001446136 0.002412388 1000 1000 1000 0.003900939 0.003011598 0.002820083 0.002793579 0.002714291 1000 0.003900939 0.003011598 0.002820083 0.002793579 0.002714291 1000
lala 3 1.2 0 second 0 1 46 4 2.64 0.979997396469116 -1 0 -1 0 0.00280481 0.002736733 0.002927237 0.002085941 0.002341441 1000 0.00280481 0.002736733 0.002927237 0.002085941 0.002341441 1000 0.001543388 0.001886311 0.002659903 0.002197201 0.001762383 1000 0.001543388 0.001886311 0.002659903 0.002197201 0.001762383 1000
lala 4 1.2 0 first 14 1 47 5 2.1 0.699997663497925 0 0 -1 0 0.001431562 0.001202666 0.001700855 1000 1000 1000 0.001431562 0.001202666 0.001700855 1000 1000 1000 0.0005066339 -0.0003191757 -0.0005112332 -0.001209661 -0.0004226907 1000 0.0005066339 -0.0003191757 -0.0005112332 -0.001209661 -0.0004226907 1000
lala 4 1.2 1 second 0 1 48 4 3.84 0.379997968673706 -1 0 1 1 0.0005084591 -0.0002621301 -0.000346659 0.0005291962 0.0005144257 1000 0.0005084591 -0.0002621301 -0.000346659 0.0005291962 0.0005144257 1000 -0.001192386 -0.001606998 -0.0004647365 0.0001522921 -0.0009139956 1000 -0.001192386 -0.001606998 -0.0004647365 0.0001522921 -0.0009139956 1000
lala 5 1.2 0 first 10 1 49 6 3.96 0.39999794960022 1 0 -1 0 -0.002422916 -0.002184453 -0.00212887 1000 1000 1000 -0.002422916 -0.002184453 -0.00212887 1000 1000 1000 -0.0008912072 -0.0006179795 -0.0008161388 -0.0008376283 -0.001195131 1000 -0.0008912072 -0.0006179795 -0.0008161388 -0.0008376283 -0.001195131 1000
lala 4 1.2 0 first 2 1 50 5 4.5 0.379997968673706 -1 0 -1 1 -0.0002427633 -0.001993318 -0.002129685 -0.002840116 -0.003172065 -0.002423169 -0.0002427633 -0.001993318 -0.002129685 -0.002840116 -0.003172065 -0.002423169 -0.00297997 -0.003529289 -0.003633729 -0.003160444 -0.002149116 1000 -0.00297997 -0.003529289 -0.003633729 -0.003160444 -0.002149116 1000
lala 5 1.2 0 second 0 1 51 4 2.64 0.279998064041138 -1 0 -1 1 -0.000572064 -0.0003376682 -0.0005276383 -0.0007305949 -0.001730508 1000 -0.000572064 -0.0003376682 -0.0005276383 -0.0007305949 -0.001730508 1000 -0.002322481 -0.001678457 -0.002160065 -0.002498449 -0.003087555 1000 -0.002322481 -0.001678457 -0.002160065 -0.002498449 -0.003087555 1000
lala 5 1.2 0 first 2 1 52 5 5.7 0.339998006820679 -1 0 -1 1 -0.003495125 -0.003430663 -0.00282234 1000 1000 1000 -0.003495125 -0.003430663 -0.00282234 1000 1000 1000 -0.002072836 -0.002378096 -0.002419571 -0.003041259 -0.003129405 1000 -0.002072836 -0.002378096 -0.002419571 -0.003041259 -0.003129405 1000
lala 2 1.2 1 first 13 1 53 4 4.12 0.359997987747192 0 1 1 1 -0.002678455 -0.001798821 -0.002113411 1000 1000 1000 -0.002678455 -0.001798821 -0.002113411 1000 1000 1000 -0.003149791 -0.003470709 -0.003417968 -0.002985828 -0.002125187 1000 -0.003149791 -0.003470709 -0.003417968 -0.002985828 -0.002125187 1000
lala 3 1.2 0 first 13 1 54 4 2.92 0.279998064041138 0 1 -1 0 -0.00125876 -0.001796455 -0.002704025 1000 1000 1000 -0.00125876 -0.001796455 -0.002704025 1000 1000 1000 -0.00312887 -0.002166959 -0.002052328 -0.002355541 -0.002820602 1000 -0.00312887 -0.002166959 -0.002052328 -0.002355541 -0.002820602 1000
lala 4 1.2 0 second 5 1 55 6 6.780001 1.27999711036682 -1 1 -1 1 -0.002564455 -0.002846164 -0.003515406 -0.003046432 -0.002522734 1000 -0.002564455 -0.002846164 -0.003515406 -0.003046432 -0.002522734 1000 -0.001757678 -0.002204771 -0.002578195 -0.002771506 -0.002487574 1000 -0.001757678 -0.002204771 -0.002578195 -0.002771506 -0.002487574 1000
lala 8 1.2 1 second 8 1 56 5 6.9 0.339998006820679 1 0 1 1 0.005829196 0.004072862 0.004009278 0.004840714 0.007202157 1000 0.005829196 0.004072862 0.004009278 0.004840714 0.007202157 1000 0.005954423 0.006671094 0.007317784 0.007882196 0.007497928 1000 0.005954423 0.006671094 0.007317784 0.007882196 0.007497928 1000
lala 5 1.2 1 second 14 1 57 5 3.3 0.39999794960022 0 0 1 0 0.008292153 0.007598713 0.007426564 0.007313031 0.008032936 1000 0.008292153 0.007598713 0.007426564 0.007313031 0.008032936 1000 0.009112625 0.00961926 0.0089392 0.008666233 0.0093317 1000 0.009112625 0.00961926 0.0089392 0.008666233 0.0093317 1000
lala 3 1.2 0 second 3 1 58 5 4.25 0.419997930526733 -1 1 -1 0 0.006565119 0.007121349 0.007870195 0.007544263 0.007748479 1000 0.006565119 0.007121349 0.007870195 0.007544263 0.007748479 1000 0.005979541 0.005978916 0.006125198 0.006523325 0.005737504 1000 0.005979541 0.005978916 0.006125198 0.006523325 0.005737504 1000
lala 4 1.2 1 first 3 1 59 5 5.45 0.499997854232788 -1 1 1 1 0.004836358 0.005005895 0.006400102 1000 1000 1000 0.004836358 0.005005895 0.006400102 1000 1000 1000 0.008242797 0.006939029 0.007647139 0.009293436 0.009590331 1000 0.008242797 0.006939029 0.007647139 0.009293436 0.009590331 1000
lala 5 1.2 0 second 11 1 60 6 5.580001 0.359997987747192 1 1 -1 0 0.00955095 0.009313094 0.008853238 0.007577165 0.007095479 1000 0.00955095 0.009313094 0.008853238 0.007577165 0.007095479 1000 0.001125181 0.001882782 0.002141272 0.002381787 0.001917206 1000 0.001125181 0.001882782 0.002141272 0.002381787 0.001917206 1000
lala 5 1.2 0 second 5 1 61 6 7.98 0.259998083114624 -1 1 -1 0 0.004969518 0.004147698 0.002644492 0.002297766 0.001688997 1000 0.004969518 0.004147698 0.002644492 0.002297766 0.001688997 1000 0.0006651942 0.0002083753 0.000216823 -0.0004050364 -0.000246759 1000 0.0006651942 0.0002083753 0.000216823 -0.0004050364 -0.000246759 1000
lala 2 1.2 1 first 17 1 62 6 6.780001 0.339998006820679 0 1 1 1 0.001017366 0.001929701 0.002259563 1000 1000 1000 0.001017366 0.001929701 0.002259563 1000 1000 1000 0.001267439 0.001960188 0.001878558 0.002580397 0.003053083 1000 0.001267439 0.001960188 0.001878558 0.002580397 0.003053083 1000
lala 3 1.2 0 second 4 1 63 6 3.96 0.599997758865356 -1 0 -1 0 0.001809584 0.002179617 0.001709331 0.00110901 0.001533064 1000 0.001809584 0.002179617 0.001709331 0.00110901 0.001533064 1000 -0.004348563 -0.003199635 -0.002367418 -0.001396506 -0.001590097 1000 -0.004348563 -0.003199635 -0.002367418 -0.001396506 -0.001590097 1000
lala 4 1.2 0 second 4 1 64 6 5.16 0.339998006820679 -1 0 -1 0 -0.002804729 -0.002646028 -0.002382713 -0.001549131 -0.0016261 1000 -0.002804729 -0.002646028 -0.002382713 -0.001549131 -0.0016261 1000 -0.002466575 -0.002973932 -0.003034647 -0.002356457 -0.001999161 1000 -0.002466575 -0.002973932 -0.003034647 -0.002356457 -0.001999161 1000
lala 3 1.2 1 first 17 1 65 6 5.580001 0.219998121261597 0 1 1 0 -0.002497979 -0.00155077 -0.001643795 1000 1000 1000 -0.002497979 -0.00155077 -0.001643795 1000 1000 1000 -0.001386875 -0.001257843 -0.001469405 -0.002246424 -0.00204028 1000 -0.001386875 -0.001257843 -0.001469405 -0.002246424 -0.00204028 1000
lala 9 1.2 1 second 8 1 66 5 5.7 0.459997892379761 1 0 1 0 -0.001493998 -0.001785967 -0.001942176 -0.001329255 -0.0007275966 1000 -0.001493998 -0.001785967 -0.001942176 -0.001329255 -0.0007275966 1000 -0.002756486 -0.003211465 -0.002886694 -0.002168709 -0.00186505 1000 -0.002756486 -0.003211465 -0.002886694 -0.002168709 -0.00186505 1000
lala 6 1.2 1 second 11 1 67 6 6.780001 0.279998064041138 1 1 1 0 -0.00303114 -0.003682031 -0.003872292 -0.003279445 -0.001786502 1000 -0.00303114 -0.003682031 -0.003872292 -0.003279445 -0.001786502 1000 -0.003835597 -0.004183524 -0.003721074 -0.003499444 -0.002701368 1000 -0.003835597 -0.004183524 -0.003721074 -0.003499444 -0.002701368 1000
lala 2 1.2 0 second 1 1 68 4 4.12 0.579997777938843 -1 1 -1 1 -0.002921165 -0.002693284 -0.002527133 -0.002668256 -0.002825117 1000 -0.002921165 -0.002693284 -0.002527133 -0.002668256 -0.002825117 1000 -0.003000168 -0.00379036 -0.004301663 -0.004135806 -0.003876656 1000 -0.003000168 -0.00379036 -0.004301663 -0.004135806 -0.003876656 1000
lala 2 1.2 0 first 6 1 69 4 3.84 0.39999794960022 1 0 -1 1 -0.002028485 -0.002873983 -0.00343018 1000 1000 1000 -0.002028485 -0.002873983 -0.00343018 1000 1000 1000 -0.004065363 -0.003728848 -0.003563357 -0.003014154 -0.003472263 1000 -0.004065363 -0.003728848 -0.003563357 -0.003014154 -0.003472263 1000
lala 6 1.2 0 second 0 1 70 4 3.84 0.179998159408569 -1 0 -1 1 -0.002636281 -0.002799076 -0.003563278 -0.003594436 -0.003464779 1000 -0.002636281 -0.002799076 -0.003563278 -0.003594436 -0.003464779 1000 -0.003868601 -0.004224597 -0.00471187 -0.004567056 -0.003524926 1000 -0.003868601 -0.004224597 -0.00471187 -0.004567056 -0.003524926 1000
lala 4 1.2 0 second 17 1 71 6 4.380001 0.579997777938843 0 1 -1 0 -0.004161816 -0.003941508 -0.003157104 -0.003262011 -0.003247076 1000 -0.004161816 -0.003941508 -0.003157104 -0.003262011 -0.003247076 1000 -0.005112484 -0.004487308 -0.003832178 -0.004422681 -0.004728558 1000 -0.005112484 -0.004487308 -0.003832178 -0.004422681 -0.004728558 1000
lala 5 1.2 0 first 3 1 72 5 4.25 0.23999810218811 -1 1 -1 1 -0.004456578 -0.005136637 -0.005145764 1000 1000 1000 -0.004456578 -0.005136637 -0.005145764 1000 1000 1000 -0.006880848 -0.007332747 -0.006879996 -0.006132381 -0.005425295 1000 -0.006880848 -0.007332747 -0.006879996 -0.006132381 -0.005425295 1000
lala 3 1.2 0 first 6 1 73 4 5.04 0.259998083114624 1 0 -1 0 -0.005778445 -0.006062639 -0.006256294 1000 1000 1000 -0.005778445 -0.006062639 -0.006256294 1000 1000 1000 -0.007284618 -0.006939943 -0.006340113 -0.005637561 -0.006178049 1000 -0.007284618 -0.006939943 -0.006340113 -0.005637561 -0.006178049 1000
lala 6 1.2 1 second 3 1 74 5 5.45 0.219998121261597 -1 1 1 0 -0.005906034 -0.006013383 -0.006656314 -0.007591147 -0.007558083 1000 -0.005906034 -0.006013383 -0.006656314 -0.007591147 -0.007558083 1000 -0.007831881 -0.007794682 -0.007902154 -0.008326754 -0.008320621 1000 -0.007831881 -0.007794682 -0.007902154 -0.008326754 -0.008320621 1000
lala 8 1.2 1 first 15 1 75 5 3.05 0.319998025894165 0 1 1 0 -0.00894854 -0.008322736 -0.008750532 1000 1000 1000 -0.00894854 -0.008322736 -0.008750532 1000 1000 1000 -0.009380346 -0.01000163 -0.00987199 -0.009212036 -0.008427629 1000 -0.009380346 -0.01000163 -0.00987199 -0.009212036 -0.008427629 1000
lala 7 1.2 0 first 3 1 76 5 4.25 0.439997911453247 -1 1 -1 1 -0.008872679 -0.009499458 -0.01102734 1000 1000 1000 -0.008872679 -0.009499458 -0.01102734 1000 1000 1000 -0.009340385 -0.008455399 -0.008557485 -0.008855777 -0.009553553 1000 -0.009340385 -0.008455399 -0.008557485 -0.008855777 -0.009553553 1000
lala 2 1.2 1 first 16 1 77 6 5.16 0.699997663497925 0 0 1 0 -0.008839793 -0.008990381 -0.009126368 1000 1000 1000 -0.008839793 -0.008990381 -0.009126368 1000 1000 1000 -0.01017619 -0.01005446 -0.00915884 -0.009052302 -0.009407974 1000 -0.01017619 -0.01005446 -0.00915884 -0.009052302 -0.009407974 1000
lala 6 1.2 0 second 14 1 78 5 2.1 0.359997987747192 0 0 -1 0 -0.01062191 -0.007358543 -0.0007552735 0.007034125 0.01336357 1000 -0.01062191 -0.007358543 -0.0007552735 0.007034125 0.01336357 1000 -0.00979734 -0.01302153 -0.01607481 -0.01475281 -0.01195919 1000 -0.00979734 -0.01302153 -0.01607481 -0.01475281 -0.01195919 1000
lala 5 1.2 1 first 4 1 79 6 6.36 0.919997453689575 -1 0 1 1 -0.01618815 -0.01580892 -0.01428324 1000 1000 1000 -0.01618815 -0.01580892 -0.01428324 1000 1000 1000 -0.01805471 -0.01788347 -0.01734314 -0.01679745 -0.01766148 1000 -0.01805471 -0.01788347 -0.01734314 -0.01679745 -0.01766148 1000
lala 6 1.2 1 second 5 1 80 6 9.18 0.379997968673706 -1 1 1 1 -0.02777664 -0.03129027 -0.03583219 -0.04218338 -0.0501915 1000 -0.02777664 -0.03129027 -0.03583219 -0.04218338 -0.0501915 1000 -0.03730338 -0.03260151 -0.02989556 -0.02726142 -0.02576011 1000 -0.03730338 -0.03260151 -0.02989556 -0.02726142 -0.02576011 1000
lala 2 1.2 0 second 12 1 81 4 3.84 0.39999794960022 0 0 -1 0 -0.02414403 -0.02378718 -0.02307905 -0.02212532 -0.02201518 1000 -0.02414403 -0.02378718 -0.02307905 -0.02212532 -0.02201518 1000 -0.02230536 -0.02232637 -0.02221067 -0.02142445 -0.02092694 1000 -0.02230536 -0.02232637 -0.02221067 -0.02142445 -0.02092694 1000
lala 8 1.2 1 second 3 1 82 5 5.45 0.379997968673706 -1 1 1 1 -0.02014479 -0.02038593 -0.02052102 -0.0219021 -0.02288019 1000 -0.02014479 -0.02038593 -0.02052102 -0.0219021 -0.02288019 1000 -0.02178691 -0.02229301 -0.02266655 -0.02347673 -0.02388377 1000 -0.02178691 -0.02229301 -0.02266655 -0.02347673 -0.02388377 1000
lala 7 1.2 0 second 5 1 83 6 7.98 0.219998121261597 -1 1 -1 0 -0.02381672 -0.02342962 -0.02375642 -0.02354912 -0.02314425 1000 -0.02381672 -0.02342962 -0.02375642 -0.02354912 -0.02314425 1000 -0.02293484 -0.02334991 -0.0232435 -0.0229286 -0.0225069 1000 -0.02293484 -0.02334991 -0.0232435 -0.0229286 -0.0225069 1000
lala 6 1.2 1 first 2 1 84 5 6.9 0.599997758865356 -1 0 1 0 -0.0232599 -0.02249921 -0.02260339 1000 1000 1000 -0.0232599 -0.02249921 -0.02260339 1000 1000 1000 -0.02138093 -0.0214666 -0.02196498 -0.02193204 -0.02166037 1000 -0.02138093 -0.0214666 -0.02196498 -0.02193204 -0.02166037 1000
lala 10 1.2 1 second 8 1 85 5 4.5 0.0999982357025146 1 0 1 1 -0.02061486 -0.02051321 -0.02076562 -0.0209411 -0.02048713 1000 -0.02061486 -0.02051321 -0.02076562 -0.0209411 -0.02048713 1000 -0.0209364 -0.02087351 -0.02115158 -0.0213105 -0.02189778 1000 -0.0209364 -0.02087351 -0.02115158 -0.0213105 -0.02189778 1000
lala 3 1.2 1 first 12 1 86 4 5.04 0.159998178482056 0 0 1 1 -0.02206966 -0.02180436 -0.0221157 1000 1000 1000 -0.02206966 -0.02180436 -0.0221157 1000 1000 1000 -0.02045 -0.0208032 -0.0207333 -0.0213101 -0.02175338 1000 -0.02045 -0.0208032 -0.0207333 -0.0213101 -0.02175338 1000
lala 7 1.2 0 first 11 1 87 6 5.580001 0.39999794960022 1 1 -1 0 -0.02067555 -0.02120607 -0.02170075 1000 1000 1000 -0.02067555 -0.02120607 -0.02170075 1000 1000 1000 -0.02119989 -0.02092749 -0.01996459 -0.01971869 -0.01988739 1000 -0.02119989 -0.02092749 -0.01996459 -0.01971869 -0.01988739 1000
lala 8 1.2 1 first 5 1 88 6 9.18 0.279998064041138 -1 1 1 0 -0.02038511 -0.02054623 -0.02028224 1000 1000 1000 -0.02038511 -0.02054623 -0.02028224 1000 1000 1000 -0.01986544 -0.01895834 -0.0191128 -0.0191684 -0.0200781 1000 -0.01986544 -0.01895834 -0.0191128 -0.0191684 -0.0200781 1000
lala 4 1.2 0 first 13 1 89 4 4.12 0.139998197555542 0 1 -1 0 -0.01928907 -0.01907943 -0.01869342 1000 1000 1000 -0.01928907 -0.01907943 -0.01869342 1000 1000 1000 -0.01950733 -0.01911666 -0.01952423 -0.01964227 -0.01905981 1000 -0.01950733 -0.01911666 -0.01952423 -0.01964227 -0.01905981 1000
lala 9 1.2 0 second 15 1 90 5 1.85 0.439997911453247 0 1 -1 0 -0.01823953 -0.01883444 -0.01924475 -0.01923276 -0.01826487 1000 -0.01823953 -0.01883444 -0.01924475 -0.01923276 -0.01826487 1000 -0.01942227 -0.01885557 -0.01958634 -0.01975533 -0.01953888 1000 -0.01942227 -0.01885557 -0.01958634 -0.01975533 -0.01953888 1000
lala 11 2.4 0 first 8 1 91 5 2.1 0.199998140335083 1 0 -1 0 -0.0190798 -0.01908425 -0.01933354 1000 1000 1000 -0.0190798 -0.01908425 -0.01933354 1000 1000 1000 -0.02095248 -0.02026808 -0.01928006 -0.01888625 -0.01918891 1000 -0.02095248 -0.02026808 -0.01928006 -0.01888625 -0.01918891 1000
lala 2 1.2 0 second 7 1 92 4 4.12 0.339998006820679 1 1 -1 0 -0.01892342 -0.0184775 -0.01912324 -0.01902674 -0.01975549 1000 -0.01892342 -0.0184775 -0.01912324 -0.01902674 -0.01975549 1000 -0.02066552 -0.020077 -0.01943342 -0.01985819 -0.02005325 1000 -0.02066552 -0.020077 -0.01943342 -0.01985819 -0.02005325 1000
lala 4 1.2 1 second 6 1 93 4 6.24 0.079998254776001 1 0 1 0 -0.01926884 -0.01940101 -0.02025828 -0.02047721 -0.02036494 1000 -0.01926884 -0.01940101 -0.02025828 -0.02047721 -0.02036494 1000 -0.02018741 -0.02079123 -0.02097079 -0.02188426 -0.02206088 1000 -0.02018741 -0.02079123 -0.02097079 -0.02188426 -0.02206088 1000
lala 7 1.2 0 second 14 1 94 5 3.3 0.279998064041138 0 0 -1 0 -0.02100177 -0.02090914 -0.02145059 -0.02156154 -0.02099551 1000 -0.02100177 -0.02090914 -0.02145059 -0.02156154 -0.02099551 1000 -0.02042498 -0.02070064 -0.02071645 -0.02137527 -0.02143035 1000 -0.02042498 -0.02070064 -0.02071645 -0.02137527 -0.02143035 1000
lala 9 1.2 0 first 3 1 95 5 4.25 0.159998178482056 -1 1 -1 0 -0.02053729 -0.02004208 -0.01970988 1000 1000 1000 -0.02053729 -0.02004208 -0.01970988 1000 1000 1000 -0.01963874 -0.01955403 -0.01963502 -0.02015601 -0.02066052 1000 -0.01963874 -0.01955403 -0.01963502 -0.02015601 -0.02066052 1000
lala 2 1.2 1 second 9 1 96 5 5.45 0.319998025894165 1 1 1 1 -0.02010391 -0.02015761 -0.0206183 -0.02070162 -0.02118785 1000 -0.02010391 -0.02015761 -0.0206183 -0.02070162 -0.02118785 1000 -0.02235032 -0.02159097 -0.02094172 -0.02102484 -0.02128085 1000 -0.02235032 -0.02159097 -0.02094172 -0.02102484 -0.02128085 1000
lala 6 1.2 1 second 4 1 97 6 5.16 0.479997873306274 -1 0 1 0 -0.02041425 -0.02065637 -0.02146527 -0.02119534 -0.02061041 1000 -0.02041425 -0.02065637 -0.02146527 -0.02119534 -0.02061041 1000 -0.02120764 -0.02126437 -0.02164227 -0.02145443 -0.02101325 1000 -0.02120764 -0.02126437 -0.02164227 -0.02145443 -0.02101325 1000
lala 3 1.2 0 first 16 1 98 6 3.96 0.779997587203979 0 0 -1 0 -0.02057715 -0.02103964 -0.02175524 1000 1000 1000 -0.02057715 -0.02103964 -0.02175524 1000 1000 1000 -0.02273116 -0.02158148 -0.01980668 -0.01932844 -0.01727159 1000 -0.02273116 -0.02158148 -0.01980668 -0.01932844 -0.01727159 1000
lala 8 1.2 1 first 14 1 99 5 4.5 0.179998159408569 0 0 1 0 -0.003649304 -0.005684684 -0.008725724 1000 1000 1000 -0.003649304 -0.005684684 -0.008725724 1000 1000 1000 0.004294644 0.005067491 0.006759914 0.007252594 0.00720444 1000 0.004294644 0.005067491 0.006759914 0.007252594 0.00720444 1000
lala 7 1.2 0 first 4 1 100 6 3.96 0.079998254776001 -1 0 -1 0 -0.005118704 -0.005045183 -0.004398304 -0.00336994 -0.00325533 -0.003709973 -0.005118704 -0.005045183 -0.004398304 -0.00336994 -0.00325533 -0.003709973 -0.00488578 -0.004962883 -0.00422146 -0.003430791 -0.003172967 1000 -0.00488578 -0.004962883 -0.00422146 -0.003430791 -0.003172967 1000
lala 6 1.2 0 second 10 1 101 6 5.16 0.0599982738494873 1 0 -1 0 -0.002719023 -0.002619639 -0.001840738 -0.001993488 -0.002181829 1000 -0.002719023 -0.002619639 -0.001840738 -0.001993488 -0.002181829 1000 -0.003376429 -0.00304862 -0.002431977 -0.00147122 -0.001936878 1000 -0.003376429 -0.00304862 -0.002431977 -0.00147122 -0.001936878 1000
lala 5 1.2 1 first 6 1 102 4 5.04 0.01999831199646 1 0 1 0 -0.001747431 -0.002235973 -0.001847452 1000 1000 1000 -0.001747431 -0.002235973 -0.001847452 1000 1000 1000 -0.002780896 -0.003139064 -0.002812089 -0.002474262 -0.001331561 1000 -0.002780896 -0.003139064 -0.002812089 -0.002474262 -0.001331561 1000
lala 7 1.2 0 first 10 1 103 6 6.36 0.459997892379761 1 0 -1 1 -0.00200577 -0.002541869 -0.001995906 1000 1000 1000 -0.00200577 -0.002541869 -0.001995906 1000 1000 1000 -0.003223523 -0.00333554 -0.003659257 -0.003468022 -0.003220478 1000 -0.003223523 -0.00333554 -0.003659257 -0.003468022 -0.003220478 1000
lala 8 1.2 0 first 4 1 104 6 5.16 0.359997987747192 -1 0 -1 0 -0.002868177 -0.002771043 -0.003357705 1000 1000 1000 -0.002868177 -0.002771043 -0.003357705 1000 1000 1000 -0.004685866 -0.004357535 -0.003905064 -0.003311667 -0.00351447 1000 -0.004685866 -0.004357535 -0.003905064 -0.003311667 -0.00351447 1000
lala 4 1.2 1 first 16 1 105 6 5.16 0.439997911453247 0 0 1 0 -0.004282982 -0.004281822 -0.004311666 1000 1000 1000 -0.004282982 -0.004281822 -0.004311666 1000 1000 1000 -0.004222344 -0.004439911 -0.004742442 -0.005664825 -0.005685516 1000 -0.004222344 -0.004439911 -0.004742442 -0.005664825 -0.005685516 1000
lala 3 1.2 0 first 1 1 106 4 5.32 0.359997987747192 -1 1 -1 0 -0.004492697 -0.005304933 -0.005737396 1000 1000 1000 -0.004492697 -0.005304933 -0.005737396 1000 1000 1000 -0.007461159 -0.007171341 -0.006544283 -0.00611117 -0.006521059 1000 -0.007461159 -0.007171341 -0.006544283 -0.00611117 -0.006521059 1000
lala 8 1.2 0 first 11 1 107 6 6.780001 0.159998178482056 1 1 -1 0 -0.007997384 -0.007786608 -0.006852391 1000 1000 1000 -0.007997384 -0.007786608 -0.006852391 1000 1000 1000 -0.008111938 -0.008023514 -0.008328135 -0.008310833 -0.007950698 1000 -0.008111938 -0.008023514 -0.008328135 -0.008310833 -0.007950698 1000
lala 9 1.2 0 second 14 1 108 5 3.3 0.359997987747192 0 0 -1 1 -0.008082917 -0.008455006 -0.008930021 -0.008735765 -0.008304713 1000 -0.008082917 -0.008455006 -0.008930021 -0.008735765 -0.008304713 1000 -0.008584456 -0.008307856 -0.008399665 -0.008744574 -0.009144397 1000 -0.008584456 -0.008307856 -0.008399665 -0.008744574 -0.009144397 1000
lala 12 1.2 0 second 8 1 109 5 3.3 0.299998044967651 1 0 -1 1 -0.007972576 -0.008225294 -0.008503825 -0.009322999 -0.009430795 1000 -0.007972576 -0.008225294 -0.008503825 -0.009322999 -0.009430795 1000 -0.01001529 -0.009074842 -0.009147109 -0.009056132 -0.009537494 1000 -0.01001529 -0.009074842 -0.009147109 -0.009056132 -0.009537494 1000
lala 10 0.6 0 first 14 1 110 5 3.9 0.179998159408569 0 0 -1 0 -0.01031638 -0.009233841 -0.008062689 1000 1000 1000 -0.01031638 -0.009233841 -0.008062689 1000 1000 1000 -0.007362316 -0.007766302 -0.007539061 -0.006647074 -0.006746341 1000 -0.007362316 -0.007766302 -0.007539061 -0.006647074 -0.006746341 1000
lala 6 1.2 1 second 6 1 111 4 3.84 0.259998083114624 1 0 1 1 -0.007934741 -0.008036123 -0.008533238 -0.009001218 -0.009266834 1000 -0.007934741 -0.008036123 -0.008533238 -0.009001218 -0.009266834 1000 -0.009533896 -0.009299476 -0.009532456 -0.009721401 -0.01020909 1000 -0.009533896 -0.009299476 -0.009532456 -0.009721401 -0.01020909 1000
lala 9 1.2 1 second 5 1 112 6 7.98 0.319998025894165 -1 1 1 1 -0.01003183 -0.01023537 -0.01106791 -0.01075899 -0.009752518 1000 -0.01003183 -0.01023537 -0.01106791 -0.01075899 -0.009752518 1000 -0.009896324 -0.01014256 -0.009949068 -0.01022915 -0.01016361 1000 -0.009896324 -0.01014256 -0.009949068 -0.01022915 -0.01016361 1000
lala 10 0.6 1 second 3 1 113 5 4.85 0.0999982357025146 -1 1 1 1 -0.0127834 -0.01359743 -0.01490111 -0.01385922 -0.01203933 1000 -0.0127834 -0.01359743 -0.01490111 -0.01385922 -0.01203933 1000 -0.009745815 -0.01035936 -0.01071779 -0.009922879 -0.009151597 1000 -0.009745815 -0.01035936 -0.01071779 -0.009922879 -0.009151597 1000
lala 7 1.2 1 first 0 1 114 4 5.04 0.659997701644897 -1 0 1 1 -0.008860877 -0.008078688 -0.008809159 1000 1000 1000 -0.008860877 -0.008078688 -0.008809159 1000 1000 1000 -0.006833057 -0.006631011 -0.006541759 -0.005608615 -0.006071235 1000 -0.006833057 -0.006631011 -0.006541759 -0.005608615 -0.006071235 1000
lala 8 1.2 0 first 10 1 115 6 7.559999 0.259998083114624 1 0 -1 0 -0.006862531 -0.006295555 -0.006824405 1000 1000 1000 -0.006862531 -0.006295555 -0.006824405 1000 1000 1000 -0.007112877 -0.006887793 -0.006415942 -0.005774635 -0.005923066 1000 -0.007112877 -0.006887793 -0.006415942 -0.005774635 -0.005923066 1000
lala 9 1.2 1 second 10 1 116 6 8.759999 0.0999982357025146 1 0 1 1 -0.004933797 -0.005365285 -0.005767366 -0.006251045 -0.006049108 1000 -0.004933797 -0.005365285 -0.005767366 -0.006251045 -0.006049108 1000 -0.005407921 -0.005806808 -0.005750471 -0.006109631 -0.006162941 1000 -0.005407921 -0.005806808 -0.005750471 -0.006109631 -0.006162941 1000
lala 10 1.2 1 second 5 1 117 6 6.780001 0.01999831199646 -1 1 1 1 -0.003650069 -0.003759156 -0.004564808 -0.004778856 -0.004082683 1000 -0.003650069 -0.003759156 -0.004564808 -0.004778856 -0.004082683 1000 -0.004785639 -0.005070144 -0.005587998 -0.005282254 -0.00484073 1000 -0.004785639 -0.005070144 -0.005587998 -0.005282254 -0.00484073 1000
lala 10 0.6 1 second 10 1 118 6 8.159999 0.01999831199646 1 0 1 1 -0.004660228 -0.005267898 -0.006098824 -0.006392207 -0.006266614 1000 -0.004660228 -0.005267898 -0.006098824 -0.006392207 -0.006266614 1000 -0.00678153 -0.006737845 -0.005733532 -0.00464558 -0.004371499 1000 -0.00678153 -0.006737845 -0.005733532 -0.00464558 -0.004371499 1000
lala 5 1.2 1 first 17 1 119 6 5.580001 0.579997777938843 0 1 1 1 -0.004488877 -0.004946832 -0.005232507 1000 1000 1000 -0.004488877 -0.004946832 -0.005232507 1000 1000 1000 -0.00409852 -0.005191838 -0.005017182 -0.004613662 -0.003679686 1000 -0.00409852 -0.005191838 -0.005017182 -0.004613662 -0.003679686 1000
lala 7 1.2 0 first 2 1 120 5 5.7 0.339998006820679 -1 0 -1 1 -0.003494095 -0.00318737 -0.003880161 1000 1000 1000 -0.003494095 -0.00318737 -0.003880161 1000 1000 1000 -0.001373536 -0.0008391246 -0.0008633987 -0.001553396 -0.001843557 1000 -0.001373536 -0.0008391246 -0.0008633987 -0.001553396 -0.001843557 1000
lala 8 1.2 0 second 2 1 121 5 6.9 0.359997987747192 -1 0 -1 0 -0.002302492 -0.002555666 -0.001789362 -0.002252719 -0.002525937 1000 -0.002302492 -0.002555666 -0.001789362 -0.002252719 -0.002525937 1000 -0.004968414 -0.004412248 -0.003739046 -0.004507436 -0.004960507 1000 -0.004968414 -0.004412248 -0.003739046 -0.004507436 -0.004960507 1000
lala 7 1.2 1 second 6 1 122 4 2.64 0.379997968673706 1 0 1 0 -0.004946868 -0.005714659 -0.005828572 -0.005594392 -0.004851512 1000 -0.004946868 -0.005714659 -0.005828572 -0.005594392 -0.004851512 1000 -0.004523411 -0.004264946 -0.00433938 -0.005248045 -0.005387785 1000 -0.004523411 -0.004264946 -0.00433938 -0.005248045 -0.005387785 1000
lala 4 1.2 0 first 12 1 123 4 3.84 0.39999794960022 0 0 -1 1 -0.002940254 -0.002927907 -0.003124178 1000 1000 1000 -0.002940254 -0.002927907 -0.003124178 1000 1000 1000 -0.003107235 -0.002513309 -0.002896181 -0.002692758 -0.003075723 1000 -0.003107235 -0.002513309 -0.002896181 -0.002692758 -0.003075723 1000
lala 3 1.2 1 second 7 1 124 4 5.32 0.39999794960022 1 1 1 0 -0.001378134 -0.002130004 -0.002036346 -0.001703037 -0.0007222207 1000 -0.001378134 -0.002130004 -0.002036346 -0.001703037 -0.0007222207 1000 -0.003523517 -0.003803843 -0.00380669 -0.002865896 -0.00166999 1000 -0.003523517 -0.003803843 -0.00380669 -0.002865896 -0.00166999 1000
lala 9 1.2 0 first 4 1 125 6 6.36 0.23999810218811 -1 0 -1 1 -0.002482036 -0.003264757 -0.004856264 1000 1000 1000 -0.002482036 -0.003264757 -0.004856264 1000 1000 1000 -0.003063049 -0.004346283 -0.004984205 -0.005152898 -0.004716166 1000 -0.003063049 -0.004346283 -0.004984205 -0.005152898 -0.004716166 1000
lala 9 1.2 1 first 2 1 126 5 8.099999 0.61999773979187 -1 0 1 1 -0.004315923 -0.003850265 -0.004113684 1000 1000 1000 -0.004315923 -0.003850265 -0.004113684 1000 1000 1000 -0.004162225 -0.004376945 -0.004807995 -0.0047697 -0.004232795 1000 -0.004162225 -0.004376945 -0.004807995 -0.0047697 -0.004232795 1000
lala 8 1.2 0 second 6 1 127 4 1.44 0.679997682571411 1 0 -1 1 -0.004362386 -0.0037648 -0.00387031 -0.005132257 -0.006481917 1000 -0.004362386 -0.0037648 -0.00387031 -0.005132257 -0.006481917 1000 -0.007562847 -0.007815882 -0.007622615 -0.006370578 -0.005339596 1000 -0.007562847 -0.007815882 -0.007622615 -0.006370578 -0.005339596 1000
lala 10 2.4 1 second 4 1 128 6 8.76 0.259998083114624 -1 0 1 0 -0.003985392 -0.003317341 -0.002279477 -0.002018543 -0.002141539 1000 -0.003985392 -0.003317341 -0.002279477 -0.002018543 -0.002141539 1000 -0.003530292 -0.003517207 -0.002977059 -0.003560136 -0.003799863 1000 -0.003530292 -0.003517207 -0.002977059 -0.003560136 -0.003799863 1000
lala 11 0.6 1 second 10 1 129 6 7.559999 0.159998178482056 1 0 1 1 -0.003206088 -0.00303383 -0.003512122 -0.003510708 -0.002633878 1000 -0.003206088 -0.00303383 -0.003512122 -0.003510708 -0.002633878 1000 -0.003294601 -0.003081101 -0.003497534 -0.003677311 -0.003533721 1000 -0.003294601 -0.003081101 -0.003497534 -0.003677311 -0.003533721 1000
lala 3 1.2 0 first 9 1 130 5 4.25 0.0999982357025146 1 1 -1 0 -0.003406341 -0.002537309 -0.003451876 1000 1000 1000 -0.003406341 -0.002537309 -0.003451876 1000 1000 1000 -0.002669673 -0.003431821 -0.003371053 -0.002577067 -0.001730771 1000 -0.002669673 -0.003431821 -0.003371053 -0.002577067 -0.001730771 1000
lala 11 2.4 0 second 5 1 131 6 4.380001 0.0999982357025146 -1 1 -1 0 -0.00295384 -0.0026078 -0.001985874 -0.002417596 -0.002354633 1000 -0.00295384 -0.0026078 -0.001985874 -0.002417596 -0.002354633 1000 -0.003407221 -0.002674655 -0.00177 -0.002195317 -0.002482054 1000 -0.003407221 -0.002674655 -0.00177 -0.002195317 -0.002482054 1000
lala 11 1.2 0 second 4 1 132 6 7.56 0.419997930526733 -1 0 -1 0 -0.002813556 -0.002635339 -0.003171553 -0.002858819 -0.002981917 1000 -0.002813556 -0.002635339 -0.003171553 -0.002858819 -0.002981917 1000 -0.003795278 -0.002950725 -0.003066379 -0.003075957 -0.003803299 1000 -0.003795278 -0.002950725 -0.003066379 -0.003075957 -0.003803299 1000
lala 11 0.6 1 second 14 1 133 5 4.5 0.479997873306274 0 0 1 1 -0.004482515 -0.00389387 -0.003313776 -0.002229489 -0.002569037 1000 -0.004482515 -0.00389387 -0.003313776 -0.002229489 -0.002569037 1000 -0.003809274 -0.003937834 -0.003414093 -0.002650294 -0.002174479 1000 -0.003809274 -0.003937834 -0.003414093 -0.002650294 -0.002174479 1000
lala 10 0.6 0 first 15 1 134 5 2.45 0.39999794960022 0 1 -1 0 -0.003587216 -0.004101263 -0.00326719 1000 1000 1000 -0.003587216 -0.004101263 -0.00326719 1000 1000 1000 -0.004607203 -0.004808987 -0.004136241 -0.003417736 -0.003231219 1000 -0.004607203 -0.004808987 -0.004136241 -0.003417736 -0.003231219 1000
lala 10 0.6 1 first 2 1 135 5 7.5 0.299998044967651 -1 0 1 0 -0.005159716 -0.005560729 -0.005511051 1000 1000 1000 -0.005159716 -0.005560729 -0.005511051 1000 1000 1000 -0.005842081 -0.006060553 -0.006034378 -0.006202739 -0.006746559 1000 -0.005842081 -0.006060553 -0.006034378 -0.006202739 -0.006746559 1000
lala 13 1.2 0 second 8 1 136 5 4.5 0.119998216629028 1 0 -1 0 -0.007918176 -0.008442115 -0.008907441 -0.00836426 -0.008799592 1000 -0.007918176 -0.008442115 -0.008907441 -0.00836426 -0.008799592 1000 -0.01181191 -0.01268315 -0.01294293 -0.01255569 -0.01292671 1000 -0.01181191 -0.01268315 -0.01294293 -0.01255569 -0.01292671 1000
lala 5 1.2 1 first 12 1 137 4 5.04 0.259998083114624 0 0 1 0 -0.01964229 -0.02680563 -0.03422265 1000 1000 1000 -0.01964229 -0.02680563 -0.03422265 1000 1000 1000 -0.02036967 -0.01855254 -0.01888042 -0.0194856 -0.0193767 1000 -0.02036967 -0.01855254 -0.01888042 -0.0194856 -0.0193767 1000
lala 11 0.3 1 second 3 1 138 5 4.55 0.279998064041138 -1 1 1 1 -0.01917254 -0.02037224 -0.02155854 -0.02089813 -0.0196378 1000 -0.01917254 -0.02037224 -0.02155854 -0.02089813 -0.0196378 1000 -0.0193499 -0.01933376 -0.01898362 -0.01974042 -0.01980943 1000 -0.0193499 -0.01933376 -0.01898362 -0.01974042 -0.01980943 1000
lala 12 0.6 1 second 4 1 139 6 8.160001 0.0999982357025146 -1 0 1 1 -0.01791557 -0.01812601 -0.0182265 -0.0178417 -0.01746947 1000 -0.01791557 -0.01812601 -0.0182265 -0.0178417 -0.01746947 1000 -0.01778316 -0.01719687 -0.01726593 -0.01761255 -0.01837251 1000 -0.01778316 -0.01719687 -0.01726593 -0.01761255 -0.01837251 1000
lala 11 0.6 0 second 15 1 140 5 3.05 0.359997987747192 0 1 -1 1 -0.01588178 -0.01599305 -0.01615959 -0.01638634 -0.01624748 1000 -0.01588178 -0.01599305 -0.01615959 -0.01638634 -0.01624748 1000 -0.01566653 -0.01461694 -0.01475715 -0.01482602 -0.01567047 1000 -0.01566653 -0.01461694 -0.01475715 -0.01482602 -0.01567047 1000
lala 13 0.3 1 second 4 1 141 6 7.860001 0.119998216629028 -1 0 1 1 -0.01470241 -0.01443625 -0.01376707 -0.01299398 -0.01349128 1000 -0.01470241 -0.01443625 -0.01376707 -0.01299398 -0.01349128 1000 -0.01456529 -0.01452407 -0.01435796 -0.01350994 -0.0140428 1000 -0.01456529 -0.01452407 -0.01435796 -0.01350994 -0.0140428 1000
lala 12 0.3 0 first 3 1 142 5 4.25 0.219998121261597 -1 1 -1 1 -0.0126884 -0.01320978 -0.01388415 1000 1000 1000 -0.0126884 -0.01320978 -0.01388415 1000 1000 1000 -0.01349885 -0.01355071 -0.01344763 -0.01290041 -0.01292306 1000 -0.01349885 -0.01355071 -0.01344763 -0.01290041 -0.01292306 1000
lala 5 1.2 0 first 16 1 143 6 3.96 0.01999831199646 0 0 -1 1 -0.0125188 -0.0128967 -0.01355381 1000 1000 1000 -0.0125188 -0.0128967 -0.01355381 1000 1000 1000 -0.01508413 -0.01370348 -0.01356535 -0.01393061 -0.01429361 1000 -0.01508413 -0.01370348 -0.01356535 -0.01393061 -0.01429361 1000
lala 12 0.6 0 first 15 1 144 5 3.65 0.0399982929229736 0 1 -1 0 -0.01278847 -0.01365459 -0.01429914 1000 1000 1000 -0.01278847 -0.01365459 -0.01429914 1000 1000 1000 -0.01364681 -0.01321597 -0.01373154 -0.01364798 -0.01423352 1000 -0.01364681 -0.01321597 -0.01373154 -0.01364798 -0.01423352 1000
lala 6 1.2 1 second 16 1 145 6 5.16 0.299998044967651 0 0 1 0 -0.01233067 -0.01279612 -0.0127723 -0.01317825 -0.01325744 1000 -0.01233067 -0.01279612 -0.0127723 -0.01317825 -0.01325744 1000 -0.01322917 -0.01314625 -0.01281423 -0.01341604 -0.01367521 1000 -0.01322917 -0.01314625 -0.01281423 -0.01341604 -0.01367521 1000
lala 11 0.6 1 second 2 1 146 5 6.9 0.0999982357025146 -1 0 1 1 -0.01265151 -0.01318573 -0.01310986 -0.01213217 -0.01143697 1000 -0.01265151 -0.01318573 -0.01310986 -0.01213217 -0.01143697 1000 -0.01258688 -0.01330264 -0.0127583 -0.01216798 -0.01250604 1000 -0.01258688 -0.01330264 -0.0127583 -0.01216798 -0.01250604 1000
lala 12 0.3 0 first 14 1 147 5 4.2 0.299998044967651 0 0 -1 0 -0.01098391 -0.01183154 -0.01309472 1000 1000 1000 -0.01098391 -0.01183154 -0.01309472 1000 1000 1000 -0.01183009 -0.01132171 -0.01210539 -0.01192902 -0.01148597 1000 -0.01183009 -0.01132171 -0.01210539 -0.01192902 -0.01148597 1000
lala 12 0.6 1 second 10 1 148 6 6.959999 0.299998044967651 1 0 1 0 -0.01009142 -0.01169001 -0.01257686 -0.0117915 -0.009665854 1000 -0.01009142 -0.01169001 -0.01257686 -0.0117915 -0.009665854 1000 -0.0102068 -0.01023674 -0.01068408 -0.01070778 -0.01005735 1000 -0.0102068 -0.01023674 -0.01068408 -0.01070778 -0.01005735 1000
lala 8 1.2 0 second 0 1 149 4 3.84 0.679997682571411 -1 0 -1 1 -0.009915126 -0.009454529 -0.00836517 -0.007492154 -0.00619841 1000 -0.009915126 -0.009454529 -0.00836517 -0.007492154 -0.00619841 1000 -0.003370325 -0.002818096 -0.001592373 -0.001316635 -0.002658861 1000 -0.003370325 -0.002818096 -0.001592373 -0.001316635 -0.002658861 1000
lala 5 1.2 1 first 13 1 150 4 5.32 0.159998178482056 0 1 1 0 0.0161849 0.01493434 0.01689889 0.01887592 0.01988223 0.01934111 0.0161849 0.01493434 0.01689889 0.01887592 0.01988223 0.01934111 0.03032004 0.03035954 0.03007373 0.03073879 0.03127659 1000 0.03032004 0.03035954 0.03007373 0.03073879 0.03127659 1000
lala 6 1.2 1 first 12 1 151 4 3.84 0.01999831199646 0 0 1 1 0.02353282 0.02337291 0.02311044 1000 1000 1000 0.02353282 0.02337291 0.02311044 1000 1000 1000 0.02463477 0.02460711 0.02462901 0.02403997 0.02394004 1000 0.02463477 0.02460711 0.02462901 0.02403997 0.02394004 1000
lala 9 1.2 0 first 6 1 152 4 2.64 0.359997987747192 1 0 -1 1 0.02487065 0.02459051 0.02394312 1000 1000 1000 0.02487065 0.02459051 0.02394312 1000 1000 1000 0.02015154 0.01951792 0.02038773 0.02048676 0.02048907 1000 0.02015154 0.01951792 0.02038773 0.02048676 0.02048907 1000
lala 6 1.2 0 second 17 1 153 6 4.380001 0.319998025894165 0 1 -1 0 0.01727466 0.01821474 0.01675363 0.01668489 0.01694451 1000 0.01727466 0.01821474 0.01675363 0.01668489 0.01694451 1000 0.01668394 0.01760584 0.01761893 0.01784127 0.01754045 1000 0.01668394 0.01760584 0.01761893 0.01784127 0.01754045 1000
lala 7 1.2 0 second 12 1 154 4 2.64 0.279998064041138 0 0 -1 0 0.01764402 0.018211 0.01807939 0.0179673 0.01718277 1000 0.01764402 0.018211 0.01807939 0.0179673 0.01718277 1000 0.01619167 0.01672228 0.01720475 0.01820172 0.01802243 1000 0.01619167 0.01672228 0.01720475 0.01820172 0.01802243 1000
lala 4 1.2 1 second 1 1 155 4 6.52 0.319998025894165 -1 1 1 1 0.01746736 0.01768733 0.01745775 0.01732654 0.01616778 1000 0.01746736 0.01768733 0.01745775 0.01732654 0.01616778 1000 0.01796694 0.01802837 0.01928245 0.01884862 0.01819702 1000 0.01796694 0.01802837 0.01928245 0.01884862 0.01819702 1000
lala 13 0.15 1 first 14 1 156 5 4.35 0.299998044967651 0 0 1 1 0.01812858 0.01816456 0.0184759 1000 1000 1000 0.01812858 0.01816456 0.0184759 1000 1000 1000 0.01907096 0.0197239 0.01929873 0.01963696 0.01829089 1000 0.01907096 0.0197239 0.01929873 0.01963696 0.01829089 1000
lala 4 1.2 1 first 9 1 157 5 5.45 0.299998044967651 1 1 1 0 0.01954474 0.01986938 0.02047379 1000 1000 1000 0.01954474 0.01986938 0.02047379 1000 1000 1000 0.02065782 0.02113299 0.02079763 0.02133706 0.01994135 1000 0.02065782 0.02113299 0.02079763 0.02133706 0.01994135 1000
lala 5 1.2 1 first 1 1 158 4 5.32 0.439997911453247 -1 1 1 0 0.020332 0.01962743 0.02030571 1000 1000 1000 0.020332 0.01962743 0.02030571 1000 1000 1000 0.0191381 0.01865385 0.02050469 0.02265996 0.02336756 1000 0.0191381 0.01865385 0.02050469 0.02265996 0.02336756 1000
lala 14 1.2 1 second 8 1 159 5 5.7 0.259998083114624 1 0 1 0 0.01806797 0.0230689 0.02247127 0.02165644 0.02232563 1000 0.01806797 0.0230689 0.02247127 0.02165644 0.02232563 1000 0.01630946 0.01600611 0.01869645 0.02181257 0.02149021 1000 0.01630946 0.01600611 0.01869645 0.02181257 0.02149021 1000
lala 12 0.6 1 second 2 1 160 5 6.3 0.219998121261597 -1 0 1 0 0.02068357 0.02103396 0.02080265 0.02076143 0.02027245 1000 0.02068357 0.02103396 0.02080265 0.02076143 0.02027245 1000 0.01866234 0.01842861 0.01817446 0.01813181 0.01795858 1000 0.01866234 0.01842861 0.01817446 0.01813181 0.01795858 1000
lala 5 1.2 1 first 9 1 161 5 4.25 0.139998197555542 1 1 1 1 0.01773935 0.01727721 0.01700796 1000 1000 1000 0.01773935 0.01727721 0.01700796 1000 1000 1000 0.01821507 0.01695589 0.01697889 0.01734694 0.01813309 1000 0.01821507 0.01695589 0.01697889 0.01734694 0.01813309 1000
lala 13 1.2 1 second 10 1 162 6 5.759999 0.0399982929229736 1 0 1 0 0.01611866 0.01615192 0.01697502 0.01880731 0.01868294 1000 0.01611866 0.01615192 0.01697502 0.01880731 0.01868294 1000 0.01655699 0.01590061 0.01666154 0.01694652 0.01752824 1000 0.01655699 0.01590061 0.01666154 0.01694652 0.01752824 1000
lala 9 1.2 0 first 0 1 163 4 5.04 0.01999831199646 -1 0 -1 0 0.01665745 0.01665942 0.01617812 1000 1000 1000 0.01665745 0.01665942 0.01617812 1000 1000 1000 0.01745004 0.01755074 0.01628965 0.01600963 0.0162324 1000 0.01745004 0.01755074 0.01628965 0.01600963 0.0162324 1000
lala 4 1.2 1 first 7 1 164 4 4.12 0.219998121261597 1 1 1 0 0.01672811 0.01645047 0.01628744 1000 1000 1000 0.01672811 0.01645047 0.01628744 1000 1000 1000 0.01650425 0.0163044 0.01576546 0.01546202 0.01488242 1000 0.01650425 0.0163044 0.01576546 0.01546202 0.01488242 1000
lala 13 1.2 1 second 15 1 165 5 4.849999 0.379997968673706 0 1 1 0 0.01630401 0.01563267 0.01557115 0.0161507 0.01616036 1000 0.01630401 0.01563267 0.01557115 0.0161507 0.01616036 1000 0.01682285 0.01643592 0.01605284 0.01503433 0.01462362 1000 0.01682285 0.01643592 0.01605284 0.01503433 0.01462362 1000
lala 15 0.6 1 second 8 1 166 5 5.1 0.179998159408569 1 0 1 1 0.01457832 0.01478429 0.01570448 0.01633038 0.01510231 1000 0.01457832 0.01478429 0.01570448 0.01633038 0.01510231 1000 0.0144568 0.01393424 0.01390012 0.01482514 0.01456744 1000 0.0144568 0.01393424 0.01390012 0.01482514 0.01456744 1000
lala 14 2.4 0 first 10 1 167 6 3.359999 0.159998178482056 1 0 -1 1 0.012497 0.01137632 0.007077723 1000 1000 1000 0.012497 0.01137632 0.007077723 1000 1000 1000 0.006254205 0.007067114 0.007991492 0.007452202 0.00718209 1000 0.006254205 0.007067114 0.007991492 0.007452202 0.00718209 1000
lala 5 1.2 1 second 7 1 168 4 2.92 0.179998159408569 1 1 1 1 0.008872337 0.007858165 0.007723245 0.007294877 0.007346182 1000 0.008872337 0.007858165 0.007723245 0.007294877 0.007346182 1000 0.008781521 0.008820117 0.007643967 0.006877271 0.00576062 1000 0.008781521 0.008820117 0.007643967 0.006877271 0.00576062 1000
lala 8 1.2 1 first 12 1 169 4 3.84 0.23999810218811 0 0 1 1 0.008034321 0.007497242 0.007610573 1000 1000 1000 0.008034321 0.007497242 0.007610573 1000 1000 1000 0.006578634 0.007276737 0.007167838 0.007796851 0.006703156 1000 0.006578634 0.007276737 0.007167838 0.007796851 0.006703156 1000
lala 13 0.15 0 first 3 1 170 5 4.4 0.219998121261597 -1 1 -1 1 0.005549892 0.005727614 0.006668287 1000 1000 1000 0.005549892 0.005727614 0.006668287 1000 1000 1000 0.007425038 0.007536796 0.007622452 0.006704454 0.006454706 1000 0.007425038 0.007536796 0.007622452 0.006704454 0.006454706 1000
lala 9 1.2 1 first 12 1 171 4 2.64 0.459997892379761 0 0 1 0 0.007716885 0.007671928 0.008525966 1000 1000 1000 0.007716885 0.007671928 0.008525966 1000 1000 1000 0.006603143 0.007078443 0.00656561 0.006983698 0.007669294 1000 0.006603143 0.007078443 0.00656561 0.006983698 0.007669294 1000
lala 14 0.6 1 first 15 1 172 5 4.25 0.299998044967651 0 1 1 1 0.007024806 0.00560996 0.006037722 1000 1000 1000 0.007024806 0.00560996 0.006037722 1000 1000 1000 0.008230249 0.008515389 0.008610325 0.008719505 0.008399955 1000 0.008230249 0.008515389 0.008610325 0.008719505 0.008399955 1000
lala 15 1.2 1 first 10 1 173 6 4.559999 0.199998140335083 1 0 1 0 0.008282384 0.007983113 0.008687004 1000 1000 1000 0.008282384 0.007983113 0.008687004 1000 1000 1000 0.009314763 0.009401085 0.009834 0.00927774 0.009056839 1000 0.009314763 0.009401085 0.009834 0.00927774 0.009056839 1000
lala 6 1.2 0 second 13 1 174 4 4.12 0.459997892379761 0 1 -1 1 0.01027607 0.01069156 0.01047647 0.01052132 0.0102478 1000 0.01027607 0.01069156 0.01047647 0.01052132 0.0102478 1000 0.01018592 0.01080691 0.01163638 0.01228001 0.01163502 1000 0.01018592 0.01080691 0.01163638 0.01228001 0.01163502 1000
lala 7 1.2 1 first 13 1 175 4 5.32 0.079998254776001 0 1 1 0 0.01110185 0.01110156 0.01242667 1000 1000 1000 0.01110185 0.01110156 0.01242667 1000 1000 1000 0.006110603 0.006515407 0.006555304 0.006730065 0.007285392 1000 0.006110603 0.006515407 0.006555304 0.006730065 0.007285392 1000
lala 9 1.2 1 second 11 1 176 6 7.98 0.01999831199646 1 1 1 1 0.006301219 0.006509399 0.006732934 0.007254519 0.008672022 1000 0.006301219 0.006509399 0.006732934 0.007254519 0.008672022 1000 0.007918391 0.007641943 0.007477313 0.00817719 0.00866504 1000 0.007918391 0.007641943 0.007477313 0.00817719 0.00866504 1000
lala 6 1.2 1 first 7 1 177 4 1.72 0.319998025894165 1 1 1 0 0.009061632 0.008874318 0.009500737 1000 1000 1000 0.009061632 0.008874318 0.009500737 1000 1000 1000 0.009554078 0.009437593 0.009247954 0.009112781 0.00846003 1000 0.009554078 0.009437593 0.009247954 0.009112781 0.00846003 1000
lala 10 1.2 0 first 0 1 178 4 6.24 0.419997930526733 -1 0 -1 0 0.006345827 0.006710154 0.008231294 1000 1000 1000 0.006345827 0.006710154 0.008231294 1000 1000 1000 0.00973827 0.009153229 0.009126536 0.008494979 0.008309536 1000 0.00973827 0.009153229 0.009126536 0.008494979 0.008309536 1000
lala 7 1.2 0 second 16 1 179 6 3.96 0.259998083114624 0 0 -1 0 0.009076478 0.009562625 0.01043342 0.01029999 0.01047068 1000 0.009076478 0.009562625 0.01043342 0.01029999 0.01047068 1000 0.008658781 0.009293438 0.01014161 0.01014281 0.009954191 1000 0.008658781 0.009293438 0.01014161 0.01014281 0.009954191 1000
lala 6 1.2 0 first 9 1 180 5 3.05 0.0999982357025146 1 1 -1 0 0.01029499 0.01060158 0.01108327 1000 1000 1000 0.01029499 0.01060158 0.01108327 1000 1000 1000 0.01000965 0.009818606 0.009641592 0.01016733 0.01079723 1000 0.01000965 0.009818606 0.009641592 0.01016733 0.01079723 1000
lala 14 0.3 1 second 4 1 181 6 7.56 0.339998006820679 -1 0 1 0 0.01110988 0.009811137 0.009854283 0.01017439 0.01052835 1000 0.01110988 0.009811137 0.009854283 0.01017439 0.01052835 1000 0.009491852 0.009445756 0.009188097 0.009365326 0.009942869 1000 0.009491852 0.009445756 0.009188097 0.009365326 0.009942869 1000
lala 14 0.075 1 first 14 1 182 5 4.275 0.199998140335083 0 0 1 1 0.01033818 0.01021539 0.009256097 1000 1000 1000 0.01033818 0.01021539 0.009256097 1000 1000 1000 0.008563641 0.009035031 0.008545356 0.007957401 0.008624496 1000 0.008563641 0.009035031 0.008545356 0.007957401 0.008624496 1000
lala 15 0.6 0 second 15 1 183 5 3.65 0.199998140335083 0 1 -1 1 0.007989404 0.008648713 0.01060697 0.01011289 0.00924949 1000 0.007989404 0.008648713 0.01060697 0.01011289 0.00924949 1000 0.007166839 0.008890874 0.01032493 0.01001831 0.0085917 1000 0.007166839 0.008890874 0.01032493 0.01001831 0.0085917 1000
lala 8 1.2 0 first 13 1 184 4 4.12 0.139998197555542 0 1 -1 1 0.008884943 0.008701764 0.009042028 1000 1000 1000 0.008884943 0.008701764 0.009042028 1000 1000 1000 0.008117328 0.008822425 0.009657819 0.00897433 0.008198746 1000 0.008117328 0.008822425 0.009657819 0.00897433 0.008198746 1000
lala 12 1.2 0 second 5 1 185 6 5.580001 0.01999831199646 -1 1 -1 0 0.01011365 0.009414328 0.00920345 0.009186276 0.009324659 1000 0.01011365 0.009414328 0.00920345 0.009186276 0.009324659 1000 0.009051442 0.008752973 0.008539533 0.008436481 0.008141931 1000 0.009051442 0.008752973 0.008539533 0.008436481 0.008141931 1000
lala 10 1.2 1 first 6 1 186 4 3.84 0.299998044967651 1 0 1 0 0.007700728 0.007501967 0.008013071 1000 1000 1000 0.007700728 0.007501967 0.008013071 1000 1000 1000 0.008393308 0.0076613 0.007490953 0.007018155 0.007074078 1000 0.008393308 0.0076613 0.007490953 0.007018155 0.007074078 1000
lala 7 1.2 1 second 9 1 187 5 4.25 0.259998083114624 1 1 1 1 0.007770016 0.007102139 0.007158606 0.007715646 0.008179563 1000 0.007770016 0.007102139 0.007158606 0.007715646 0.008179563 1000 0.006652213 0.006179595 0.005580311 0.005832253 0.006018955 1000 0.006652213 0.006179595 0.005580311 0.005832253 0.006018955 1000
lala 10 0.6 1 second 11 1 188 6 7.380001 0.079998254776001 1 1 1 1 0.005990996 0.005805373 0.006110756 0.00691487 0.006668913 1000 0.005990996 0.005805373 0.006110756 0.00691487 0.006668913 1000 0.003796255 0.003259137 0.003466706 0.003537986 0.003980256 1000 0.003796255 0.003259137 0.003466706 0.003537986 0.003980256 1000
lala 10 1.2 0 first 12 1 189 4 1.44 0.0999982357025146 0 0 -1 1 0.004995325 0.00584479 0.004668293 1000 1000 1000 0.004995325 0.00584479 0.004668293 1000 1000 1000 0.005686534 0.004351743 0.004994433 0.006057939 0.006642983 1000 0.005686534 0.004351743 0.004994433 0.006057939 0.006642983 1000
lala 11 0.6 1 second 12 1 190 4 2.04 0.01999831199646 0 0 1 0 0.005218545 0.005012637 0.00520721 0.005771441 0.005756212 1000 0.005218545 0.005012637 0.00520721 0.005771441 0.005756212 1000 0.006366699 0.005563973 0.005502452 0.006859458 0.007590936 1000 0.006366699 0.005563973 0.005502452 0.006859458 0.007590936 1000
lala 14 0.15 0 first 3 1 191 5 4.55 0.0599982738494873 -1 1 -1 0 0.006444507 0.006280387 0.007371507 1000 1000 1000 0.006444507 0.006280387 0.007371507 1000 1000 1000 0.007018899 0.006861184 0.006460044 0.00607736 0.006837469 1000 0.007018899 0.006861184 0.006460044 0.00607736 0.006837469 1000
lala 16 0.6 1 first 8 1 192 5 4.5 0.01999831199646 1 0 1 1 0.00664473 0.006556147 0.007465031 1000 1000 1000 0.00664473 0.006556147 0.007465031 1000 1000 1000 0.007876624 0.007955984 0.007348772 0.007732561 0.007943832 1000 0.007876624 0.007955984 0.007348772 0.007732561 0.007943832 1000
lala 9 1.2 1 second 13 1 193 4 5.32 0.01999831199646 0 1 1 1 -0.002408973 -0.001269068 0.0005678186 0.003312092 0.006294501 1000 -0.002408973 -0.001269068 0.0005678186 0.003312092 0.006294501 1000 -0.0001158014 -0.004725223 -0.003521438 -0.001587424 0.0008266576 1000 -0.0001158014 -0.004725223 -0.003521438 -0.001587424 0.0008266576 1000
lala 8 1.2 0 first 9 1 194 5 3.05 0.01999831199646 1 1 -1 1 0.001736133 0.003125266 0.005227336 1000 1000 1000 0.001736133 0.003125266 0.005227336 1000 1000 1000 0.007362728 0.007049953 0.006540008 0.006971365 0.007526837 1000 0.007362728 0.007049953 0.006540008 0.006971365 0.007526837 1000
lala 13 1.2 0 first 5 1 195 6 6.780001 0.179998159408569 -1 1 -1 0 0.007297455 0.006833162 0.006882066 1000 1000 1000 0.007297455 0.006833162 0.006882066 1000 1000 1000 0.006989115 0.006431032 0.006125735 0.005752484 0.005965544 1000 0.006989115 0.006431032 0.006125735 0.005752484 0.005965544 1000
lala 12 0.3 0 second 12 1 196 4 1.74 0.339998006820679 0 0 -1 1 0.004967663 0.004966119 0.005482249 0.006289468 0.006959606 1000 0.004967663 0.004966119 0.005482249 0.006289468 0.006959606 1000 0.004397326 0.003974764 0.004182664 0.00450548 0.00563045 1000 0.004397326 0.003974764 0.004182664 0.00450548 0.00563045 1000
lala 17 0.6 0 second 8 1 197 5 3.9 0.639997720718384 1 0 -1 1 0.004924076 0.006151046 0.005847653 0.005740785 0.005239783 1000 0.004924076 0.006151046 0.005847653 0.005740785 0.005239783 1000 0.004773789 0.005157734 0.005999844 0.005348785 0.005009732 1000 0.004773789 0.005157734 0.005999844 0.005348785 0.005009732 1000
lala 14 1.2 1 second 5 1 198 6 7.98 0.159998178482056 -1 1 1 1 0.006325613 0.006565033 0.00746066 0.007037737 0.006077717 1000 0.006325613 0.006565033 0.00746066 0.007037737 0.006077717 1000 0.006867877 0.008850605 0.00915984 0.007147724 0.006133413 1000 0.006867877 0.008850605 0.00915984 0.007147724 0.006133413 1000
lala 10 0.6 0 second 13 1 199 4 4.72 0.179998159408569 0 1 -1 0 0.007196053 0.006919662 0.008234443 0.008707932 0.007956225 1000 0.007196053 0.006919662 0.008234443 0.008707932 0.007956225 1000 0.008283917 0.009347784 0.009695079 0.009149373 0.008264075 1000 0.008283917 0.009347784 0.009695079 0.009149373 0.008264075 1000
lala 13 0.15 1 first 12 1 200 4 1.89 0.319998025894165 0 0 1 1 -0.002756433 -0.003323541 -0.002254298 -0.0006894803 0.0007187699 0.0036659 -0.002756433 -0.003323541 -0.002254298 -0.0006894803 0.0007187699 0.0036659 0.02229079 0.02200061 0.02192876 0.02189913 0.0209507 1000 0.02229079 0.02200061 0.02192876 0.02189913 0.0209507 1000
lala 6 1.2 1 first 1 1 201 4 4.12 0.579997777938843 -1 1 1 1 0.02266059 0.022509 0.02290138 1000 1000 1000 0.02266059 0.022509 0.02290138 1000 1000 1000 0.01916513 0.01912099 0.0190955 0.01953441 0.0198323 1000 0.01916513 0.01912099 0.0190955 0.01953441 0.0198323 1000
lala 18 0.3 0 second 8 1 202 5 4.2 0.319998025894165 1 0 -1 0 0.02169872 0.02192243 0.02146959 0.02136381 0.02051348 1000 0.02169872 0.02192243 0.02146959 0.02136381 0.02051348 1000 0.01916495 0.01950859 0.02127725 0.02124192 0.02149686 1000 0.01916495 0.01950859 0.02127725 0.02124192 0.02149686 1000
lala 7 1.2 0 second 1 1 203 4 2.92 0.179998159408569 -1 1 -1 1 0.02024569 0.01965303 0.01929364 0.01937943 0.01976731 1000 0.02024569 0.01965303 0.01929364 0.01937943 0.01976731 1000 0.01949593 0.01970846 0.01932687 0.01920303 0.01860722 1000 0.01949593 0.01970846 0.01932687 0.01920303 0.01860722 1000
lala 15 0.075 1 first 14 1 204 5 4.2 0.23999810218811 0 0 1 1 0.01814826 0.01772248 0.01774904 1000 1000 1000 0.01814826 0.01772248 0.01774904 1000 1000 1000 0.01829067 0.01704751 0.01603315 0.01572892 0.01584424 1000 0.01829067 0.01704751 0.01603315 0.01572892 0.01584424 1000
lala 9 1.2 1 first 9 1 205 5 4.25 0.479997873306274 1 1 1 0 0.01745637 0.01696222 0.01674892 1000 1000 1000 0.01745637 0.01696222 0.01674892 1000 1000 1000 0.01567711 0.01528623 0.01490077 0.01538902 0.01596882 1000 0.01567711 0.01528623 0.01490077 0.01538902 0.01596882 1000
lala 10 0.6 1 second 9 1 206 5 3.65 0.139998197555542 1 1 1 1 0.01504595 0.01714011 0.01605565 0.01682407 0.01660322 1000 0.01504595 0.01714011 0.01605565 0.01682407 0.01660322 1000 0.01536443 0.01678835 0.01702538 0.01585692 0.0153678 1000 0.01536443 0.01678835 0.01702538 0.01585692 0.0153678 1000
lala 8 1.2 1 first 1 1 207 4 4.12 0.279998064041138 -1 1 1 1 0.01621511 0.01489471 0.01416876 1000 1000 1000 0.01621511 0.01489471 0.01416876 1000 1000 1000 0.01612278 0.01637693 0.01594713 0.0156997 0.01478922 1000 0.01612278 0.01637693 0.01594713 0.0156997 0.01478922 1000
lala 15 0.15 0 first 3 1 208 5 4.7 0.459997892379761 -1 1 -1 1 0.01486395 0.0146801 0.01521221 1000 1000 1000 0.01486395 0.0146801 0.01521221 1000 1000 1000 0.01531958 0.01473993 0.01456497 0.01360173 0.0138567 1000 0.01531958 0.01473993 0.01456497 0.01360173 0.0138567 1000
lala 7 1.2 1 first 17 1 209 6 5.580001 0.379997968673706 0 1 1 1 0.01500078 0.01435911 0.01409296 1000 1000 1000 0.01500078 0.01435911 0.01409296 1000 1000 1000 0.0102322 0.009727147 0.01053627 0.01063116 0.009829106 1000 0.0102322 0.009727147 0.01053627 0.01063116 0.009829106 1000
lala 16 0.3 0 first 15 1 210 5 3.95 0.119998216629028 0 1 -1 1 0.01148791 0.01153204 0.0116953 1000 1000 1000 0.01148791 0.01153204 0.0116953 1000 1000 1000 0.01106525 0.01076859 0.01032807 0.01087963 0.01115905 1000 0.01106525 0.01076859 0.01032807 0.01087963 0.01115905 1000
lala 19 0.3 1 second 8 1 211 5 4.5 0.299998044967651 1 0 1 1 0.01066371 0.01059544 0.01082858 0.01161651 0.01179921 1000 0.01066371 0.01059544 0.01082858 0.01161651 0.01179921 1000 0.01106175 0.01040838 0.009726476 0.01067285 0.01121476 1000 0.01106175 0.01040838 0.009726476 0.01067285 0.01121476 1000
lala 14 0.075 0 first 12 1 212 4 1.815 0.179998159408569 0 0 -1 0 0.01211712 0.01207903 0.01174918 1000 1000 1000 0.01211712 0.01207903 0.01174918 1000 1000 1000 0.01172304 0.01195875 0.01114198 0.01062574 0.01105557 1000 0.01172304 0.01195875 0.01114198 0.01062574 0.01105557 1000
lala 8 1.2 1 second 16 1 213 6 5.16 0.01999831199646 0 0 1 1 0.01257123 0.01182097 0.01153792 0.01211865 0.01294169 1000 0.01257123 0.01182097 0.01153792 0.01211865 0.01294169 1000 0.01244567 0.01191067 0.0117063 0.01207033 0.01243313 1000 0.01244567 0.01191067 0.0117063 0.01207033 0.01243313 1000
lala 11 2.4 1 first 0 1 214 4 8.639999 0.01999831199646 -1 0 1 0 0.01116653 0.01162886 0.01102003 1000 1000 1000 0.01116653 0.01162886 0.01102003 1000 1000 1000 0.0112353 0.01085492 0.01117238 0.01177829 0.01261846 1000 0.0112353 0.01085492 0.01117238 0.01177829 0.01261846 1000
lala 9 1.2 0 second 1 1 215 4 2.92 0.199998140335083 -1 1 -1 1 0.01122711 0.01026356 0.01020376 0.01088386 0.01136076 1000 0.01122711 0.01026356 0.01020376 0.01088386 0.01136076 1000 0.01123429 0.01073887 0.01034018 0.009447434 0.009991122 1000 0.01123429 0.01073887 0.01034018 0.009447434 0.009991122 1000
lala 16 0.075 1 second 14 1 216 5 4.125 0.199998140335083 0 0 1 1 0.0111758 0.01068962 0.01016228 0.009767389 0.0100111 1000 0.0111758 0.01068962 0.01016228 0.009767389 0.0100111 1000 0.008765079 0.009117302 0.009199486 0.009055889 0.008809123 1000 0.008765079 0.009117302 0.009199486 0.009055889 0.008809123 1000
lala 10 0.6 1 second 1 1 217 4 3.52 0.079998254776001 -1 1 1 1 0.01007283 0.009176414 0.008869605 0.008378527 0.008386252 1000 0.01007283 0.009176414 0.008869605 0.008378527 0.008386252 1000 0.009303965 0.009426997 0.009030651 0.008366711 0.007434338 1000 0.009303965 0.009426997 0.009030651 0.008366711 0.007434338 1000
lala 8 1.2 0 second 17 1 218 6 4.380001 0.179998159408569 0 1 -1 1 0.006760688 0.006303406 0.005388657 0.005578969 0.006295034 1000 0.006760688 0.006303406 0.005388657 0.005578969 0.006295034 1000 0.006366127 0.005605042 0.005363027 0.004998694 0.005675214 1000 0.006366127 0.005605042 0.005363027 0.004998694 0.005675214 1000
lala 11 0.6 1 first 11 1 219 6 6.780001 0.0999982357025146 1 1 1 1 0.005038925 0.004958358 0.005711681 1000 1000 1000 0.005038925 0.004958358 0.005711681 1000 1000 1000 0.004977402 0.004996322 0.004447952 0.004358746 0.0045097 1000 0.004977402 0.004996322 0.004447952 0.004358746 0.0045097 1000
lala 9 1.2 1 first 17 1 220 6 5.580001 0.459997892379761 0 1 1 0 0.004049992 0.003818044 0.0039769 1000 1000 1000 0.004049992 0.003818044 0.0039769 1000 1000 1000 0.005304342 0.004568614 0.004108714 0.003422384 0.004053835 1000 0.005304342 0.004568614 0.004108714 0.003422384 0.004053835 1000
lala 13 1.2 1 second 2 1 221 5 5.099999 0.159998178482056 -1 0 1 1 0.003866131 0.003915914 0.004512824 0.004918756 0.005585452 1000 0.003866131 0.003915914 0.004512824 0.004918756 0.005585452 1000 0.004799189 0.004909513 0.004281043 0.004461177 0.004872086 1000 0.004799189 0.004909513 0.004281043 0.004461177 0.004872086 1000
lala 15 0.6 1 second 5 1 222 6 7.380001 0.359997987747192 -1 1 1 0 0.005341124 0.004872115 0.004585093 0.005179007 0.005754441 1000 0.005341124 0.004872115 0.004585093 0.005179007 0.005754441 1000 0.005765026 0.004779823 0.005482907 0.0061001 0.006612268 1000 0.005765026 0.004779823 0.005482907 0.0061001 0.006612268 1000
lala 11 0.3 1 first 13 1 223 4 5.02 0.439997911453247 0 1 1 1 0.005379143 0.004636572 0.004402557 1000 1000 1000 0.005379143 0.004636572 0.004402557 1000 1000 1000 0.005665187 0.006269552 0.006090692 0.00602336 0.00575994 1000 0.005665187 0.006269552 0.006090692 0.00602336 0.00575994 1000
lala 11 0.6 0 second 6 1 224 4 3.24 0.219998121261597 1 0 -1 0 0.005218098 0.004654059 0.004657364 0.005870758 0.006328278 1000 0.005218098 0.004654059 0.004657364 0.005870758 0.006328278 1000 0.005767081 0.005606071 0.005593295 0.005136063 0.005088186 1000 0.005767081 0.005606071 0.005593295 0.005136063 0.005088186 1000
lala 15 0.3 0 first 4 1 225 6 7.26 0.179998159408569 -1 0 -1 1 0.005909803 0.006064493 0.006376839 1000 1000 1000 0.005909803 0.006064493 0.006376839 1000 1000 1000 0.005203855 0.005807966 0.006057849 0.005671734 0.004685744 1000 0.005203855 0.005807966 0.006057849 0.005671734 0.004685744 1000
lala 20 0.15 1 second 8 1 226 5 4.35 0.01999831199646 1 0 1 0 0.003992934 0.005004495 0.005204242 0.003997977 0.004865112 1000 0.003992934 0.005004495 0.005204242 0.003997977 0.004865112 1000 0.01352379 0.01147102 0.01014079 0.009710288 0.009470178 1000 0.01352379 0.01147102 0.01014079 0.009710288 0.009470178 1000
lala 21 0.15 0 first 8 1 227 5 4.2 0.01999831199646 1 0 -1 0 0.008509872 0.009146533 0.01146537 1000 1000 1000 0.008509872 0.009146533 0.01146537 1000 1000 1000 0.01068298 0.01052856 0.01026822 0.009827578 0.009708417 1000 0.01068298 0.01052856 0.01026822 0.009827578 0.009708417 1000
lala 9 1.2 1 first 16 1 228 6 3.96 0.159998178482056 0 0 1 1 0.009031554 0.008273896 0.007741057 1000 1000 1000 0.009031554 0.008273896 0.007741057 1000 1000 1000 0.007678615 0.00742251 0.007700537 0.007782512 0.007705117 1000 0.007678615 0.00742251 0.007700537 0.007782512 0.007705117 1000
lala 22 0.075 0 first 8 1 229 5 4.275 0.379997968673706 1 0 -1 1 0.007965249 0.007484889 0.007704117 1000 1000 1000 0.007965249 0.007484889 0.007704117 1000 1000 1000 0.00735308 0.008041697 0.008039382 0.008010543 0.007198346 1000 0.00735308 0.008041697 0.008039382 0.008010543 0.007198346 1000
lala 12 1.2 1 second 0 1 230 4 7.44 0.159998178482056 -1 0 1 0 0.007646734 0.006602508 0.006116742 0.006315953 0.006391887 1000 0.007646734 0.006602508 0.006116742 0.006315953 0.006391887 1000 0.007021214 0.00734223 0.007820822 0.00725799 0.007374274 1000 0.007021214 0.00734223 0.007820822 0.00725799 0.007374274 1000
lala 17 0.3 1 first 15 1 231 5 4.25 0.359997987747192 0 1 1 1 0.005898358 0.005367529 0.005312393 1000 1000 1000 0.005898358 0.005367529 0.005312393 1000 1000 1000 0.004307224 0.004407687 0.004454485 0.004232076 0.003651619 1000 0.004307224 0.004407687 0.004454485 0.004232076 0.003651619 1000
lala 7 1.2 0 second 7 1 232 4 1.32 0.279998064041138 1 1 -1 1 0.003661987 0.003018285 0.002977425 0.00337445 0.003774408 1000 0.003661987 0.003018285 0.002977425 0.00337445 0.003774408 1000 0.004393862 0.004262618 0.004146275 0.003288415 0.00310509 1000 0.004393862 0.004262618 0.004146275 0.003288415 0.00310509 1000
lala 23 0.075 1 second 8 1 233 5 4.35 0.119998216629028 1 0 1 0 0.002135002 0.001788244 0.002248899 0.002666859 0.003359243 1000 0.002135002 0.001788244 0.002248899 0.002666859 0.003359243 1000 0.003277668 0.003482082 0.002857319 0.002999753 0.00324039 1000 0.003277668 0.003482082 0.002857319 0.002999753 0.00324039 1000
lala 8 1.2 0 second 7 1 234 4 2.52 0.119998216629028 1 1 -1 1 0.002916218 0.002231554 0.002039705 0.002346038 0.003353276 1000 0.002916218 0.002231554 0.002039705 0.002346038 0.003353276 1000 0.003385714 0.002535873 0.002325363 0.00275325 0.003710898 1000 0.003385714 0.002535873 0.002325363 0.00275325 0.003710898 1000
lala 16 0.3 1 second 3 1 235 5 5 0.519997835159302 -1 1 1 0 0.001976564 0.002014701 0.002357741 0.002681459 0.002167331 1000 0.001976564 0.002014701 0.002357741 0.002681459 0.002167331 1000 0.00146083 0.000812042 0.0008138365 0.00153441 0.002210608 1000 0.00146083 0.000812042 0.0008138365 0.00153441 0.002210608 1000
lala 14 2.4 0 first 2 1 236 5 2.699999 0.079998254776001 -1 0 -1 0 0.001084066 0.0009596713 0.001221182 1000 1000 1000 0.001084066 0.0009596713 0.001221182 1000 1000 1000 0.001151021 0.00174659 0.002681981 0.002229177 0.001856498 1000 0.001151021 0.00174659 0.002681981 0.002229177 0.001856498 1000
lala 11 0.6 1 first 9 1 237 5 3.05 0.339998006820679 1 1 1 1 2.51825E-06 -1.289029E-05 -0.0001952336 1000 1000 1000 2.51825E-06 -1.289029E-05 -0.0001952336 1000 1000 1000 -0.0006424763 4.524417E-05 0.002360007 0.002284661 0.000770322 1000 -0.0006424763 4.524417E-05 0.002360007 0.002284661 0.000770322 1000
lala 13 1.2 1 first 0 1 238 4 6.24 0.359997987747192 -1 0 1 0 0.0005835944 0.001951112 0.002222367 1000 1000 1000 0.0005835944 0.001951112 0.002222367 1000 1000 1000 0.0008405994 0.001107543 0.001082158 0.0009423385 0.000979556 1000 0.0008405994 0.001107543 0.001082158 0.0009423385 0.000979556 1000
lala 16 0.15 0 first 4 1 239 6 7.41 0.459997892379761 -1 0 -1 1 -0.0002416449 -0.0002389922 -0.0007519088 1000 1000 1000 -0.0002416449 -0.0002389922 -0.0007519088 1000 1000 1000 -0.001057106 -0.0005700878 0.0007317576 0.0002765944 -0.0003887881 1000 -0.001057106 -0.0005700878 0.0007317576 0.0002765944 -0.0003887881 1000
lala 11 0.3 0 first 1 1 240 4 3.22 0.079998254776001 -1 1 -1 1 -0.001502325 -0.001197022 -0.0003440563 1000 1000 1000 -0.001502325 -0.001197022 -0.0003440563 1000 1000 1000 -8.882377E-05 -0.0003882507 -0.0007924159 -0.001322093 -0.001555114 1000 -8.882377E-05 -0.0003882507 -0.0007924159 -0.001322093 -0.001555114 1000
lala 12 0.3 1 first 6 1 241 4 3.54 0.179998159408569 1 0 1 0 -0.001062087 0.0001885212 0.001807548 1000 1000 1000 -0.001062087 0.0001885212 0.001807548 1000 1000 1000 -0.00274832 -0.001229084 -0.001131792 -0.00267058 -0.003098986 1000 -0.00274832 -0.001229084 -0.001131792 -0.00267058 -0.003098986 1000
lala 15 0.0375 0 second 12 1 242 4 1.8525 0.699997663497925 0 0 -1 0 -0.005729756 -0.003678548 -0.002344404 -0.002878706 -0.003786436 1000 -0.005729756 -0.003678548 -0.002344404 -0.002878706 -0.003786436 1000 -0.00437597 -0.004416394 -0.004498771 -0.004396381 -0.003723602 1000 -0.00437597 -0.004416394 -0.004498771 -0.004396381 -0.003723602 1000
lala 9 1.2 0 second 7 1 243 4 3.72 0.279998064041138 1 1 -1 1 -0.002711164 -0.001570694 -0.001317747 -0.002178095 -0.003409281 1000 -0.002711164 -0.001570694 -0.001317747 -0.002178095 -0.003409281 1000 -0.004515748 -0.004658181 -0.003930391 -0.00414593 -0.004628988 1000 -0.004515748 -0.004658181 -0.003930391 -0.00414593 -0.004628988 1000
lala 12 0.15 0 first 1 1 244 4 3.37 0.219998121261597 -1 1 -1 1 -0.004634666 -0.003940455 -0.003313933 1000 1000 1000 -0.004634666 -0.003940455 -0.003313933 1000 1000 1000 -0.002561345 -0.003473397 -0.003489673 -0.003369548 -0.003132347 1000 -0.002561345 -0.003473397 -0.003489673 -0.003369548 -0.003132347 1000
lala 18 0.15 1 first 15 1 245 5 4.099999 0.0599982738494873 0 1 1 1 -0.005220423 -0.004674488 -0.005214134 1000 1000 1000 -0.005220423 -0.004674488 -0.005214134 1000 1000 1000 -0.004074864 -0.004773951 -0.004738296 -0.004434766 -0.003417023 1000 -0.004074864 -0.004773951 -0.004738296 -0.004434766 -0.003417023 1000
lala 24 0.0375 0 first 8 1 246 5 4.3125 0.23999810218811 1 0 -1 1 -0.004584783 -0.004705025 -0.004717144 1000 1000 1000 -0.004584783 -0.004705025 -0.004717144 1000 1000 1000 -0.003499121 -0.003008266 -0.00319902 -0.003708011 -0.004174259 1000 -0.003499121 -0.003008266 -0.00319902 -0.003708011 -0.004174259 1000
lala 12 0.6 0 second 9 1 247 5 2.45 0.299998044967651 1 1 -1 0 -0.003128075 -0.003601968 -0.003927689 -0.004231672 -0.003796874 1000 -0.003128075 -0.003601968 -0.003927689 -0.004231672 -0.003796874 1000 -0.002914606 -0.002247486 -0.002895799 -0.003103244 -0.003797441 1000 -0.002914606 -0.002247486 -0.002895799 -0.003103244 -0.003797441 1000
lala 25 0.01875 1 second 8 1 248 5 4.33125 0.119998216629028 1 0 1 1 -0.003282209 -0.003053246 -0.002929556 -0.002559901 -0.003089198 1000 -0.003282209 -0.003053246 -0.002929556 -0.002559901 -0.003089198 1000 -0.008797249 -0.009030581 -0.00798513 -0.006433955 -0.005474871 1000 -0.008797249 -0.009030581 -0.00798513 -0.006433955 -0.005474871 1000
lala 17 0.15 1 first 14 1 249 5 3.975 0.299998044967651 0 0 1 0 -0.006198385 -0.006979287 -0.008475822 1000 1000 1000 -0.006198385 -0.006979287 -0.008475822 1000 1000 1000 -0.007961451 -0.007514862 -0.006401015 -0.006748946 -0.007250136 1000 -0.007961451 -0.007514862 -0.006401015 -0.006748946 -0.007250136 1000
lala 12 0.6 1 first 11 1 250 6 6.180001 0.01999831199646 1 1 1 0 0.01377046 0.01160976 0.01001657 0.006714324 0.003884546 0.0006094773 0.01377046 0.01160976 0.01001657 0.006714324 0.003884546 0.0006094773 0.001743383 0.002161202 0.00326092 0.004284711 0.004385329 1000 0.001743383 0.002161202 0.00326092 0.004284711 0.004385329 1000
lala 10 2.4 1 first 7 1 251 4 6.12 0.01999831199646 1 1 1 0 0.003895512 0.002572742 0.002428793 1000 1000 1000 0.003895512 0.002572742 0.002428793 1000 1000 1000 0.002277436 0.001950054 0.002537478 0.003757442 0.004122667 1000 0.002277436 0.001950054 0.002537478 0.003757442 0.004122667 1000
lala 10 0.6 1 first 17 1 252 6 4.980001 0.23999810218811 0 1 1 1 0.002765459 0.002844995 0.00244336 1000 1000 1000 0.002765459 0.002844995 0.00244336 1000 1000 1000 0.001669048 0.001224862 0.0008039348 0.001318422 0.00172867 1000 0.001669048 0.001224862 0.0008039348 0.001318422 0.00172867 1000
lala 18 0.3 1 second 14 1 253 5 3.675 0.299998044967651 0 0 1 1 0.000776681 0.0005708081 0.0002244819 0.000842939 0.0006799099 1000 0.000776681 0.0005708081 0.0002244819 0.000842939 0.0006799099 1000 -0.0002349577 -0.001183061 -0.001525195 -0.00137336 -0.0008077913 1000 -0.0002349577 -0.001183061 -0.001525195 -0.00137336 -0.0008077913 1000
lala 19 0.6 0 first 14 1 254 5 3.075 0.259998083114624 0 0 -1 1 -0.00126425 -0.001859363 -0.002843206 1000 1000 1000 -0.00126425 -0.001859363 -0.002843206 1000 1000 1000 -0.0039116 -0.00396089 -0.003298732 -0.00207406 -0.001731721 1000 -0.0039116 -0.00396089 -0.003298732 -0.00207406 -0.001731721 1000
lala 11 1.2 1 second 7 1 255 4 4.92 0.01999831199646 1 1 1 0 -0.005668733 -0.004996561 -0.005452368 -0.005439833 -0.00571203 1000 -0.005668733 -0.004996561 -0.005452368 -0.005439833 -0.00571203 1000 -0.005252053 -0.004552382 -0.00364719 -0.005421651 -0.007750592 1000 -0.005252053 -0.004552382 -0.00364719 -0.005421651 -0.007750592 1000
lala 14 1.2 1 second 0 1 256 4 5.04 0.01999831199646 -1 0 1 0 0.001352484 -0.002708792 -0.004572731 -0.00257113 -0.001549246 1000 0.001352484 -0.002708792 -0.004572731 -0.00257113 -0.001549246 1000 -0.004701226 -0.004032371 -0.003817155 -0.003405086 -0.002566684 1000 -0.004701226 -0.004032371 -0.003817155 -0.003405086 -0.002566684 1000
lala 12 1.2 0 second 7 1 257 4 3.72 0.179998159408569 1 1 -1 0 -0.005303809 -0.005339419 -0.005433897 -0.00470058 -0.005257771 1000 -0.005303809 -0.005339419 -0.005433897 -0.00470058 -0.005257771 1000 -0.003088803 -0.00345869 -0.003546051 -0.00359823 -0.003006616 1000 -0.003088803 -0.00345869 -0.003546051 -0.00359823 -0.003006616 1000
lala 19 0.15 1 second 15 1 258 5 3.949999 0.319998025894165 0 1 1 0 -0.006552783 -0.006494047 -0.005878776 -0.005759837 -0.006219994 1000 -0.006552783 -0.006494047 -0.005878776 -0.005759837 -0.006219994 1000 -0.007127697 -0.00783688 -0.0075112 -0.006800081 -0.006503906 1000 -0.007127697 -0.00783688 -0.0075112 -0.006800081 -0.006503906 1000
lala 17 0.15 0 first 4 1 259 6 7.56 0.219998121261597 -1 0 -1 0 -0.005481725 -0.006629209 -0.008044641 1000 1000 1000 -0.005481725 -0.006629209 -0.008044641 1000 1000 1000 -0.008755785 -0.008476099 -0.008083101 -0.008725458 -0.008984594 1000 -0.008755785 -0.008476099 -0.008083101 -0.008725458 -0.008984594 1000
lala 13 1.2 0 first 11 1 260 6 4.98 0.01999831199646 1 1 -1 0 -0.01025955 -0.01010685 -0.01024902 1000 1000 1000 -0.01025955 -0.01010685 -0.01024902 1000 1000 1000 -0.01065867 -0.01089707 -0.01091781 -0.01151062 -0.01159873 1000 -0.01065867 -0.01089707 -0.01091781 -0.01151062 -0.01159873 1000
lala 13 0.15 0 first 1 1 261 4 3.52 0.079998254776001 -1 1 -1 0 -0.01287622 -0.01322652 -0.01325142 1000 1000 1000 -0.01287622 -0.01322652 -0.01325142 1000 1000 1000 -0.01253026 -0.01179688 -0.01120597 -0.01139398 -0.01133683 1000 -0.01253026 -0.01179688 -0.01120597 -0.01139398 -0.01133683 1000
lala 17 0.15 1 second 3 1 262 5 4.85 0.499997854232788 -1 1 1 1 -0.01265788 -0.01239077 -0.01202684 -0.01253948 -0.01294656 1000 -0.01265788 -0.01239077 -0.01202684 -0.01253948 -0.01294656 1000 -0.01335896 -0.01316899 -0.01289898 -0.01231275 -0.01223537 1000 -0.01335896 -0.01316899 -0.01289898 -0.01231275 -0.01223537 1000
lala 26 0.009375 0 second 8 1 263 5 4.321875 0.299998044967651 1 0 -1 0 -0.01095479 -0.01165715 -0.01263495 -0.01233121 -0.01165435 1000 -0.01095479 -0.01165715 -0.01263495 -0.01233121 -0.01165435 1000 -0.01081245 -0.01131288 -0.01199223 -0.01239943 -0.01205332 1000 -0.01081245 -0.01131288 -0.01199223 -0.01239943 -0.01205332 1000
lala 13 0.15 0 first 6 1 264 4 3.39 0.079998254776001 1 0 -1 0 -0.01168939 -0.01186218 -0.01248975 1000 1000 1000 -0.01168939 -0.01186218 -0.01248975 1000 1000 1000 -0.01238186 -0.01318557 -0.01273027 -0.01242787 -0.01235807 1000 -0.01238186 -0.01318557 -0.01273027 -0.01242787 -0.01235807 1000
lala 13 0.6 1 second 7 1 265 4 4.32 0.479997873306274 1 1 1 0 -0.01343135 -0.01298731 -0.01238154 -0.01236968 -0.01242083 1000 -0.01343135 -0.01298731 -0.01238154 -0.01236968 -0.01242083 1000 -0.01402142 -0.01440219 -0.01432293 -0.0140138 -0.01322488 1000 -0.01402142 -0.01440219 -0.01432293 -0.0140138 -0.01322488 1000
lala 10 1.2 0 first 16 1 266 6 2.76 0.079998254776001 0 0 -1 0 -0.0139406 -0.01491833 -0.01617905 1000 1000 1000 -0.0139406 -0.01491833 -0.01617905 1000 1000 1000 -0.01531625 -0.0151522 -0.01470435 -0.01432538 -0.01491475 1000 -0.01531625 -0.0151522 -0.01470435 -0.01432538 -0.01491475 1000
lala 14 0.3 1 second 7 1 267 4 4.02 0.379997968673706 1 1 1 1 -0.01650623 -0.01626496 -0.01535388 -0.01544669 -0.01554668 1000 -0.01650623 -0.01626496 -0.01535388 -0.01544669 -0.01554668 1000 -0.01664164 -0.01656995 -0.01560543 -0.01521228 -0.01547965 1000 -0.01664164 -0.01656995 -0.01560543 -0.01521228 -0.01547965 1000
lala 14 0.6 1 second 11 1 268 6 5.58 0.079998254776001 1 1 1 0 -0.01687843 -0.01695297 -0.01748387 -0.01808074 -0.01754586 1000 -0.01687843 -0.01695297 -0.01748387 -0.01808074 -0.01754586 1000 -0.01084015 -0.01022232 -0.009430084 -0.007935484 -0.005615189 1000 -0.01084015 -0.01022232 -0.009430084 -0.007935484 -0.005615189 1000
lala 11 0.6 0 second 16 1 269 6 3.36 0.299998044967651 0 0 -1 1 -0.01143241 -0.01144994 -0.009999028 -0.009058589 -0.009305854 1000 -0.01143241 -0.01144994 -0.009999028 -0.009058589 -0.009305854 1000 -0.01118305 -0.01131699 -0.01116701 -0.01057478 -0.01023803 1000 -0.01118305 -0.01131699 -0.01116701 -0.01057478 -0.01023803 1000
lala 14 0.15 1 first 1 1 270 4 3.67 5.15999364852905 -1 1 1 1 -0.01272102 -0.0126709 -0.01240627 1000 1000 1000 -0.01272102 -0.0126709 -0.01240627 1000 1000 1000 -0.01392926 -0.01372404 -0.01340005 -0.01278072 -0.01262621 1000 -0.01392926 -0.01372404 -0.01340005 -0.01278072 -0.01262621 1000
lala 27 0.0046875 1 second 8 1 271 5 4.326562 0.419997930526733 1 0 1 1 -0.007961155 -0.00847996 -0.008728839 -0.008516722 -0.009156536 1000 -0.007961155 -0.00847996 -0.008728839 -0.008516722 -0.009156536 1000 -0.009016764 -0.009349769 -0.009199408 -0.008953846 -0.008520476 1000 -0.009016764 -0.009349769 -0.009199408 -0.008953846 -0.008520476 1000
lala 12 0.6 0 first 16 1 272 6 3.96 2.05999660491943 0 0 -1 0 -0.007380089 -0.007790572 -0.009084929 1000 1000 1000 -0.007380089 -0.007790572 -0.009084929 1000 1000 1000 -0.009706623 -0.009844881 -0.009414665 -0.008564877 -0.008586953 1000 -0.009706623 -0.009844881 -0.009414665 -0.008564877 -0.008586953 1000
lala 15 0.3 1 second 11 1 273 6 5.28 0.0999982357025146 1 1 1 1 -0.008515726 -0.009021324 -0.009707536 -0.009561741 -0.009393853 1000 -0.008515726 -0.009021324 -0.009707536 -0.009561741 -0.009393853 1000 -0.01013546 -0.01039954 -0.010625 -0.01115677 -0.01129978 1000 -0.01013546 -0.01039954 -0.010625 -0.01115677 -0.01129978 1000
lala 15 1.2 0 first 2 1 274 5 3.899999 0.0999982357025146 -1 0 -1 1 -0.009590343 -0.0108689 -0.01110231 1000 1000 1000 -0.009590343 -0.0108689 -0.01110231 1000 1000 1000 -0.01309932 -0.01241957 -0.012416 -0.0126348 -0.01320351 1000 -0.01309932 -0.01241957 -0.012416 -0.0126348 -0.01320351 1000
lala 15 0.3 0 first 7 1 275 4 3.72 0.519997835159302 1 1 -1 1 -0.01273232 -0.01320041 -0.01379049 1000 1000 1000 -0.01273232 -0.01320041 -0.01379049 1000 1000 1000 -0.01578526 -0.01559102 -0.01474887 -0.01468442 -0.01476717 1000 -0.01578526 -0.01559102 -0.01474887 -0.01468442 -0.01476717 1000
lala 16 1.2 0 first 2 1 276 5 5.099999 0.459997892379761 -1 0 -1 0 -0.01545431 -0.0153467 -0.01453542 1000 1000 1000 -0.01545431 -0.0153467 -0.01453542 1000 1000 1000 -0.0148957 -0.01511991 -0.01547449 -0.01566158 -0.01579508 1000 -0.0148957 -0.01511991 -0.01547449 -0.01566158 -0.01579508 1000
lala 18 0.15 0 first 3 1 277 5 4.7 0.119998216629028 -1 1 -1 1 -0.01430061 -0.01420027 -0.01525727 1000 1000 1000 -0.01430061 -0.01420027 -0.01525727 1000 1000 1000 -0.01596924 -0.01578191 -0.01515755 -0.01550638 -0.01573714 1000 -0.01596924 -0.01578191 -0.01515755 -0.01550638 -0.01573714 1000
lala 17 1.2 0 first 2 1 278 5 6.299999 0.339998006820679 -1 0 -1 0 -0.01403199 -0.01413769 -0.01447142 1000 1000 1000 -0.01403199 -0.01413769 -0.01447142 1000 1000 1000 -0.01477575 -0.01403763 -0.01434232 -0.01465275 -0.01453841 1000 -0.01477575 -0.01403763 -0.01434232 -0.01465275 -0.01453841 1000
lala 13 0.6 0 second 16 1 279 6 4.559999 0.359997987747192 0 0 -1 0 -0.01431857 -0.01585901 -0.01650574 -0.01601601 -0.0151166 1000 -0.01431857 -0.01585901 -0.01650574 -0.01601601 -0.0151166 1000 -0.01548917 -0.01602524 -0.01570432 -0.01522023 -0.01492704 1000 -0.01548917 -0.01602524 -0.01570432 -0.01522023 -0.01492704 1000
lala 16 0.15 0 second 7 1 280 4 3.87 0.219998121261597 1 1 -1 0 -0.01492186 -0.01655735 -0.01720865 -0.01617603 -0.0146393 1000 -0.01492186 -0.01655735 -0.01720865 -0.01617603 -0.0146393 1000 -0.01526204 -0.0153507 -0.01570272 -0.01658433 -0.01615609 1000 -0.01526204 -0.0153507 -0.01570272 -0.01658433 -0.01615609 1000
lala 16 0.6 1 second 5 1 281 6 6.780001 0.139998197555542 -1 1 1 0 -0.01576177 -0.01675 -0.01707726 -0.01586551 -0.01403568 1000 -0.01576177 -0.01675 -0.01707726 -0.01586551 -0.01403568 1000 -0.01463667 -0.01632448 -0.01672139 -0.01610554 -0.01487875 1000 -0.01463667 -0.01632448 -0.01672139 -0.01610554 -0.01487875 1000
lala 18 2.4 1 second 2 1 282 5 8.699999 0.119998216629028 -1 0 1 0 -0.01696507 -0.01714279 -0.01631207 -0.01568746 -0.01525456 1000 -0.01696507 -0.01714279 -0.01631207 -0.01568746 -0.01525456 1000 -0.01642413 -0.01635325 -0.01572873 -0.01679743 -0.01772898 1000 -0.01642413 -0.01635325 -0.01572873 -0.01679743 -0.01772898 1000
lala 19 0.075 1 first 3 1 283 5 4.775 0.279998064041138 -1 1 1 0 -0.01697925 -0.01724206 -0.01816986 1000 1000 1000 -0.01697925 -0.01724206 -0.01816986 1000 1000 1000 -0.01845098 -0.01900863 -0.01794031 -0.01738499 -0.01725381 1000 -0.01845098 -0.01900863 -0.01794031 -0.01738499 -0.01725381 1000
lala 28 0.00234375 0 second 8 1 284 5 4.324219 0.259998083114624 1 0 -1 0 -0.01830718 -0.017783 -0.01771138 -0.01671863 -0.01592498 1000 -0.01830718 -0.017783 -0.01771138 -0.01671863 -0.01592498 1000 -0.01744622 -0.01559466 -0.01359377 -0.01336585 -0.01365969 1000 -0.01744622 -0.01559466 -0.01359377 -0.01336585 -0.01365969 1000
lala 20 0.0375 1 second 3 1 285 5 4.7375 0.179998159408569 -1 1 1 0 -0.0184272 -0.01829327 -0.01796195 -0.01755554 -0.01771681 1000 -0.0184272 -0.01829327 -0.01796195 -0.01755554 -0.01771681 1000 -0.01727249 -0.01734192 -0.01812755 -0.01853864 -0.01866501 1000 -0.01727249 -0.01734192 -0.01812755 -0.01853864 -0.01866501 1000
lala 18 0.15 1 second 4 1 286 6 7.710001 0.179998159408569 -1 0 1 1 -0.0187077 -0.0185945 -0.01855863 -0.01762788 -0.01770498 1000 -0.0187077 -0.0185945 -0.01855863 -0.01762788 -0.01770498 1000 -0.01669584 -0.01712509 -0.01728864 -0.0173607 -0.01673657 1000 -0.01669584 -0.01712509 -0.01728864 -0.0173607 -0.01673657 1000
lala 17 0.15 0 second 7 1 287 4 4.02 0.119998216629028 1 1 -1 1 -0.0183697 -0.01809388 -0.01751069 -0.0168124 -0.01688769 1000 -0.0183697 -0.01809388 -0.01751069 -0.0168124 -0.01688769 1000 -0.01975101 -0.02019042 -0.01973385 -0.01888692 -0.01793975 1000 -0.01975101 -0.02019042 -0.01973385 -0.01888692 -0.01793975 1000
lala 29 0.001171875 1 second 8 1 288 5 4.325391 0.0999982357025146 1 0 1 0 -0.0204572 -0.02045945 -0.02029084 -0.01976495 -0.02022868 1000 -0.0204572 -0.02045945 -0.02029084 -0.01976495 -0.02022868 1000 -0.02149241 -0.02127237 -0.02083879 -0.02005739 -0.0204243 1000 -0.02149241 -0.02127237 -0.02083879 -0.02005739 -0.0204243 1000
lala 19 0.075 1 first 4 1 289 6 7.635001 0.539997816085815 -1 0 1 1 -0.0216579 -0.02219918 -0.02341918 1000 1000 1000 -0.0216579 -0.02219918 -0.02341918 1000 1000 1000 -0.02459997 -0.02269888 -0.02057581 -0.02081682 -0.02094328 1000 -0.02459997 -0.02269888 -0.02057581 -0.02081682 -0.02094328 1000
lala 16 0.0375 0 first 12 1 290 4 1.89 0.199998140335083 0 0 -1 0 -0.02145464 -0.02153282 -0.02208949 1000 1000 1000 -0.02145464 -0.02153282 -0.02208949 1000 1000 1000 -0.01962599 -0.01921355 -0.01836792 -0.01797982 -0.01748768 1000 -0.01962599 -0.01921355 -0.01836792 -0.01797982 -0.01748768 1000
lala 18 0.15 1 first 7 1 291 4 4.17 0.0399982929229736 1 1 1 1 -0.01856646 -0.01877321 -0.01914499 1000 1000 1000 -0.01856646 -0.01877321 -0.01914499 1000 1000 1000 -0.01798727 -0.01813741 -0.0173986 -0.0166119 -0.01592335 1000 -0.01798727 -0.01813741 -0.0173986 -0.0166119 -0.01592335 1000
lala 20 0.15 1 first 15 1 292 5 3.799999 0.23999810218811 0 1 1 0 -0.01627714 -0.01522023 -0.015647 1000 1000 1000 -0.01627714 -0.01522023 -0.015647 1000 1000 1000 -0.01646299 -0.01731507 -0.01702826 -0.01627406 -0.01501683 1000 -0.01646299 -0.01731507 -0.01702826 -0.01627406 -0.01501683 1000
lala 13 0.3 0 second 9 1 293 5 2.75 0.01999831199646 1 1 -1 1 -0.01546219 -0.01451583 -0.01495732 -0.01502644 -0.01515562 1000 -0.01546219 -0.01451583 -0.01495732 -0.01502644 -0.01515562 1000 -0.016449 -0.01615251 -0.01578596 -0.01600183 -0.01581794 1000 -0.016449 -0.01615251 -0.01578596 -0.01600183 -0.01581794 1000
lala 14 1.2 1 second 16 1 294 6 5.759999 0.0599982738494873 0 0 1 1 -0.01571099 -0.01561996 -0.01556155 -0.01514535 -0.01550636 1000 -0.01571099 -0.01561996 -0.01556155 -0.01514535 -0.01550636 1000 -0.01578912 -0.01658005 -0.01684937 -0.01660974 -0.01600381 1000 -0.01578912 -0.01658005 -0.01684937 -0.01660974 -0.01600381 1000
lala 19 0.075 0 first 7 1 295 4 4.095 0.01999831199646 1 1 -1 0 -0.01648056 -0.01665608 -0.01721017 1000 1000 1000 -0.01648056 -0.01665608 -0.01721017 1000 1000 1000 -0.01624587 -0.01619358 -0.01648794 -0.01654727 -0.01650545 1000 -0.01624587 -0.01619358 -0.01648794 -0.01654727 -0.01650545 1000
lala 14 0.3 0 first 9 1 296 5 3.05 0.01999831199646 1 1 -1 1 -0.01596344 -0.01701678 -0.01712032 1000 1000 1000 -0.01596344 -0.01701678 -0.01712032 1000 1000 1000 -0.01495604 -0.01162114 -0.009458917 -0.008373925 -0.009092417 1000 -0.01495604 -0.01162114 -0.009458917 -0.008373925 -0.009092417 1000
lala 21 0.3 1 first 15 1 297 5 3.499999 0.119998216629028 0 1 1 0 -0.01154986 -0.01249083 -0.01249887 1000 1000 1000 -0.01154986 -0.01249083 -0.01249887 1000 1000 1000 -0.009030899 -0.008684429 -0.009613473 -0.01050077 -0.01149271 1000 -0.009030899 -0.008684429 -0.009613473 -0.01050077 -0.01149271 1000
lala 15 0.6 0 first 16 1 298 6 5.159999 0.0999982357025146 0 0 -1 1 -0.01249084 -0.01217317 -0.01188256 1000 1000 1000 -0.01249084 -0.01217317 -0.01188256 1000 1000 1000 -0.0106379 -0.011057 -0.0110669 -0.01150888 -0.01143772 1000 -0.0106379 -0.011057 -0.0110669 -0.01150888 -0.01143772 1000
lala 15 2.4 0 second 0 1 299 4 2.64 0.319998025894165 -1 0 -1 0 -0.01135359 -0.01191055 -0.01238995 -0.01235033 -0.01234365 1000 -0.01135359 -0.01191055 -0.01238995 -0.01235033 -0.01234365 1000 -0.01161477 -0.01213537 -0.01268136 -0.01246358 -0.01216205 1000 -0.01161477 -0.01213537 -0.01268136 -0.01246358 -0.01216205 1000
lala 21 0.0375 0 second 3 1 300 5 4.7 0.079998254776001 -1 1 -1 0 -0.002010171 -0.00272392 -0.005504558 -0.007653715 -0.008842899 1000 -0.002010171 -0.00272392 -0.005504558 -0.007653715 -0.008842899 1000 -0.005312377 -0.004604547 -0.003965481 -0.004196218 -0.003796107 1000 -0.005312377 -0.004604547 -0.003965481 -0.004196218 -0.003796107 1000
lala 20 0.0375 1 second 7 1 301 4 4.1325 0.01999831199646 1 1 1 1 -0.004757036 -0.004424559 -0.004164294 -0.00431459 -0.004241888 1000 -0.004757036 -0.004424559 -0.004164294 -0.00431459 -0.004241888 1000 -0.004957699 -0.004627445 -0.004385086 -0.003515712 -0.003364923 1000 -0.004957699 -0.004627445 -0.004385086 -0.003515712 -0.003364923 1000
lala 22 0.01875 1 second 3 1 302 5 4.71875 0.079998254776001 -1 1 1 0 -0.005559632 -0.005327324 -0.004936233 -0.004002071 -0.00483169 1000 -0.005559632 -0.005327324 -0.004936233 -0.004002071 -0.00483169 1000 -0.00533221 -0.005981741 -0.005943387 -0.005931737 -0.005278696 1000 -0.00533221 -0.005981741 -0.005943387 -0.005931737 -0.005278696 1000
lala 20 0.3 1 second 14 1 303 5 3.375 0.0999982357025146 0 0 1 0 -0.007155919 -0.007168062 -0.007159693 -0.006244479 -0.005803722 1000 -0.007155919 -0.007168062 -0.007159693 -0.006244479 -0.005803722 1000 -0.006287126 -0.007848443 -0.007517314 -0.00693542 -0.006189175 1000 -0.006287126 -0.007848443 -0.007517314 -0.00693542 -0.006189175 1000
lala 30 0.0005859375 0 second 8 1 304 5 4.324805 0.139998197555542 1 0 -1 0 -0.00737806 -0.007618042 -0.007778738 -0.006921952 -0.006896153 1000 -0.00737806 -0.007618042 -0.007778738 -0.006921952 -0.006896153 1000 -0.007454402 -0.008311879 -0.007852923 -0.007474819 -0.006826079 1000 -0.007454402 -0.008311879 -0.007852923 -0.007474819 -0.006826079 1000
lala 11 0.6 1 second 17 1 305 6 4.380001 0.859997510910034 0 1 1 0 -0.00945863 -0.009519237 -0.009147959 -0.008405111 -0.008058384 1000 -0.00945863 -0.009519237 -0.009147959 -0.008405111 -0.008058384 1000 -0.009460195 -0.009751319 -0.009442706 -0.008967444 -0.007949702 1000 -0.009460195 -0.009751319 -0.009442706 -0.008967444 -0.007949702 1000
lala 22 0.6 0 second 15 1 306 5 2.899999 0.139998197555542 0 1 -1 1 -0.008698396 -0.008717869 -0.008503384 -0.00767909 -0.008101049 1000 -0.008698396 -0.008717869 -0.008503384 -0.00767909 -0.008101049 1000 -0.008888459 -0.009105722 -0.008967511 -0.008007469 -0.008503299 1000 -0.008888459 -0.009105722 -0.008967511 -0.008007469 -0.008503299 1000
lala 31 0.0002929688 1 first 8 1 307 5 4.325098 0.01999831199646 1 0 1 0 -0.009193908 -0.01025819 -0.01055385 1000 1000 1000 -0.009193908 -0.01025819 -0.01055385 1000 1000 1000 -0.01137542 -0.01099367 -0.0101218 -0.009220107 -0.009406235 1000 -0.01137542 -0.01099367 -0.0101218 -0.009220107 -0.009406235 1000
lala 15 0.075 0 second 1 1 308 4 3.595 0.079998254776001 -1 1 -1 1 -0.01178817 -0.01162806 -0.01093656 -0.00979159 -0.01003769 1000 -0.01178817 -0.01162806 -0.01093656 -0.00979159 -0.01003769 1000 -0.01173986 -0.01223367 -0.01224149 -0.01186254 -0.01113421 1000 -0.01173986 -0.01223367 -0.01224149 -0.01186254 -0.01113421 1000
lala 16 0.0375 1 second 1 1 309 4 3.6325 0.01999831199646 -1 1 1 0 -0.01299233 -0.01303979 -0.01257358 -0.01169149 -0.01011907 1000 -0.01299233 -0.01303979 -0.01257358 -0.01169149 -0.01011907 1000 -0.0122667 -0.01221953 -0.01226569 -0.01208599 -0.0108657 1000 -0.0122667 -0.01221953 -0.01226569 -0.01208599 -0.0108657 1000
lala 20 0.075 1 first 4 1 310 6 7.560001 0.119998216629028 -1 0 1 1 -0.01254037 -0.01278319 -0.01296148 1000 1000 1000 -0.01254037 -0.01278319 -0.01296148 1000 1000 1000 -0.01205294 -0.01245179 -0.01235192 -0.0122621 -0.01146048 1000 -0.01205294 -0.01245179 -0.01235192 -0.0122621 -0.01146048 1000
lala 16 1.2 0 second 0 1 311 4 3.84 0.199998140335083 -1 0 -1 1 -0.01155725 -0.01207849 -0.01212656 -0.0114339 -0.01001155 1000 -0.01155725 -0.01207849 -0.01212656 -0.0114339 -0.01001155 1000 -0.01242463 -0.0124729 -0.01322451 -0.01300497 -0.01252684 1000 -0.01242463 -0.0124729 -0.01322451 -0.01300497 -0.01252684 1000
lala 15 0.3 1 second 9 1 312 5 3.35 0.01999831199646 1 1 1 0 -0.0116493 -0.01216583 -0.01162951 -0.01078504 -0.009643241 1000 -0.0116493 -0.01216583 -0.01162951 -0.01078504 -0.009643241 1000 -0.01169226 -0.01202353 -0.01217039 -0.01195714 -0.01098283 1000 -0.01169226 -0.01202353 -0.01217039 -0.01195714 -0.01098283 1000
lala 16 0.15 0 first 9 1 313 5 3.2 0.119998216629028 1 1 -1 0 -0.011943 -0.01146769 -0.01246305 1000 1000 1000 -0.011943 -0.01146769 -0.01246305 1000 1000 1000 -0.01229328 -0.01224383 -0.01193434 -0.01064767 -0.01035293 1000 -0.01229328 -0.01224383 -0.01193434 -0.01064767 -0.01035293 1000
lala 19 1.2 1 second 2 1 314 5 7.499999 0.159998178482056 -1 0 1 1 -0.01297481 -0.0125891 -0.01181272 -0.01070652 -0.01106096 1000 -0.01297481 -0.0125891 -0.01181272 -0.01070652 -0.01106096 1000 -0.01329985 -0.01323428 -0.01279745 -0.01156552 -0.01134597 1000 -0.01329985 -0.01323428 -0.01279745 -0.01156552 -0.01134597 1000
lala 16 0.3 0 second 16 1 315 6 5.46 0.0599982738494873 0 0 -1 0 -0.01294034 -0.01267559 -0.01163151 -0.01149443 -0.01184196 1000 -0.01294034 -0.01267559 -0.01163151 -0.01149443 -0.01184196 1000 -0.01402148 -0.0136794 -0.01288722 -0.01215135 -0.01283581 1000 -0.01402148 -0.0136794 -0.01288722 -0.01215135 -0.01283581 1000
lala 12 0.6 1 second 17 1 316 6 3.780001 0.279998064041138 0 1 1 1 -0.01334984 -0.01357515 -0.01249844 -0.01208333 -0.01204073 1000 -0.01334984 -0.01357515 -0.01249844 -0.01208333 -0.01204073 1000 -0.009717909 -0.008502316 -0.00862352 -0.01075697 -0.01260112 1000 -0.009717909 -0.008502316 -0.00862352 -0.01075697 -0.01260112 1000
lala 16 0.6 0 first 10 1 317 6 3.96 0.0999982357025146 1 0 -1 0 -0.0141164 -0.01213741 -0.01137787 1000 1000 1000 -0.0141164 -0.01213741 -0.01137787 1000 1000 1000 -0.0105564 -0.01098203 -0.01126881 -0.01212664 -0.01246404 1000 -0.0105564 -0.01098203 -0.01126881 -0.01212664 -0.01246404 1000
lala 17 0.0375 0 second 12 1 318 4 1.9275 0.23999810218811 0 0 -1 1 -0.01249107 -0.01291759 -0.0130247 -0.01353365 -0.01332419 1000 -0.01249107 -0.01291759 -0.0130247 -0.01353365 -0.01332419 1000 -0.01283887 -0.01211532 -0.01244736 -0.0128852 -0.01355358 1000 -0.01283887 -0.01211532 -0.01244736 -0.0128852 -0.01355358 1000
lala 21 0.15 0 second 14 1 319 5 3.225 0.23999810218811 0 0 -1 0 -0.01396794 -0.01452349 -0.01431567 -0.01364791 -0.0123204 1000 -0.01396794 -0.01452349 -0.01431567 -0.01364791 -0.0123204 1000 -0.0141876 -0.01485584 -0.0146632 -0.01411042 -0.01363653 1000 -0.0141876 -0.01485584 -0.0146632 -0.01411042 -0.01363653 1000
lala 21 0.075 1 first 4 1 320 6 7.485001 0.0999982357025146 -1 0 1 0 -0.01400172 -0.01436017 -0.01525058 1000 1000 1000 -0.01400172 -0.01436017 -0.01525058 1000 1000 1000 -0.01541309 -0.0153255 -0.01505543 -0.01457116 -0.01415439 1000 -0.01541309 -0.0153255 -0.01505543 -0.01457116 -0.01415439 1000
