subject PestNr Step_Size_OnTrial Pest_Faster Pest_Interval Condition block trial velH velH_Pest Reaction_Time velH_Subject Start_Above Response_MotionEstimation RightOrLeftxRotations_first0 xRotations_first1 xRotations_first2 xRotations_first3 xRotations_first4 xRotations_first5 yRotations_first0 yRotations_first1 yRotations_first2 yRotations_first3 yRotations_first4 yRotations_first5 xRotations_second0 xRotations_second1 xRotations_second2 xRotations_second3 xRotations_second4 xRotations_second5 yRotations_second0 yRotations_second1 yRotations_second2 yRotations_second3 yRotations_second4 yRotations_second5
lala 1 1.2 1 second 1 1 1 4 5.32 0.879997491836548 -1 1 1 1 0.006695156 0.005119295 0.004227153 0.001735069 0.001072909 1000 0.006695156 0.005119295 0.004227153 0.001735069 0.001072909 1000 0.004559311 0.005780092 0.007017879 0.007323806 0.007890695 1000 0.004559311 0.005780092 0.007017879 0.007323806 0.007890695 1000
lala 1 1.2 0 second 3 1 2 5 6.65 0.479997873306274 -1 1 -1 0 0.008400252 0.007962454 0.007598491 0.007942578 0.007841369 1000 0.008400252 0.007962454 0.007598491 0.007942578 0.007841369 1000 0.007986074 0.008041408 0.008551065 0.009196153 0.009601059 1000 0.007986074 0.008041408 0.008551065 0.009196153 0.009601059 1000
lala 1 1.2 0 first 17 1 3 6 7.98 0.839997529983521 0 1 -1 1 0.007096551 0.007325029 0.008732048 1000 1000 1000 0.007096551 0.007325029 0.008732048 1000 1000 1000 0.00659933 0.00672419 0.006632768 0.007089031 0.006822555 1000 0.00659933 0.00672419 0.006632768 0.007089031 0.006822555 1000
lala 1 1.2 0 first 0 1 4 4 2.64 0.499997854232788 -1 0 -1 0 0.008087883 0.00789353 0.007880899 1000 1000 1000 0.008087883 0.00789353 0.007880899 1000 1000 1000 0.005375226 0.004907871 0.005354455 0.005421298 0.005125969 1000 0.005375226 0.004907871 0.005354455 0.005421298 0.005125969 1000
lala 1 1.2 0 first 4 1 5 6 3.96 0.839997529983521 -1 0 -1 1 0.006331192 0.006485836 0.007826499 1000 1000 1000 0.006331192 0.006485836 0.007826499 1000 1000 1000 0.001967586 0.002065988 0.001745456 0.002084326 0.002388368 1000 0.001967586 0.002065988 0.001745456 0.002084326 0.002388368 1000
lala 2 1.2 1 first 3 1 6 5 7.85 2.95999574661255 -1 1 1 0 -0.0001702834 0.000690537 0.001132458 1000 1000 1000 -0.0001702834 0.000690537 0.001132458 1000 1000 1000 0.001868863 0.0009730612 0.000396431 -0.0003431268 -0.000526994 1000 0.001868863 0.0009730612 0.000396431 -0.0003431268 -0.000526994 1000
lala 1 1.2 1 second 13 1 7 4 5.32 0.499997854232788 0 1 1 0 0.002696798 0.002450955 0.002642258 0.002861674 0.003187873 1000 0.002696798 0.002450955 0.002642258 0.002861674 0.003187873 1000 0.004946267 0.005486175 0.005561868 0.004954441 0.0048075 1000 0.004946267 0.005486175 0.005561868 0.004954441 0.0048075 1000
lala 1 1.2 1 second 11 1 8 6 7.98 0.759997606277466 1 1 1 1 0.008236383 0.007905548 0.007589163 0.006943854 0.007246876 1000 0.008236383 0.007905548 0.007589163 0.006943854 0.007246876 1000 0.00746848 0.006563038 0.006525503 0.007249964 0.007572455 1000 0.00746848 0.006563038 0.006525503 0.007249964 0.007572455 1000
lala 1 1.2 0 second 12 1 9 4 2.64 1.13999724388123 0 0 -1 0 0.008792995 0.008250027 0.00769341 0.007380266 0.007121307 1000 0.008792995 0.008250027 0.00769341 0.007380266 0.007121307 1000 0.009820146 0.009328512 0.007100575 0.006980972 0.007933533 1000 0.009820146 0.009328512 0.007100575 0.006980972 0.007933533 1000
lala 1 1.2 1 first 9 1 10 5 6.65 0.01999831199646 1 1 1 1 0.007314436 0.006990107 0.006639726 1000 1000 1000 0.007314436 0.006990107 0.006639726 1000 1000 1000 0.01074225 0.0112945 0.01114728 0.01018187 0.01059021 1000 0.01074225 0.0112945 0.01114728 0.01018187 0.01059021 1000
lala 2 1.2 1 second 12 1 11 4 3.84 1.0999972820282 0 0 1 0 0.009084584 0.008947909 0.009107961 0.009358346 0.009358591 1000 0.009084584 0.008947909 0.009107961 0.009358346 0.009358591 1000 0.01004811 0.009712656 0.009241312 0.009718281 0.009922989 1000 0.01004811 0.009712656 0.009241312 0.009718281 0.009922989 1000
lala 1 1.2 1 first 2 1 12 5 3.3 1.91999673843384 -1 0 1 0 0.01162857 0.01232189 0.01202754 1000 1000 1000 0.01162857 0.01232189 0.01202754 1000 1000 1000 0.01203898 0.01249907 0.0124915 0.01264391 0.01329917 1000 0.01203898 0.01249907 0.0124915 0.01264391 0.01329917 1000
lala 2 1.2 0 second 0 1 13 4 3.84 1.23999714851379 -1 0 -1 1 0.01602163 0.01639281 0.01717466 0.01803924 0.01744607 1000 0.01602163 0.01639281 0.01717466 0.01803924 0.01744607 1000 0.01907302 0.01921978 0.01820656 0.01822473 0.01903148 1000 0.01907302 0.01921978 0.01820656 0.01822473 0.01903148 1000
lala 2 1.2 1 first 1 1 14 4 4.12 2.51999616622925 -1 1 1 1 0.01809209 0.01986959 0.02109894 1000 1000 1000 0.01809209 0.01986959 0.02109894 1000 1000 1000 0.02030332 0.02036747 0.02024768 0.02050579 0.02011498 1000 0.02030332 0.02036747 0.02024768 0.02050579 0.02011498 1000
lala 2 1.2 0 first 2 1 15 5 2.1 0.519997835159302 -1 0 -1 0 0.0148532 0.01462401 0.0146543 1000 1000 1000 0.0148532 0.01462401 0.0146543 1000 1000 1000 0.01200913 0.01242861 0.01259012 0.01237517 0.01189576 1000 0.01200913 0.01242861 0.01259012 0.01237517 0.01189576 1000
lala 2 1.2 1 second 13 1 16 4 4.12 0.759997606277466 0 1 1 0 0.01370592 0.01347657 0.01322586 0.0123163 0.01122872 1000 0.01370592 0.01347657 0.01322586 0.0123163 0.01122872 1000 0.0120691 0.01225969 0.01276475 0.01268888 0.01247478 1000 0.0120691 0.01225969 0.01276475 0.01268888 0.01247478 1000
lala 2 1.2 1 first 4 1 17 6 5.16 1.13999724388123 -1 0 1 0 0.009301003 0.01010087 0.01164887 1000 1000 1000 0.009301003 0.01010087 0.01164887 1000 1000 1000 0.01201624 0.01319483 0.01484184 0.01529247 0.01474775 1000 0.01201624 0.01319483 0.01484184 0.01529247 0.01474775 1000
lala 2 1.2 1 second 11 1 18 6 6.780001 4.55999422073364 1 1 1 1 0.01610082 0.01583274 0.01597921 0.01621975 0.01669049 1000 0.01610082 0.01583274 0.01597921 0.01621975 0.01669049 1000 0.01707282 0.01629478 0.01667938 0.01731748 0.01798833 1000 0.01707282 0.01629478 0.01667938 0.01731748 0.01798833 1000
lala 1 1.2 1 first 7 1 19 4 5.32 0.799997568130493 1 1 1 1 0.01847634 0.01860355 0.01828169 1000 1000 1000 0.01847634 0.01860355 0.01828169 1000 1000 1000 0.01641874 0.01670245 0.0165596 0.01618229 0.01632942 1000 0.01641874 0.01670245 0.0165596 0.01618229 0.01632942 1000
lala 1 1.2 1 second 15 1 20 5 6.65 2.03999662399292 0 1 1 1 0.01455317 0.01428394 0.01435661 0.01455262 0.0144281 1000 0.01455317 0.01428394 0.01435661 0.01455262 0.0144281 1000 0.01488396 0.01555876 0.01606693 0.01634322 0.01657341 1000 0.01488396 0.01555876 0.01606693 0.01634322 0.01657341 1000
lala 1 1.2 0 first 14 1 21 5 3.3 0.459997892379761 0 0 -1 1 0.01592657 0.0159433 0.01619566 1000 1000 1000 0.01592657 0.0159433 0.01619566 1000 1000 1000 0.0139436 0.01322254 0.01279954 0.01355743 0.01373091 1000 0.0139436 0.01322254 0.01279954 0.01355743 0.01373091 1000
lala 1 1.2 0 first 6 1 22 4 2.64 1.3999969959259 1 0 -1 0 0.01690116 0.01719294 0.016421 1000 1000 1000 0.01690116 0.01719294 0.016421 1000 1000 1000 0.01603723 0.01604854 0.01639574 0.01668825 0.0168117 1000 0.01603723 0.01604854 0.01639574 0.01668825 0.0168117 1000
lala 2 1.2 1 second 17 1 23 6 9.18 1.0999972820282 0 1 1 1 0.0275447 0.02895931 0.03124076 0.0326755 0.03342908 1000 0.0275447 0.02895931 0.03124076 0.0326755 0.03342908 1000 0.03667631 0.03680699 0.03639907 0.03568265 0.03498144 1000 0.03667631 0.03680699 0.03639907 0.03568265 0.03498144 1000
lala 2 1.2 0 second 6 1 24 4 3.84 1.45999693870544 1 0 -1 1 0.01669716 0.01702238 0.01677659 0.01712166 0.01649647 1000 0.01669716 0.01702238 0.01677659 0.01712166 0.01649647 1000 0.0158272 0.01564918 0.01626367 0.01661535 0.01664696 1000 0.0158272 0.01564918 0.01626367 0.01661535 0.01664696 1000
lala 3 1.2 1 first 12 1 25 4 2.64 1.33999705314636 0 0 1 0 0.01779591 0.01791523 0.01766636 1000 1000 1000 0.01779591 0.01791523 0.01766636 1000 1000 1000 0.01892288 0.01900263 0.01879147 0.01808905 0.01788082 1000 0.01892288 0.01900263 0.01879147 0.01808905 0.01788082 1000
lala 2 1.2 0 first 15 1 26 5 5.45 1.0999972820282 0 1 -1 1 0.01014453 0.006542153 0.006882546 1000 1000 1000 0.01014453 0.006542153 0.006882546 1000 1000 1000 -0.0002317261 0.001148272 0.003814041 0.002779607 -0.0003533498 1000 -0.0002317261 0.001148272 0.003814041 0.002779607 -0.0003533498 1000
lala 3 1.2 0 first 4 1 27 6 3.96 0.959997415542603 -1 0 -1 1 0.006477766 0.006454543 0.00578755 1000 1000 1000 0.006477766 0.006454543 0.00578755 1000 1000 1000 0.002672394 0.001952246 0.001548759 0.00163125 0.00147284 1000 0.002672394 0.001952246 0.001548759 0.00163125 0.00147284 1000
lala 2 1.2 1 second 9 1 28 5 5.45 0.61999773979187 1 1 1 1 -0.008625998 -0.009128996 -0.007919966 -0.0079117 -0.009053697 1000 -0.008625998 -0.009128996 -0.007919966 -0.0079117 -0.009053697 1000 -0.009245607 -0.009612413 -0.009894783 -0.009750783 -0.01024434 1000 -0.009245607 -0.009612413 -0.009894783 -0.009750783 -0.01024434 1000
lala 4 1.2 1 first 12 1 29 4 1.44 2.79999589920044 0 0 1 0 -0.01497883 -0.01297853 -0.01261925 1000 1000 1000 -0.01497883 -0.01297853 -0.01261925 1000 1000 1000 -0.01213349 -0.01280125 -0.01309766 -0.01246936 -0.01131035 1000 -0.01213349 -0.01280125 -0.01309766 -0.01246936 -0.01131035 1000
lala 3 1.2 0 second 1 1 30 4 2.92 2.11999654769897 -1 1 -1 1 0.005318688 0.003591271 0.003187304 0.00366094 0.004565396 1000 0.005318688 0.003591271 0.003187304 0.00366094 0.004565396 1000 0.007946977 0.008009413 0.007165376 0.006608551 0.006731144 1000 0.007946977 0.008009413 0.007165376 0.006608551 0.006731144 1000
lala 2 1.2 1 second 14 1 31 5 4.5 0.859997510910034 0 0 1 1 0.01703112 0.01877539 0.0184029 0.01774374 0.01805625 1000 0.01703112 0.01877539 0.0184029 0.01774374 0.01805625 1000 0.01572782 0.01574172 0.01391244 0.01196001 0.01071534 1000 0.01572782 0.01574172 0.01391244 0.01196001 0.01071534 1000
lala 3 1.2 1 second 0 1 32 4 5.04 1.97999668121338 -1 0 1 0 0.009952142 0.008744705 0.007837185 0.008171282 0.007743268 1000 0.009952142 0.008744705 0.007837185 0.008171282 0.007743268 1000 0.006710649 0.007065149 0.007036052 0.007239626 0.007967926 1000 0.006710649 0.007065149 0.007036052 0.007239626 0.007967926 1000
lala 1 1.2 1 second 16 1 33 6 3.96 1.05999732017517 0 0 1 1 0.008908928 0.008109725 0.007446938 0.006327976 0.005339896 1000 0.008908928 0.008109725 0.007446938 0.006327976 0.005339896 1000 0.006296573 0.005337502 0.004742385 0.005113305 0.004977615 1000 0.006296573 0.005337502 0.004742385 0.005113305 0.004977615 1000
lala 3 1.2 1 second 3 1 34 5 6.650001 0.879997491836548 -1 1 1 1 0.007390178 0.006166297 0.004710842 0.003775402 0.003209571 1000 0.007390178 0.006166297 0.004710842 0.003775402 0.003209571 1000 0.005965872 0.00692252 0.006154654 0.005539802 0.005915966 1000 0.005965872 0.00692252 0.006154654 0.005539802 0.005915966 1000
lala 1 1.2 1 second 5 1 35 6 7.98 0.719997644424438 -1 1 1 0 0.006492483 0.006429282 0.006341352 0.006444155 0.006363424 1000 0.006492483 0.006429282 0.006341352 0.006444155 0.006363424 1000 0.006877066 0.007909769 0.007671404 0.006761393 0.006359037 1000 0.006877066 0.007909769 0.007671404 0.006761393 0.006359037 1000
lala 1 1.2 1 second 10 1 36 6 3.96 0.899997472763062 1 0 1 1 0.006167538 0.007141038 0.00771415 0.007667219 0.006798431 1000 0.006167538 0.007141038 0.00771415 0.007667219 0.006798431 1000 0.005331442 0.004680452 0.004717487 0.004940099 0.004938782 1000 0.005331442 0.004680452 0.004717487 0.004940099 0.004938782 1000
lala 3 1.2 1 second 17 1 37 6 7.98 0.919997453689575 0 1 1 1 0.007414466 0.007910447 0.007276083 0.006248472 0.006098235 1000 0.007414466 0.007910447 0.007276083 0.006248472 0.006098235 1000 0.005598122 0.005720433 0.005495493 0.004953677 0.0045304 1000 0.005598122 0.005720433 0.005495493 0.004953677 0.0045304 1000
lala 3 1.2 1 second 2 1 38 5 3.3 1.57999682426453 -1 0 1 0 0.005460968 0.006094312 0.007065619 0.007699808 0.008062223 1000 0.005460968 0.006094312 0.007065619 0.007699808 0.008062223 1000 0.01085755 0.009573361 0.007087497 0.006167518 0.006586823 1000 0.01085755 0.009573361 0.007087497 0.006167518 0.006586823 1000
lala 3 1.2 1 second 6 1 39 4 5.04 0.979997396469116 1 0 1 0 0.008350197 0.008447184 0.009607845 0.01018839 0.01062474 1000 0.008350197 0.008447184 0.009607845 0.01018839 0.01062474 1000 0.01367541 0.01332325 0.01317837 0.0137652 0.01434755 1000 0.01367541 0.01332325 0.01317837 0.0137652 0.01434755 1000
lala 3 1.2 1 second 13 1 40 4 2.92 0.979997396469116 0 1 1 1 0.01224856 0.01289436 0.01308859 0.01444513 0.01509333 1000 0.01224856 0.01289436 0.01308859 0.01444513 0.01509333 1000 0.01158635 0.01199509 0.01297909 0.0131125 0.01424662 1000 0.01158635 0.01199509 0.01297909 0.0131125 0.01424662 1000
lala 4 1.2 1 first 4 1 41 6 5.16 1.3999969959259 -1 0 1 1 0.01428579 0.01414802 0.0142322 1000 1000 1000 0.01428579 0.01414802 0.0142322 1000 1000 1000 0.01441756 0.01462309 0.01461296 0.015234 0.01494539 1000 0.01441756 0.01462309 0.01461296 0.015234 0.01494539 1000
lala 4 1.2 0 second 2 1 42 5 2.1 1.21999716758728 -1 0 -1 1 0.01485682 0.01565447 0.01453519 0.01013774 0.006627588 1000 0.01485682 0.01565447 0.01453519 0.01013774 0.006627588 1000 0.01258939 0.01467856 0.01543169 0.01594725 0.01721618 1000 0.01258939 0.01467856 0.01543169 0.01594725 0.01721618 1000
lala 3 1.2 0 first 15 1 43 5 6.65 1.33999705314636 0 1 -1 1 0.02098601 0.02164676 0.02176367 1000 1000 1000 0.02098601 0.02164676 0.02176367 1000 1000 1000 0.02003757 0.0205262 0.01982629 0.01892704 0.01879232 1000 0.02003757 0.0205262 0.01982629 0.01892704 0.01879232 1000
lala 5 1.2 0 first 12 1 44 4 1.32 1.69999694824219 0 0 -1 1 0.01653943 0.01690712 0.01812357 1000 1000 1000 0.01653943 0.01690712 0.01812357 1000 1000 1000 0.02050462 0.02141971 0.02176871 0.02123896 0.02088193 1000 0.02050462 0.02141971 0.02176871 0.02123896 0.02088193 1000
lala 3 1.2 0 first 11 1 45 6 5.580001 1.23999714851379 1 1 -1 0 0.02380238 0.02441973 0.02545796 1000 1000 1000 0.02380238 0.02441973 0.02545796 1000 1000 1000 0.02503381 0.02398738 0.0229605 0.02311982 0.02340234 1000 0.02503381 0.02398738 0.0229605 0.02311982 0.02340234 1000
lala 4 1.2 0 first 13 1 46 4 1.72 1.17999720573425 0 1 -1 0 0.02264594 0.01885479 0.01397557 1000 1000 1000 0.02264594 0.01885479 0.01397557 1000 1000 1000 0.02121363 0.02099619 0.0208517 0.02127362 0.02152535 1000 0.02121363 0.02099619 0.0208517 0.02127362 0.02152535 1000
lala 4 1.2 1 second 6 1 47 4 3.84 0.859997510910034 1 0 1 1 0.02223554 0.02204575 0.02175953 0.02122089 0.02088907 1000 0.02223554 0.02204575 0.02175953 0.02122089 0.02088907 1000 0.02055398 0.02028431 0.01987528 0.01973197 0.02013166 1000 0.02055398 0.02028431 0.01987528 0.01973197 0.02013166 1000
lala 5 1.2 0 second 13 1 48 4 2.92 1.25999712944031 0 1 -1 1 0.02324502 0.0219999 0.02130906 0.02107678 0.0209313 1000 0.02324502 0.0219999 0.02130906 0.02107678 0.0209313 1000 0.02193968 0.02236957 0.02165966 0.02075819 0.02061392 1000 0.02193968 0.02236957 0.02165966 0.02075819 0.02061392 1000
lala 4 1.2 1 first 17 1 49 6 6.780001 1.19999718666077 0 1 1 1 0.01899495 0.01828252 0.01870862 1000 1000 1000 0.01899495 0.01828252 0.01870862 1000 1000 1000 0.01948918 0.01970264 0.02020517 0.02047702 0.02016361 1000 0.01948918 0.01970264 0.02020517 0.02047702 0.02016361 1000
lala 2 1.2 1 second 16 1 50 6 2.76 5.73999643325806 0 0 1 0 0.0101941 0.0118594 0.01050044 0.01014852 0.01148891 1000 0.0101941 0.0118594 0.01050044 0.01014852 0.01148891 1000 0.01568379 0.01641592 0.01619973 0.01386202 0.01338633 1000 0.01568379 0.01641592 0.01619973 0.01386202 0.01338633 1000
lala 5 1.2 1 second 4 1 51 6 3.96 0.479997873306274 -1 0 1 0 0.02364479 0.02281518 0.02217942 0.02148394 0.02091208 1000 0.02364479 0.02281518 0.02217942 0.02148394 0.02091208 1000 0.01791749 0.01756927 0.01706742 0.01722246 0.01716476 1000 0.01791749 0.01756927 0.01706742 0.01722246 0.01716476 1000
lala 1 1.2 1 second 8 1 52 5 3.3 0.679997682571411 1 0 1 1 0.01597726 0.01626119 0.01684457 0.01676521 0.01642155 1000 0.01597726 0.01626119 0.01684457 0.01676521 0.01642155 1000 0.01569459 0.01569998 0.01622236 0.01668669 0.01533832 1000 0.01569459 0.01569998 0.01622236 0.01668669 0.01533832 1000
lala 4 1.2 1 second 15 1 53 5 7.849999 0.199998140335083 0 1 1 0 0.01214795 0.01082603 0.01096444 0.01167858 0.01209553 1000 0.01214795 0.01082603 0.01096444 0.01167858 0.01209553 1000 0.01181596 0.01250854 0.01285102 0.0128745 0.01294788 1000 0.01181596 0.01250854 0.01285102 0.0128745 0.01294788 1000
lala 5 1.2 1 second 6 1 54 4 2.64 0.779997587203979 1 0 1 0 0.01542142 0.01524289 0.01454007 0.01352573 0.01386993 1000 0.01542142 0.01524289 0.01454007 0.01352573 0.01386993 1000 0.01267011 0.01253456 0.01244986 0.01274771 0.01285509 1000 0.01267011 0.01253456 0.01244986 0.01274771 0.01285509 1000
lala 5 1.2 1 first 17 1 55 6 5.580001 1.93999671936035 0 1 1 0 0.01365811 0.01409049 0.01419694 1000 1000 1000 0.01365811 0.01409049 0.01419694 1000 1000 1000 0.01501954 0.01510995 0.01458457 0.01408599 0.0144062 1000 0.01501954 0.01510995 0.01458457 0.01408599 0.0144062 1000
lala 5 1.2 1 second 2 1 56 5 3.3 1.23999714851379 -1 0 1 1 0.01605295 0.01636009 0.01643664 0.01565555 0.01482664 1000 0.01605295 0.01636009 0.01643664 0.01565555 0.01482664 1000 0.0149232 0.0152497 0.01651521 0.01684397 0.01697955 1000 0.0149232 0.0152497 0.01651521 0.01684397 0.01697955 1000
lala 2 1.2 1 second 10 1 57 6 2.76 0.959997415542603 1 0 1 1 0.01938647 0.01914337 0.01872987 0.01799308 0.01842449 1000 0.01938647 0.01914337 0.01872987 0.01799308 0.01842449 1000 0.01637975 0.0156073 0.01559534 0.01655636 0.01731366 1000 0.01637975 0.0156073 0.01559534 0.01655636 0.01731366 1000
lala 2 1.2 1 second 7 1 58 4 4.12 0.859997510910034 1 1 1 0 0.01747069 0.01745921 0.01843258 0.01851581 0.01788443 1000 0.01747069 0.01745921 0.01843258 0.01851581 0.01788443 1000 0.01819434 0.01836638 0.01809513 0.01832586 0.01942163 1000 0.01819434 0.01836638 0.01809513 0.01832586 0.01942163 1000
lala 6 1.2 1 second 2 1 59 5 2.1 5.31999349594116 -1 0 1 1 0.01861537 0.01820962 0.01864102 0.01888669 0.0183844 1000 0.01861537 0.01820962 0.01864102 0.01888669 0.0183844 1000 0.01734028 0.01755044 0.01721892 0.01781997 0.01837886 1000 0.01734028 0.01755044 0.01721892 0.01781997 0.01837886 1000
lala 5 1.2 1 first 15 1 60 5 6.65 1.35999703407288 0 1 1 1 -0.02213087 -0.02187394 -0.02031264 1000 1000 1000 -0.02213087 -0.02187394 -0.02031264 1000 1000 1000 -0.01270029 -0.01318376 -0.01351401 -0.01414327 -0.01455981 1000 -0.01270029 -0.01318376 -0.01351401 -0.01414327 -0.01455981 1000
lala 4 1.2 1 first 1 1 61 4 4.12 4.37999439239502 -1 1 1 1 0.0165402 0.0161697 0.01614506 1000 1000 1000 0.0165402 0.0161697 0.01614506 1000 1000 1000 0.007353771 0.008168926 0.009119695 0.01002217 0.01170718 1000 0.007353771 0.008168926 0.009119695 0.01002217 0.01170718 1000
lala 3 1.2 0 first 16 1 62 6 1.98 0.819997549057007 0 0 -1 1 -0.006693341 -0.003421428 0.006983081 1000 1000 1000 -0.006693341 -0.003421428 0.006983081 1000 1000 1000 0.02756686 0.03151842 0.0350713 0.03485183 0.03397173 1000 0.02756686 0.03151842 0.0350713 0.03485183 0.03397173 1000
lala 3 1.2 1 first 9 1 63 5 4.25 2.11999654769897 1 1 1 0 -0.007324548 -0.008277149 -0.009032531 1000 1000 1000 -0.007324548 -0.008277149 -0.009032531 1000 1000 1000 0.01083559 0.01216733 0.01690797 0.01953957 0.01820342 1000 0.01083559 0.01216733 0.01690797 0.01953957 0.01820342 1000
lala 6 1.2 0 first 4 1 64 6 2.76 1.21999716758728 -1 0 -1 1 0.01493547 0.01460721 0.01430684 1000 1000 1000 0.01493547 0.01460721 0.01430684 1000 1000 1000 0.02061263 0.02059558 0.01955916 0.01971037 0.02102987 1000 0.02061263 0.02059558 0.01955916 0.01971037 0.02102987 1000
lala 4 1.2 1 first 0 1 65 4 3.84 6.10000467300415 -1 0 1 0 0.01773008 0.01916404 0.02298686 1000 1000 1000 0.01773008 0.01916404 0.02298686 1000 1000 1000 0.00530203 -0.003077368 -0.006010897 -0.001056382 0.002512815 1000 0.00530203 -0.003077368 -0.006010897 -0.001056382 0.002512815 1000
lala 6 1.2 1 second 17 1 66 6 4.380001 1.05999732017517 0 1 1 0 0.004263101 0.006171919 0.005957124 0.005091661 0.004842366 1000 0.004263101 0.006171919 0.005957124 0.005091661 0.004842366 1000 0.005855667 0.007748038 0.007240595 0.008055711 0.008312994 1000 0.005855667 0.007748038 0.007240595 0.008055711 0.008312994 1000
lala 2 1.2 1 first 5 1 67 6 6.780001 0.899997472763062 -1 1 1 0 0.0081277 0.007496837 0.007116859 1000 1000 1000 0.0081277 0.007496837 0.007116859 1000 1000 1000 0.0041291 0.007237485 0.01101263 0.01098525 0.01046607 1000 0.0041291 0.007237485 0.01101263 0.01098525 0.01046607 1000
lala 2 1.2 0 first 8 1 68 5 2.1 0.499997854232788 1 0 -1 0 0.01465259 0.0138376 0.01276153 1000 1000 1000 0.01465259 0.0138376 0.01276153 1000 1000 1000 0.01373606 0.01291605 0.01205779 0.01182796 0.01252799 1000 0.01373606 0.01291605 0.01205779 0.01182796 0.01252799 1000
lala 3 1.2 1 first 7 1 69 4 2.92 1.81999683380127 1 1 1 0 0.0119136 0.01249635 0.01113443 1000 1000 1000 0.0119136 0.01249635 0.01113443 1000 1000 1000 0.01119934 0.01188504 0.01182782 0.01198763 0.01434083 1000 0.01119934 0.01188504 0.01182782 0.01198763 0.01434083 1000
lala 6 1.2 1 second 15 1 70 5 5.45 0.699997663497925 0 1 1 0 -0.009105978 -0.008496848 -0.01050099 -0.01297898 -0.01180468 1000 -0.009105978 -0.008496848 -0.01050099 -0.01297898 -0.01180468 1000 -0.006094269 -0.007015764 -0.006289636 -0.005005583 -0.005331113 1000 -0.006094269 -0.007015764 -0.006289636 -0.005005583 -0.005331113 1000
lala 3 1.2 0 first 10 1 71 6 1.98 0.659997701644897 1 0 -1 1 -0.009296237 -0.01137607 -0.01254356 1000 1000 1000 -0.009296237 -0.01137607 -0.01254356 1000 1000 1000 -0.008081374 -0.007346698 -0.00776027 -0.009257521 -0.008987863 1000 -0.008081374 -0.007346698 -0.00776027 -0.009257521 -0.008987863 1000
lala 4 1.2 1 second 10 1 72 6 3.18 0.839997529983521 1 0 1 0 -0.0225586 -0.02042529 -0.01701774 -0.01626623 -0.01785159 1000 -0.0225586 -0.02042529 -0.01701774 -0.01626623 -0.01785159 1000 -0.01639551 -0.01607769 -0.01357155 -0.01024337 -0.01094786 1000 -0.01639551 -0.01607769 -0.01357155 -0.01024337 -0.01094786 1000
lala 4 1.2 0 second 7 1 73 4 1.72 1.89999675750732 1 1 -1 0 -0.004909602 -0.003561006 -0.004536521 -0.005461715 -0.005402545 1000 -0.004909602 -0.003561006 -0.004536521 -0.005461715 -0.005402545 1000 -0.006477265 -0.005766763 -0.005682118 -0.005817481 -0.005421211 1000 -0.006477265 -0.005766763 -0.005682118 -0.005817481 -0.005421211 1000
lala 5 1.2 0 first 10 1 74 6 1.98 0.739997625350952 1 0 -1 0 -0.003673253 -0.003756561 -0.003999564 1000 1000 1000 -0.003673253 -0.003756561 -0.003999564 1000 1000 1000 -0.007946029 -0.007696114 -0.007558785 -0.006993042 -0.006757976 1000 -0.007946029 -0.007696114 -0.007558785 -0.006993042 -0.006757976 1000
lala 4 1.2 0 first 16 1 75 6 3.18 0.779997587203979 0 0 -1 0 -0.007080005 -0.007033337 -0.00754829 1000 1000 1000 -0.007080005 -0.007033337 -0.00754829 1000 1000 1000 -0.007686161 -0.007514122 -0.007345925 -0.006755273 -0.006680477 1000 -0.007686161 -0.007514122 -0.007345925 -0.006755273 -0.006680477 1000
lala 3 1.2 0 first 8 1 76 5 3.3 4.67999410629272 1 0 -1 0 -0.006459452 -0.005999273 -0.007114181 1000 1000 1000 -0.006459452 -0.005999273 -0.007114181 1000 1000 1000 -0.007052934 -0.006428603 -0.00596536 -0.003909501 -0.001905829 1000 -0.007052934 -0.006428603 -0.00596536 -0.003909501 -0.001905829 1000
lala 7 1.2 1 second 15 1 77 5 4.25 0.579997777938843 0 1 1 1 0.002611306 0.002183709 0.001253432 0.000189869 -0.0007452744 1000 0.002611306 0.002183709 0.001253432 0.000189869 -0.0007452744 1000 -0.003942643 -0.003477894 -0.003271466 -0.003973232 -0.004342132 1000 -0.003942643 -0.003477894 -0.003271466 -0.003973232 -0.004342132 1000
lala 8 1.2 0 first 15 1 78 5 3.05 0.979997396469116 0 1 -1 0 -0.003059709 -0.003458779 -0.004068463 1000 1000 1000 -0.003059709 -0.003458779 -0.004068463 1000 1000 1000 -0.005885488 -0.005330111 -0.003950645 -0.003004024 -0.002461734 1000 -0.005885488 -0.005330111 -0.003950645 -0.003004024 -0.002461734 1000
lala 5 1.2 0 first 16 1 79 6 4.38 0.919997453689575 0 0 -1 0 -0.006436076 -0.006117004 -0.005790324 1000 1000 1000 -0.006436076 -0.006117004 -0.005790324 1000 1000 1000 -0.007840524 -0.007907854 -0.007629403 -0.007696843 -0.008770927 1000 -0.007840524 -0.007907854 -0.007629403 -0.007696843 -0.008770927 1000
lala 3 1.2 0 first 14 1 80 5 3.3 1.61999702453613 0 0 -1 1 -0.0084893 -0.009960051 -0.01095884 1000 1000 1000 -0.0084893 -0.009960051 -0.01095884 1000 1000 1000 -0.01384573 -0.01397718 -0.01324883 -0.01260887 -0.0126558 1000 -0.01384573 -0.01397718 -0.01324883 -0.01260887 -0.0126558 1000
lala 6 1.2 0 second 6 1 81 4 1.44 0.739997625350952 1 0 -1 1 -0.009518257 -0.009647824 -0.009334455 -0.00890936 -0.009304146 1000 -0.009518257 -0.009647824 -0.009334455 -0.00890936 -0.009304146 1000 -0.00929602 -0.009585376 -0.01010938 -0.01032665 -0.01048909 1000 -0.00929602 -0.009585376 -0.01010938 -0.01032665 -0.01048909 1000
lala 4 1.2 1 second 11 1 82 6 6.780001 0.61999773979187 1 1 1 1 -0.006972273 -0.006233541 -0.007058898 -0.008140855 -0.008416727 1000 -0.006972273 -0.006233541 -0.007058898 -0.008140855 -0.008416727 1000 -0.009447061 -0.008690691 -0.007760648 -0.007103421 -0.00678221 1000 -0.009447061 -0.008690691 -0.007760648 -0.007103421 -0.00678221 1000
lala 7 1.2 0 first 4 1 83 6 3.96 0.799997568130493 -1 0 -1 1 -0.008806526 -0.008139322 -0.008445158 1000 1000 1000 -0.008806526 -0.008139322 -0.008445158 1000 1000 1000 -0.008706664 -0.009212717 -0.009664279 -0.009464129 -0.009871403 1000 -0.008706664 -0.009212717 -0.009664279 -0.009464129 -0.009871403 1000
lala 6 1.2 1 second 13 1 84 4 4.12 1.35999703407288 0 1 1 0 -0.01222792 -0.01195886 -0.01149163 -0.01119333 -0.01076954 1000 -0.01222792 -0.01195886 -0.01149163 -0.01119333 -0.01076954 1000 -0.009527054 -0.009468101 -0.009745991 -0.009671596 -0.009966841 1000 -0.009527054 -0.009468101 -0.009745991 -0.009671596 -0.009966841 1000
lala 8 1.2 0 second 4 1 85 6 5.16 1.29999709129334 -1 0 -1 0 -0.008964378 -0.008342391 -0.007813563 -0.008195261 -0.007982073 1000 -0.008964378 -0.008342391 -0.007813563 -0.008195261 -0.007982073 1000 -0.006199315 -0.006360625 -0.006397923 -0.006567637 -0.006821469 1000 -0.006199315 -0.006360625 -0.006397923 -0.006567637 -0.006821469 1000
lala 5 1.2 0 first 1 1 86 4 2.92 2.65999603271484 -1 1 -1 0 -0.005241777 -0.003924068 -0.003989439 1000 1000 1000 -0.005241777 -0.003924068 -0.003989439 1000 1000 1000 -0.0003804959 -1.223855E-05 0.0008733234 0.001918684 0.002249439 1000 -0.0003804959 -1.223855E-05 0.0008733234 0.001918684 0.002249439 1000
lala 7 1.2 0 second 17 1 87 6 3.180001 1.99999666213989 0 1 -1 1 -0.00206781 -0.002929435 -0.00243347 -0.001933722 -0.002272981 1000 -0.00206781 -0.002929435 -0.00243347 -0.001933722 -0.002272981 1000 -0.00226467 -0.00234802 -0.002551306 -0.002655019 -0.002300414 1000 -0.00226467 -0.00234802 -0.002551306 -0.002655019 -0.002300414 1000
lala 6 1.2 1 second 16 1 88 6 5.58 1.23999714851379 0 0 1 1 -0.003163673 -0.002992176 -0.003048119 -0.003185 -0.00290996 1000 -0.003163673 -0.002992176 -0.003048119 -0.003185 -0.00290996 1000 -0.0001019022 6.133831E-05 0.001007027 0.001425429 0.00131284 1000 -0.0001019022 6.133831E-05 0.001007027 0.001425429 0.00131284 1000
lala 6 1.2 0 first 10 1 89 6 3.18 1.43999695777893 1 0 -1 0 0.003450047 0.005151884 0.005343785 1000 1000 1000 0.003450047 0.005151884 0.005343785 1000 1000 1000 0.0009610484 0.0007028525 0.0005879115 -0.0004158324 -0.0001373621 1000 0.0009610484 0.0007028525 0.0005879115 -0.0004158324 -0.0001373621 1000
lala 7 1.2 1 first 6 1 90 4 2.64 2.57999610900879 1 0 1 0 0.002825565 0.004379089 0.004051152 1000 1000 1000 0.002825565 0.004379089 0.004051152 1000 1000 1000 0.00358738 0.002823724 0.002920555 0.002803919 0.00253627 1000 0.00358738 0.002823724 0.002920555 0.002803919 0.00253627 1000
lala 6 1.2 1 first 1 1 91 4 4.12 2.39999628067017 -1 1 1 1 0.002632444 0.002916348 0.002757112 1000 1000 1000 0.002632444 0.002916348 0.002757112 1000 1000 1000 0.00583578 0.006667275 0.005851035 0.00436356 0.004764572 1000 0.00583578 0.006667275 0.005851035 0.00436356 0.004764572 1000
lala 7 1.2 0 first 2 1 92 5 1.65 0.599997758865356 -1 0 -1 1 0.003180939 0.003247252 0.003479071 1000 1000 1000 0.003180939 0.003247252 0.003479071 1000 1000 1000 0.003129972 0.003795034 0.003946398 0.00362033 0.003422572 1000 0.003129972 0.003795034 0.003946398 0.00362033 0.003422572 1000
lala 6 1.2 0 first 12 1 93 4 2.52 1.7199969291687 0 0 -1 1 0.001214078 0.001427681 0.001817208 1000 1000 1000 0.001214078 0.001427681 0.001817208 1000 1000 1000 0.001399331 0.0009448684 4.470288E-05 0.001171801 0.001617028 1000 0.001399331 0.0009448684 4.470288E-05 0.001171801 0.001617028 1000
lala 7 1.2 0 first 10 1 94 6 4.38 2.67999601364136 1 0 -1 1 0.006526866 0.006197345 0.005926068 1000 1000 1000 0.006526866 0.006197345 0.005926068 1000 1000 1000 0.004450091 0.004669775 0.004622007 0.004460092 0.004336768 1000 0.004450091 0.004669775 0.004622007 0.004460092 0.004336768 1000
lala 7 1.2 1 first 13 1 95 4 2.92 1.81999683380127 0 1 1 1 0.004979513 0.006628227 0.00750481 1000 1000 1000 0.004979513 0.006628227 0.00750481 1000 1000 1000 0.005971359 0.005772062 0.005867646 0.006124966 0.005716398 1000 0.005971359 0.005772062 0.005867646 0.006124966 0.005716398 1000
lala 4 1.2 0 first 9 1 96 5 3.05 3.77999496459961 1 1 -1 1 0.007222081 0.007205799 0.00717134 1000 1000 1000 0.007222081 0.007205799 0.00717134 1000 1000 1000 0.006546876 0.006323749 0.006345846 0.006590713 0.006377213 1000 0.006546876 0.006323749 0.006345846 0.006590713 0.006377213 1000
lala 4 1.2 1 second 8 1 97 5 4.5 0.839997529983521 1 0 1 0 0.00572855 0.006213588 0.006107564 0.005383369 0.005095215 1000 0.00572855 0.006213588 0.006107564 0.005383369 0.005095215 1000 0.0047549 0.004666968 0.004607815 0.005098327 0.00509395 1000 0.0047549 0.004666968 0.004607815 0.005098327 0.00509395 1000
lala 8 1.2 0 second 6 1 98 4 1.44 1.27999711036682 1 0 -1 0 0.008117058 0.007497595 0.007881477 0.008066387 0.007687873 1000 0.008117058 0.007497595 0.007881477 0.008066387 0.007687873 1000 0.007488905 0.006744057 0.006964649 0.007332573 0.00761475 1000 0.007488905 0.006744057 0.006964649 0.007332573 0.00761475 1000
lala 5 1.2 0 first 0 1 99 4 2.64 4.43999433517456 -1 0 -1 1 0.004508029 0.005078156 0.00495438 1000 1000 1000 0.004508029 0.005078156 0.00495438 1000 1000 1000 0.00706131 0.007291882 0.007961817 0.008121043 0.007592616 1000 0.00706131 0.007291882 0.007961817 0.008121043 0.007592616 1000
lala 9 1.2 1 second 15 1 100 5 4.25 0.439997911453247 0 1 1 1 0.02587449 0.02464188 0.02438985 0.02300547 0.02076067 1000 0.02587449 0.02464188 0.02438985 0.02300547 0.02076067 1000 0.01817758 0.0171652 0.0155385 0.01379122 0.01338204 1000 0.01817758 0.0171652 0.0155385 0.01379122 0.01338204 1000
lala 4 1.2 1 second 3 1 101 5 5.450001 0.659997701644897 -1 1 1 1 0.01279257 0.01194908 0.01062087 0.009060163 0.008139892 1000 0.01279257 0.01194908 0.01062087 0.009060163 0.008139892 1000 0.008283681 0.009931322 0.01149684 0.01009392 0.008551388 1000 0.008283681 0.009931322 0.01149684 0.01009392 0.008551388 1000
lala 7 1.2 0 first 12 1 102 4 3.72 0.879997491836548 0 0 -1 1 0.009084863 0.007450832 0.006781116 1000 1000 1000 0.009084863 0.007450832 0.006781116 1000 1000 1000 -0.002349821 -0.002450163 -0.00305252 -0.003011639 -0.00310425 1000 -0.002349821 -0.002450163 -0.00305252 -0.003011639 -0.00310425 1000
lala 5 1.2 1 second 9 1 103 5 4.25 2.07999658584595 1 1 1 1 -0.006571685 -0.006986056 -0.007216496 -0.00683815 -0.007047914 1000 -0.006571685 -0.006986056 -0.007216496 -0.00683815 -0.007047914 1000 -0.008189129 -0.008945915 -0.008857838 -0.008604849 -0.008540932 1000 -0.008189129 -0.008945915 -0.008857838 -0.008604849 -0.008540932 1000
lala 4 1.2 0 first 14 1 104 5 4.5 0.659997701644897 0 0 -1 0 -0.008293515 -0.008332732 -0.008326163 1000 1000 1000 -0.008293515 -0.008332732 -0.008326163 1000 1000 1000 -0.0006627728 -0.000246037 -0.0007233825 -0.001364771 -0.001966567 1000 -0.0006627728 -0.000246037 -0.0007233825 -0.001364771 -0.001966567 1000
lala 3 1.2 1 first 5 1 105 6 5.580001 2.33999633789063 -1 1 1 1 -0.005107018 -0.004507318 -0.004061323 1000 1000 1000 -0.005107018 -0.004507318 -0.004061323 1000 1000 1000 -0.00384368 -0.003691814 -0.003283181 -0.003711838 -0.003701247 1000 -0.00384368 -0.003691814 -0.003283181 -0.003711838 -0.003701247 1000
lala 5 1.2 0 first 14 1 106 5 5.7 1.8599967956543 0 0 -1 0 -0.002959627 -0.002795838 -0.002799053 1000 1000 1000 -0.002959627 -0.002795838 -0.002799053 1000 1000 1000 -0.00337742 -0.003314017 -0.003171587 -0.004165211 -0.004167098 1000 -0.00337742 -0.003314017 -0.003171587 -0.004165211 -0.004167098 1000
lala 8 1.2 1 first 17 1 107 6 4.380001 2.27999639511108 0 1 1 0 -0.004341573 -0.004174766 -0.004940896 1000 1000 1000 -0.004341573 -0.004174766 -0.004940896 1000 1000 1000 -0.002048295 -0.002216318 -0.001421375 0.0001014737 0.002906585 1000 -0.002048295 -0.002216318 -0.001421375 0.0001014737 0.002906585 1000
lala 6 1.2 0 first 0 1 108 4 3.84 1.23999714851379 -1 0 -1 0 0.01190283 0.01213229 0.01123786 1000 1000 1000 0.01190283 0.01213229 0.01123786 1000 1000 1000 0.009636617 0.009454051 0.00894202 0.00885987 0.009638745 1000 0.009636617 0.009454051 0.00894202 0.00885987 0.009638745 1000
lala 9 1.2 0 second 17 1 109 6 3.180001 1.27999711036682 0 1 -1 0 0.01091931 0.01116007 0.01123342 0.01118482 0.01163467 1000 0.01091931 0.01116007 0.01123342 0.01118482 0.01163467 1000 0.01122402 0.01145385 0.01210891 0.01250661 0.01243666 1000 0.01122402 0.01145385 0.01210891 0.01250661 0.01243666 1000
lala 5 1.2 1 second 11 1 110 6 5.580001 1.19999718666077 1 1 1 1 0.01165166 0.01138541 0.01122704 0.01109971 0.01156705 1000 0.01165166 0.01138541 0.01122704 0.01109971 0.01156705 1000 0.01118272 0.01073075 0.01049125 0.01012416 0.00976207 1000 0.01118272 0.01073075 0.01049125 0.01012416 0.00976207 1000
lala 5 1.2 0 second 3 1 111 5 4.250001 2.11999654769897 -1 1 -1 1 0.009050905 0.009830507 0.009430844 0.008180435 0.007987601 1000 0.009050905 0.009830507 0.009430844 0.008180435 0.007987601 1000 0.005534628 0.005740524 0.006214562 0.006822137 0.007049795 1000 0.005534628 0.005740524 0.006214562 0.006822137 0.007049795 1000
lala 6 1.2 1 first 3 1 112 5 5.450001 3.01999568939209 -1 1 1 1 0.006529814 0.006590452 0.005841951 1000 1000 1000 0.006529814 0.006590452 0.005841951 1000 1000 1000 0.00674172 0.006060952 0.006017706 0.006212038 0.006086148 1000 0.00674172 0.006060952 0.006017706 0.006212038 0.006086148 1000
lala 9 1.2 1 second 4 1 113 6 6.36 0.739997625350952 -1 0 1 0 0.004330472 0.004531347 0.003835842 0.00365624 0.003749098 1000 0.004330472 0.004531347 0.003835842 0.00365624 0.003749098 1000 0.004088266 0.003608041 0.003433509 0.003717432 0.003784138 1000 0.004088266 0.003608041 0.003433509 0.003717432 0.003784138 1000
lala 8 1.2 0 second 13 1 114 4 1.72 1.03999733924866 0 1 -1 0 0.003786028 0.002920404 0.003065568 0.002684486 0.003424967 1000 0.003786028 0.002920404 0.003065568 0.002684486 0.003424967 1000 0.00389782 0.004495617 0.004405922 0.003634535 0.003743465 1000 0.00389782 0.004495617 0.004405922 0.003634535 0.003743465 1000
lala 7 1.2 0 second 1 1 115 4 2.92 1.0999972820282 -1 1 -1 0 0.002544887 0.00258757 0.002736878 0.002838358 0.003188911 1000 0.002544887 0.00258757 0.002736878 0.002838358 0.003188911 1000 0.00518612 0.004989249 0.005027469 0.004269349 0.003001945 1000 0.00518612 0.004989249 0.005027469 0.004269349 0.003001945 1000
lala 5 1.2 0 first 8 1 116 5 3.3 1.8599967956543 1 0 -1 0 0.004260972 0.004219218 0.003815827 1000 1000 1000 0.004260972 0.004219218 0.003815827 1000 1000 1000 0.003475967 0.003327401 0.003100923 0.003542109 0.003840796 1000 0.003475967 0.003327401 0.003100923 0.003542109 0.003840796 1000
lala 7 1.2 1 second 3 1 117 5 4.250001 0.61999773979187 -1 1 1 0 0.004372171 0.004809018 0.004408007 0.004992342 0.00611247 1000 0.004372171 0.004809018 0.004408007 0.004992342 0.00611247 1000 0.008155408 0.008521919 0.008864167 0.00844222 0.007464587 1000 0.008155408 0.008521919 0.008864167 0.00844222 0.007464587 1000
lala 10 0.6 1 second 4 1 118 6 5.76 0.599997758865356 -1 0 1 1 0.007011768 0.006825156 0.007347409 0.007488671 0.0072413 1000 0.007011768 0.006825156 0.007347409 0.007488671 0.0072413 1000 0.01039615 0.01092235 0.01150197 0.01082547 0.01111693 1000 0.01039615 0.01092235 0.01150197 0.01082547 0.01111693 1000
lala 10 0.6 0 first 15 1 119 5 3.65 0.899997472763062 0 1 -1 1 0.0116266 0.01005046 0.00901544 1000 1000 1000 0.0116266 0.01005046 0.00901544 1000 1000 1000 0.009715029 0.009825978 0.009445139 0.00899478 0.009356483 1000 0.009715029 0.009825978 0.009445139 0.00899478 0.009356483 1000
lala 6 1.2 1 second 9 1 120 5 3.05 2.97999572753906 1 1 1 0 0.009175037 0.009970562 0.009354165 0.009173128 0.009281666 1000 0.009175037 0.009970562 0.009354165 0.009173128 0.009281666 1000 0.008290092 0.008434602 0.008166111 0.007528763 0.007555291 1000 0.008290092 0.008434602 0.008166111 0.007528763 0.007555291 1000
lala 8 1.2 0 second 12 1 121 4 4.92 2.71999597549438 0 0 -1 1 0.005307075 0.005286565 0.00517453 0.004570162 0.005089371 1000 0.005307075 0.005286565 0.00517453 0.004570162 0.005089371 1000 0.005380435 0.005114594 0.005261433 0.005561573 0.00541056 1000 0.005380435 0.005114594 0.005261433 0.005561573 0.00541056 1000
lala 8 1.2 0 second 1 1 122 4 4.12 1.15999722480774 -1 1 -1 0 0.003303478 0.002616457 0.002614598 0.002624769 0.002547461 1000 0.003303478 0.002616457 0.002614598 0.002624769 0.002547461 1000 0.003999577 0.004421272 0.004989468 0.0051856 0.005700345 1000 0.003999577 0.004421272 0.004989468 0.0051856 0.005700345 1000
lala 9 1.2 1 first 6 1 123 4 2.64 2.61999607086182 1 0 1 1 0.00349271 0.003780883 0.003384446 1000 1000 1000 0.00349271 0.003780883 0.003384446 1000 1000 1000 0.005481864 0.006303831 0.006025206 0.005207617 0.005577874 1000 0.005481864 0.006303831 0.006025206 0.005207617 0.005577874 1000
lala 6 1.2 0 second 11 1 124 6 4.380001 2.95999574661255 1 1 -1 1 -5.593042E-05 -0.0003530596 -0.0005213966 -0.001033971 0.0001802748 1000 -5.593042E-05 -0.0003530596 -0.0005213966 -0.001033971 0.0001802748 1000 0.00545822 0.005520092 0.005818731 0.006891352 0.00752271 1000 0.00545822 0.005520092 0.005818731 0.006891352 0.00752271 1000
lala 10 0.6 1 second 6 1 125 4 2.04 3.57999515533447 1 0 1 0 0.0008694741 -0.002092166 -0.001626375 0.0008093778 0.002983533 1000 0.0008694741 -0.002092166 -0.001626375 0.0008093778 0.002983533 1000 0.0143374 0.02264989 0.03322888 0.03105055 0.02938385 1000 0.0143374 0.02264989 0.03322888 0.03105055 0.02938385 1000
lala 4 1.2 1 first 5 1 126 6 4.380001 0.899997472763062 -1 1 1 0 -0.002037901 -0.002745673 -0.003798022 1000 1000 1000 -0.002037901 -0.002745673 -0.003798022 1000 1000 1000 0.0009709508 0.002010241 0.002974822 0.003283356 0.002431246 1000 0.0009709508 0.002010241 0.002974822 0.003283356 0.002431246 1000
lala 11 0.6 0 first 6 1 127 4 1.44 3.13999557495117 1 0 -1 0 -0.001527527 -0.002035776 -0.001648012 1000 1000 1000 -0.001527527 -0.002035776 -0.001648012 1000 1000 1000 0.0185685 0.01643877 0.01474618 0.01302113 0.01334992 1000 0.0185685 0.01643877 0.01474618 0.01302113 0.01334992 1000
lala 8 1.2 0 second 2 1 128 5 2.85 2.51999616622925 -1 0 -1 1 0.009637959 0.01002385 0.0108244 0.011152 0.0116006 1000 0.009637959 0.01002385 0.0108244 0.011152 0.0116006 1000 0.01182929 0.01177621 0.012664 0.0125337 0.01154931 1000 0.01182929 0.01177621 0.012664 0.0125337 0.01154931 1000
lala 8 1.2 1 first 10 1 129 6 5.58 0.699997663497925 1 0 1 0 0.01033121 0.01106837 0.0101501 1000 1000 1000 0.01033121 0.01106837 0.0101501 1000 1000 1000 0.007293088 0.009322852 0.0102345 0.01038321 0.01105489 1000 0.007293088 0.009322852 0.0102345 0.01038321 0.01105489 1000
lala 9 1.2 1 second 12 1 130 4 6.12 2.13999652862549 0 0 1 1 0.02715141 0.02899715 0.03105655 0.03084407 0.03031347 1000 0.02715141 0.02899715 0.03105655 0.03084407 0.03031347 1000 0.0264009 0.02559637 0.02743235 0.02878816 0.02840379 1000 0.0264009 0.02559637 0.02743235 0.02878816 0.02840379 1000
lala 9 1.2 1 second 1 1 131 4 5.32 0.819997549057007 -1 1 1 1 0.02373024 0.02338649 0.02263118 0.02136431 0.02049584 1000 0.02373024 0.02338649 0.02263118 0.02136431 0.02049584 1000 0.01989659 0.02133418 0.02102267 0.0207407 0.02090353 1000 0.01989659 0.02133418 0.02102267 0.0207407 0.02090353 1000
lala 9 1.2 1 second 10 1 132 6 4.38 0.959997415542603 1 0 1 1 0.02411408 0.02374031 0.02377437 0.02347798 0.02354152 1000 0.02411408 0.02374031 0.02377437 0.02347798 0.02354152 1000 0.02360365 0.0224783 0.02148812 0.02189062 0.0221147 1000 0.02360365 0.0224783 0.02148812 0.02189062 0.0221147 1000
lala 9 1.2 1 first 2 1 133 5 4.05 1.65999698638916 -1 0 1 1 0.0235464 0.02393148 0.0226896 1000 1000 1000 0.0235464 0.02393148 0.0226896 1000 1000 1000 0.02210529 0.02146642 0.02205861 0.02225299 0.02239088 1000 0.02210529 0.02146642 0.02205861 0.02225299 0.02239088 1000
lala 11 0.6 1 first 4 1 134 6 5.16 1.23999714851379 -1 0 1 1 0.02231885 0.02084235 0.01996295 1000 1000 1000 0.02231885 0.02084235 0.01996295 1000 1000 1000 0.02002008 0.02021773 0.02073165 0.02143922 0.02170893 1000 0.02002008 0.02021773 0.02073165 0.02143922 0.02170893 1000
lala 6 1.2 1 first 8 1 135 5 4.5 1.0999972820282 1 0 1 0 0.02575823 0.02690675 0.02702296 1000 1000 1000 0.02575823 0.02690675 0.02702296 1000 1000 1000 0.02259422 0.02192269 0.02196697 0.02261195 0.02308802 1000 0.02259422 0.02192269 0.02196697 0.02261195 0.02308802 1000
lala 7 1.2 0 second 8 1 136 5 3.3 0.919997453689575 1 0 -1 0 0.02067733 0.02018426 0.0212108 0.02180706 0.02183427 1000 0.02067733 0.02018426 0.0212108 0.02180706 0.02183427 1000 0.0214999 0.02189091 0.02120646 0.02098327 0.02160488 1000 0.0214999 0.02189091 0.02120646 0.02098327 0.02160488 1000
lala 11 0.3 1 second 15 1 137 5 3.95 0.859997510910034 0 1 1 1 0.01786332 0.01788445 0.01896785 0.01996753 0.02118395 1000 0.01786332 0.01788445 0.01896785 0.01996753 0.02118395 1000 0.01931021 0.0184822 0.01907114 0.02038686 0.02163715 1000 0.01931021 0.0184822 0.01907114 0.02038686 0.02163715 1000
lala 10 1.2 1 first 10 1 138 6 3.18 0.899997472763062 1 0 1 1 0.02182821 0.02172426 0.02113253 1000 1000 1000 0.02182821 0.02172426 0.02113253 1000 1000 1000 0.02039413 0.01884138 0.01875631 0.01903399 0.01966392 1000 0.02039413 0.01884138 0.01875631 0.01903399 0.01966392 1000
lala 9 1.2 0 second 13 1 139 4 2.92 1.33999705314636 0 1 -1 1 0.01836224 0.01853825 0.01885805 0.01990795 0.02049485 1000 0.01836224 0.01853825 0.01885805 0.01990795 0.02049485 1000 0.01962597 0.01979002 0.02028939 0.02121861 0.02218438 1000 0.01962597 0.01979002 0.02028939 0.02121861 0.02218438 1000
lala 12 0.6 1 first 4 1 140 6 4.56 0.499997854232788 -1 0 1 0 0.01010165 0.01100674 0.01233555 1000 1000 1000 0.01010165 0.01100674 0.01233555 1000 1000 1000 0.02060624 0.01951725 0.01921392 0.01998872 0.02035642 1000 0.02060624 0.01951725 0.01921392 0.01998872 0.02035642 1000
lala 10 0.6 1 first 12 1 141 4 5.52 0.599997758865356 0 0 1 1 0.01948126 0.01931139 0.01953322 1000 1000 1000 0.01948126 0.01931139 0.01953322 1000 1000 1000 0.02009198 0.01999748 0.0198229 0.01934844 0.01856261 1000 0.02009198 0.01999748 0.0198229 0.01934844 0.01856261 1000
lala 8 1.2 1 first 3 1 142 5 3.050001 1.07999730110168 -1 1 1 0 0.01728898 0.0177927 0.01783024 1000 1000 1000 0.01728898 0.0177927 0.01783024 1000 1000 1000 0.02249238 0.02238336 0.02295553 0.02264285 0.02340808 1000 0.02249238 0.02238336 0.02295553 0.02264285 0.02340808 1000
lala 10 0.6 0 second 2 1 143 5 3.45 0.839997529983521 -1 0 -1 0 0.02150987 0.02277569 0.02406034 0.0230748 0.02210989 1000 0.02150987 0.02277569 0.02406034 0.0230748 0.02210989 1000 0.01881682 0.01937705 0.01919972 0.0185312 0.01792816 1000 0.01881682 0.01937705 0.01919972 0.0185312 0.01792816 1000
lala 9 1.2 1 second 3 1 144 5 1.850001 0.599997758865356 -1 1 1 1 0.01464286 0.01528682 0.01542177 0.01514055 0.01459156 1000 0.01464286 0.01528682 0.01542177 0.01514055 0.01459156 1000 0.0183679 0.01796589 0.01791818 0.0175339 0.01624072 1000 0.0183679 0.01796589 0.01791818 0.0175339 0.01624072 1000
lala 7 1.2 1 second 11 1 145 6 5.580001 3.4799952507019 1 1 1 1 0.008652404 0.007029235 0.005324637 0.00684144 0.01106821 1000 0.008652404 0.007029235 0.005324637 0.00684144 0.01106821 1000 0.01300122 0.01270987 0.01360999 0.01467478 0.01676482 1000 0.01300122 0.01270987 0.01360999 0.01467478 0.01676482 1000
lala 8 1.2 1 second 8 1 146 5 4.5 0.859997510910034 1 0 1 0 0.01491131 0.01465528 0.01442582 0.0159281 0.01664086 1000 0.01491131 0.01465528 0.01442582 0.0159281 0.01664086 1000 0.0167863 0.01520183 0.01449541 0.01388222 0.01429188 1000 0.0167863 0.01520183 0.01449541 0.01388222 0.01429188 1000
lala 11 2.4 0 first 10 1 147 6 1.98 0.459997892379761 1 0 -1 1 0.01728333 0.01982518 0.02064811 1000 1000 1000 0.01728333 0.01982518 0.02064811 1000 1000 1000 0.01601535 0.01466459 0.01404916 0.01471791 0.0146224 1000 0.01601535 0.01466459 0.01404916 0.01471791 0.0146224 1000
lala 8 1.2 1 second 11 1 148 6 4.380001 0.579997777938843 1 1 1 1 0.01455057 0.0137296 0.01368186 0.01499451 0.01605995 1000 0.01455057 0.0137296 0.01368186 0.01499451 0.01605995 1000 0.01628142 0.01593302 0.01682178 0.01718784 0.01725068 1000 0.01628142 0.01593302 0.01682178 0.01718784 0.01725068 1000
lala 11 0.6 1 second 12 1 149 4 4.92 0.61999773979187 0 0 1 1 0.02012368 0.01998291 0.01841631 0.01804924 0.01860358 1000 0.02012368 0.01998291 0.01841631 0.01804924 0.01860358 1000 0.01950288 0.0193405 0.01793566 0.01669257 0.01673962 1000 0.01950288 0.0193405 0.01793566 0.01669257 0.01673962 1000
lala 13 1.2 0 second 4 1 150 6 3.36 0.539997816085815 -1 0 -1 1 0.02846558 0.03279369 0.03669353 0.03810379 0.03906649 1000 0.02846558 0.03279369 0.03669353 0.03810379 0.03906649 1000 0.04465073 0.04467892 0.04494339 0.04505356 0.04567314 1000 0.04465073 0.04467892 0.04494339 0.04505356 0.04567314 1000
lala 5 1.2 1 second 7 1 151 4 2.92 2.03999662399292 1 1 1 0 -0.02697282 -0.03007234 -0.02756848 -0.02481336 -0.02674129 1000 -0.02697282 -0.03007234 -0.02756848 -0.02481336 -0.02674129 1000 -0.02489664 -0.02749062 -0.02714316 -0.02510102 -0.02223377 1000 -0.02489664 -0.02749062 -0.02714316 -0.02510102 -0.02223377 1000
lala 6 1.2 1 first 14 1 152 5 6.9 0.659997701644897 0 0 1 1 -0.01351401 -0.01257067 -0.01161665 1000 1000 1000 -0.01351401 -0.01257067 -0.01161665 1000 1000 1000 -0.007433067 -0.006579001 -0.00490603 -0.004029008 -0.004157559 1000 -0.007433067 -0.006579001 -0.00490603 -0.004029008 -0.004157559 1000
lala 7 1.2 1 first 0 1 153 4 5.04 0.739997625350952 -1 0 1 1 -0.00738986 -0.008155026 -0.007500377 1000 1000 1000 -0.00738986 -0.008155026 -0.007500377 1000 1000 1000 -0.001280445 -0.0008488796 -0.0003940195 -0.001203509 -0.002659148 1000 -0.001280445 -0.0008488796 -0.0003940195 -0.001203509 -0.002659148 1000
lala 9 1.2 0 first 11 1 154 6 3.180001 1.47999691963196 1 1 -1 1 -0.0009741276 -0.001099956 -0.002319589 1000 1000 1000 -0.0009741276 -0.001099956 -0.002319589 1000 1000 1000 -0.001280493 -0.001013076 -0.001047348 -0.0002292255 0.0004343768 1000 -0.001280493 -0.001013076 -0.001047348 -0.0002292255 0.0004343768 1000
lala 10 0.6 1 second 1 1 155 4 4.72 0.959997415542603 -1 1 1 0 -0.001091023 -0.0005541061 0.0006974761 0.001337669 0.00201798 1000 -0.001091023 -0.0005541061 0.0006974761 0.001337669 0.00201798 1000 0.005032165 0.004497099 0.004017002 0.004767125 0.00534886 1000 0.005032165 0.004497099 0.004017002 0.004767125 0.00534886 1000
lala 11 0.3 0 second 2 1 156 5 3.75 1.19999718666077 -1 0 -1 0 0.008158809 0.008557669 0.007206594 0.007425899 0.004031645 1000 0.008158809 0.008557669 0.007206594 0.007425899 0.004031645 1000 0.008239811 0.008384182 0.009620556 0.01089887 0.01250036 1000 0.008239811 0.008384182 0.009620556 0.01089887 0.01250036 1000
lala 12 0.3 1 second 6 1 157 4 1.74 1.37999701499939 1 0 1 0 0.009087696 0.007926259 0.007730643 0.008733825 0.008829894 1000 0.009087696 0.007926259 0.007730643 0.008733825 0.008829894 1000 0.007509679 0.007788914 0.007528368 0.006739463 0.006552408 1000 0.007509679 0.007788914 0.007528368 0.006739463 0.006552408 1000
lala 13 0.15 1 second 6 1 158 4 1.59 0.979997396469116 1 0 1 1 0.004699002 0.004807198 0.004475673 0.004607076 0.00441027 1000 0.004699002 0.004807198 0.004475673 0.004607076 0.00441027 1000 0.002261527 0.00273227 0.002028386 0.002029476 0.002494049 1000 0.002261527 0.00273227 0.002028386 0.002029476 0.002494049 1000
lala 14 0.15 0 first 6 1 159 4 1.44 0.879997491836548 1 0 -1 1 0.003942846 0.003874857 0.004747097 1000 1000 1000 0.003942846 0.003874857 0.004747097 1000 1000 1000 0.00882885 0.0104017 0.01163085 0.009962679 0.01213457 1000 0.00882885 0.0104017 0.01163085 0.009962679 0.01213457 1000
lala 9 1.2 1 second 8 1 160 5 3.3 4.17999458312988 1 0 1 1 0.008681407 0.003502233 0.001846718 0.000550499 -0.001950941 1000 0.008681407 0.003502233 0.001846718 0.000550499 -0.001950941 1000 0.002886714 0.008438514 0.01052079 0.01220347 0.01176334 1000 0.002886714 0.008438514 0.01052079 0.01220347 0.01176334 1000
lala 7 1.2 1 second 14 1 161 5 5.7 1.37999701499939 0 0 1 1 -0.0001873723 -0.002536443 -0.002233095 -0.00272066 -0.003974874 1000 -0.0001873723 -0.002536443 -0.002233095 -0.00272066 -0.003974874 1000 7.746338E-05 -0.002397639 -0.005614025 -0.005980987 -0.004631181 1000 7.746338E-05 -0.002397639 -0.005614025 -0.005980987 -0.004631181 1000
lala 8 1.2 1 first 14 1 162 5 4.5 3.57999515533447 0 0 1 1 0.02581062 0.02960571 0.03061678 1000 1000 1000 0.02581062 0.02960571 0.03061678 1000 1000 1000 0.02494139 0.02515551 0.02496562 0.02401219 0.02327111 1000 0.02494139 0.02515551 0.02496562 0.02401219 0.02327111 1000
lala 12 0.6 1 first 12 1 163 4 4.32 3.41999530792236 0 0 1 1 0.005418599 0.005207851 0.004956029 1000 1000 1000 0.005418599 0.005207851 0.004956029 1000 1000 1000 0.0005859099 0.002548875 0.007637056 0.006700043 -0.00125004 1000 0.0005859099 0.002548875 0.007637056 0.006700043 -0.00125004 1000
lala 11 0.6 0 first 1 1 164 4 4.12 3.09999561309814 -1 1 -1 1 -0.01997483 -0.02027986 -0.01995368 1000 1000 1000 -0.01997483 -0.02027986 -0.01995368 1000 1000 1000 -0.01688891 -0.01671372 -0.01655036 -0.0162411 -0.01629315 1000 -0.01688891 -0.01671372 -0.01655036 -0.0162411 -0.01629315 1000
lala 12 0.3 1 first 2 1 165 5 4.05 1.21999716758728 -1 0 1 1 -0.02114157 -0.02090128 -0.02131368 1000 1000 1000 -0.02114157 -0.02090128 -0.02131368 1000 1000 1000 -0.009645886 -0.009729917 -0.010044 -0.01010389 -0.009922988 1000 -0.009645886 -0.009729917 -0.010044 -0.01010389 -0.009922988 1000
lala 13 1.2 0 second 12 1 166 4 3.12 0.699997663497925 0 0 -1 1 -0.01229382 -0.01234633 -0.01248645 -0.01286519 -0.01299459 1000 -0.01229382 -0.01234633 -0.01248645 -0.01286519 -0.01299459 1000 -0.01205896 -0.01211476 -0.01216879 -0.01134648 -0.01147389 1000 -0.01205896 -0.01211476 -0.01216879 -0.01134648 -0.01147389 1000
lala 10 1.2 1 second 13 1 167 4 4.12 0.99999737739563 0 1 1 1 -0.01271774 -0.01212178 -0.01268362 -0.01308417 -0.0129044 1000 -0.01271774 -0.01212178 -0.01268362 -0.01308417 -0.0129044 1000 -0.01725877 -0.0164751 -0.01607204 -0.01527595 -0.01448723 1000 -0.01725877 -0.0164751 -0.01607204 -0.01527595 -0.01448723 1000
lala 7 1.2 1 first 9 1 168 5 1.85 1.41999697685242 1 1 1 0 -0.01488552 -0.01792503 -0.01955931 1000 1000 1000 -0.01488552 -0.01792503 -0.01955931 1000 1000 1000 -0.005784273 -0.006138574 -0.008164304 -0.009109986 -0.008527877 1000 -0.005784273 -0.006138574 -0.008164304 -0.009109986 -0.008527877 1000
lala 12 0.3 1 first 1 1 169 4 4.42 1.19999718666077 -1 1 1 0 -0.002771734 -0.002866888 -0.002494515 1000 1000 1000 -0.002771734 -0.002866888 -0.002494515 1000 1000 1000 -0.004891609 -0.004658824 -0.005386979 -0.005151871 -0.005147413 1000 -0.004891609 -0.004658824 -0.005386979 -0.005151871 -0.005147413 1000
lala 14 0.6 1 first 4 1 170 6 3.96 2.159996509552 -1 0 1 1 -0.00942511 -0.008855074 -0.008192655 1000 1000 1000 -0.00942511 -0.008855074 -0.008192655 1000 1000 1000 0.0004658803 0.001676166 -0.001132645 -0.0005174925 0.0020741 1000 0.0004658803 0.001676166 -0.001132645 -0.0005174925 0.0020741 1000
lala 6 1.2 1 second 7 1 171 4 1.72 0.799997568130493 1 1 1 1 -0.003387794 -0.003596056 -0.004034967 -0.004634963 -0.005091611 1000 -0.003387794 -0.003596056 -0.004034967 -0.004634963 -0.005091611 1000 -0.005282511 -0.00582016 -0.006546745 -0.006080037 -0.005665746 1000 -0.005282511 -0.00582016 -0.006546745 -0.006080037 -0.005665746 1000
lala 8 1.2 1 second 9 1 172 5 1.65 0.719997644424438 1 1 1 0 -0.008812402 -0.008006921 -0.007410797 -0.006128621 -0.005215302 1000 -0.008812402 -0.008006921 -0.007410797 -0.006128621 -0.005215302 1000 -0.006533059 -0.006320797 -0.006681814 -0.007301778 -0.007492586 1000 -0.006533059 -0.006320797 -0.006681814 -0.007301778 -0.007492586 1000
lala 13 0.15 1 first 1 1 173 4 4.27 2.89999580383301 -1 1 1 1 -0.006913585 -0.006037699 -0.004890137 1000 1000 1000 -0.006913585 -0.006037699 -0.004890137 1000 1000 1000 -0.01070485 -0.01747636 -0.02755678 -0.03512003 -0.04579923 1000 -0.01070485 -0.01747636 -0.02755678 -0.03512003 -0.04579923 1000
lala 15 0.3 0 second 4 1 174 6 3.66 0.919997453689575 -1 0 -1 1 -0.001707747 -0.001628733 -0.001932545 0.001597253 0.003289473 1000 -0.001707747 -0.001628733 -0.001932545 0.001597253 0.003289473 1000 -0.003168919 -0.003225203 -0.002245287 -0.001396811 -0.0004352728 1000 -0.003168919 -0.003225203 -0.002245287 -0.001396811 -0.0004352728 1000
lala 10 2.4 0 second 3 1 175 5 1.65 1.37999701499939 -1 1 -1 0 -0.003207547 -0.000269086 0.004011238 0.004777411 0.005795818 1000 -0.003207547 -0.000269086 0.004011238 0.004777411 0.005795818 1000 0.008039124 0.008324919 0.008333961 0.00812297 0.008241318 1000 0.008039124 0.008324919 0.008333961 0.00812297 0.008241318 1000
lala 10 0.6 0 second 17 1 176 6 3.780001 2.53999614715576 0 1 -1 0 0.005119743 0.005048333 0.004202812 0.003474645 0.003851254 1000 0.005119743 0.005048333 0.004202812 0.003474645 0.003851254 1000 0.000920053 0.0003992987 0.0004360406 -4.334468E-05 -0.0008012041 1000 0.000920053 0.0003992987 0.0004360406 -4.334468E-05 -0.0008012041 1000
lala 12 1.2 1 second 10 1 177 6 3.18 2.21999645233154 1 0 1 1 -0.00353676 -0.003221727 -0.00314805 -0.002418461 -0.001432951 1000 -0.00353676 -0.003221727 -0.00314805 -0.002418461 -0.001432951 1000 -0.001534585 -0.001509919 -0.002300573 -0.002868583 -0.002676112 1000 -0.001534585 -0.001509919 -0.002300573 -0.002868583 -0.002676112 1000
lala 7 1.2 1 second 16 1 178 6 4.38 1.35999703407288 0 0 1 0 -0.005482382 -0.004341334 -0.00327073 -0.002888405 -0.00368474 1000 -0.005482382 -0.004341334 -0.00327073 -0.002888405 -0.00368474 1000 -0.004420941 -0.004301768 -0.004798818 -0.00477719 -0.004953582 1000 -0.004420941 -0.004301768 -0.004798818 -0.00477719 -0.004953582 1000
lala 16 0.15 1 second 4 1 179 6 3.81 1.21999716758728 -1 0 1 1 -0.007497897 -0.007849298 -0.008178955 -0.008318949 -0.008168535 1000 -0.007497897 -0.007849298 -0.008178955 -0.008318949 -0.008168535 1000 -0.005939296 -0.006552173 -0.006377464 -0.005891105 -0.005900946 1000 -0.005939296 -0.006552173 -0.006377464 -0.005891105 -0.005900946 1000
lala 11 0.6 0 second 17 1 180 6 4.380001 0.739997625350952 0 1 -1 1 -0.007223542 -0.006582148 -0.006601817 -0.006801678 -0.006506369 1000 -0.007223542 -0.006582148 -0.006601817 -0.006801678 -0.006506369 1000 -0.007266857 -0.007792016 -0.007780289 -0.006672413 -0.005974163 1000 -0.007266857 -0.007792016 -0.007780289 -0.006672413 -0.005974163 1000
lala 7 1.2 0 first 7 1 181 4 1.32 2.57999610900879 1 1 -1 1 -0.006300346 -0.005233122 -0.005044119 1000 1000 1000 -0.006300346 -0.005233122 -0.005044119 1000 1000 1000 -0.004179191 -0.004710712 -0.004491709 -0.004088609 -0.00405154 1000 -0.004179191 -0.004710712 -0.004491709 -0.004088609 -0.00405154 1000
lala 8 1.2 0 second 16 1 182 6 3.18 1.15999722480774 0 0 -1 0 -0.003075514 -0.002522494 -0.002018748 -0.001887628 -0.001190295 1000 -0.003075514 -0.002522494 -0.002018748 -0.001887628 -0.001190295 1000 0.00177732 0.001026006 0.0004689261 -0.0005206189 -0.002122237 1000 0.00177732 0.001026006 0.0004689261 -0.0005206189 -0.002122237 1000
lala 9 1.2 0 first 14 1 183 5 3.3 0.899997472763062 0 0 -1 1 -0.0001032654 -5.028766E-05 0.0004903335 1000 1000 1000 -0.0001032654 -5.028766E-05 0.0004903335 1000 1000 1000 -0.0005236781 -0.001188621 -0.001996214 -0.001958564 -0.001483085 1000 -0.0005236781 -0.001188621 -0.001996214 -0.001958564 -0.001483085 1000
lala 13 0.15 0 first 2 1 184 5 3.9 0.939997434616089 -1 0 -1 0 0.0007905765 0.000363702 0.001348221 1000 1000 1000 0.0007905765 0.000363702 0.001348221 1000 1000 1000 0.002360394 0.003337709 0.003499059 0.004220039 0.00513311 1000 0.002360394 0.003337709 0.003499059 0.004220039 0.00513311 1000
lala 8 1.2 1 second 0 1 185 4 3.84 0.839997529983521 -1 0 1 0 0.00388083 0.003678998 0.003920159 0.004268871 0.004334484 1000 0.00388083 0.003678998 0.003920159 0.004268871 0.004334484 1000 0.006916895 0.007099606 0.006567047 0.005360576 0.005975845 1000 0.006916895 0.007099606 0.006567047 0.005360576 0.005975845 1000
lala 15 0.075 0 first 6 1 186 4 1.515 1.21999716758728 1 0 -1 1 0.00260897 0.003014319 0.003151942 1000 1000 1000 0.00260897 0.003014319 0.003151942 1000 1000 1000 0.00781391 0.007298064 0.007680956 0.008129423 0.007658283 1000 0.00781391 0.007298064 0.007680956 0.008129423 0.007658283 1000
lala 9 1.2 0 first 9 1 187 5 1.65 0.779997587203979 1 1 -1 1 0.005055365 0.005387296 0.006528831 1000 1000 1000 0.005055365 0.005387296 0.006528831 1000 1000 1000 0.00833906 0.008138102 0.007071321 0.007183766 0.007392223 1000 0.00833906 0.008138102 0.007071321 0.007183766 0.007392223 1000
lala 12 0.15 1 second 15 1 188 5 3.8 0.659997701644897 0 1 1 1 0.008632428 0.008248576 0.006691432 0.006001641 0.007011433 1000 0.008632428 0.008248576 0.006691432 0.006001641 0.007011433 1000 0.01437028 0.014909 0.01494273 0.01438083 0.01391381 1000 0.01437028 0.014909 0.01494273 0.01438083 0.01391381 1000
lala 13 0.15 1 first 15 1 189 5 3.65 0.579997777938843 0 1 1 1 0.01250168 0.01168424 0.0122036 1000 1000 1000 0.01250168 0.01168424 0.0122036 1000 1000 1000 0.01314723 0.01332886 0.01288084 0.01270335 0.01285988 1000 0.01314723 0.01332886 0.01288084 0.01270335 0.01285988 1000
lala 8 1.2 0 second 7 1 190 4 2.52 0.839997529983521 1 1 -1 0 0.01259107 0.01351627 0.01430307 0.01683876 0.01783044 1000 0.01259107 0.01351627 0.01430307 0.01683876 0.01783044 1000 0.01693449 0.01336807 0.01279118 0.01058566 0.01250981 1000 0.01693449 0.01336807 0.01279118 0.01058566 0.01250981 1000
lala 11 0.6 1 first 13 1 191 4 3.52 3.13999557495117 0 1 1 0 0.004498429 -0.003087147 -0.004674946 1000 1000 1000 0.004498429 -0.003087147 -0.004674946 1000 1000 1000 0.01825994 0.01752384 0.01426819 0.01400118 0.0174144 1000 0.01825994 0.01752384 0.01426819 0.01400118 0.0174144 1000
lala 14 0.6 0 second 12 1 192 4 3.72 0.599997758865356 0 0 -1 1 0.008194574 0.008016702 0.008323879 0.008670549 0.008968921 1000 0.008194574 0.008016702 0.008323879 0.008670549 0.008968921 1000 0.01169674 0.0124139 0.01147477 0.01116641 0.01292545 1000 0.01169674 0.0124139 0.01147477 0.01116641 0.01292545 1000
lala 9 1.2 0 second 16 1 193 6 4.38 0.899997472763062 0 0 -1 0 0.002100153 0.003129291 0.003250573 0.002153301 0.001712553 1000 0.002100153 0.003129291 0.003250573 0.002153301 0.001712553 1000 0.002648885 0.002744603 0.003430919 0.00313637 0.002117376 1000 0.002648885 0.002744603 0.003430919 0.00313637 0.002117376 1000
lala 9 1.2 0 first 0 1 194 4 2.64 4.17999458312988 -1 0 -1 0 -0.001216912 -0.0004952497 -0.000474674 1000 1000 1000 -0.001216912 -0.0004952497 -0.000474674 1000 1000 1000 -0.01031382 -0.00795448 -0.01070985 -0.01966656 -0.02700106 1000 -0.01031382 -0.00795448 -0.01070985 -0.01966656 -0.02700106 1000
lala 13 0.6 0 first 10 1 195 6 2.58 1.3999969959259 1 0 -1 0 -0.002597137 -0.001461528 0.006279774 1000 1000 1000 -0.002597137 -0.001461528 0.006279774 1000 1000 1000 0.01810749 0.01936064 0.01985236 0.0199457 0.0196067 1000 0.01810749 0.01936064 0.01985236 0.0199457 0.0196067 1000
lala 14 0.15 0 second 15 1 196 5 3.5 1.05999732017517 0 1 -1 0 0.01268801 0.01215941 0.01343735 0.01382213 0.0144879 1000 0.01268801 0.01215941 0.01343735 0.01382213 0.0144879 1000 0.01524852 0.01422058 0.01421235 0.015307 0.01655788 1000 0.01524852 0.01422058 0.01421235 0.015307 0.01655788 1000
lala 15 0.075 1 first 15 1 197 5 3.575 0.559997797012329 0 1 1 1 0.02308849 0.02223879 0.02120485 1000 1000 1000 0.02308849 0.02223879 0.02120485 1000 1000 1000 0.02413631 0.02328215 0.02293601 0.02344415 0.02354594 1000 0.02413631 0.02328215 0.02293601 0.02344415 0.02354594 1000
lala 10 0.6 1 second 0 1 198 4 3.24 2.11999654769897 -1 0 1 0 0.02165076 0.02081521 0.01985206 0.01899204 0.01922344 1000 0.02165076 0.02081521 0.01985206 0.01899204 0.01922344 1000 0.01939122 0.01979605 0.01996101 0.01998827 0.02055338 1000 0.01939122 0.01979605 0.01996101 0.01998827 0.02055338 1000
lala 10 1.2 1 second 16 1 199 6 5.58 3.05999565124512 0 0 1 0 0.02152847 0.02186708 0.02159665 0.02079961 0.02054649 1000 0.02152847 0.02186708 0.02159665 0.02079961 0.02054649 1000 0.03225527 0.03229065 0.03135554 0.03193619 0.03277916 1000 0.03225527 0.03229065 0.03135554 0.03193619 0.03277916 1000
lala 11 1.2 0 first 3 1 200 5 2.85 0.599997758865356 -1 1 -1 1 -0.01904825 -0.009890277 -0.001601842 0.0005684295 0.004772184 0.01127979 -0.01904825 -0.009890277 -0.001601842 0.0005684295 0.004772184 0.01127979 0.01771342 0.01376465 0.01195122 0.01192954 0.01177292 1000 0.01771342 0.01376465 0.01195122 0.01192954 0.01177292 1000
lala 10 1.2 0 first 8 1 201 5 2.1 0.659997701644897 1 0 -1 0 0.02271619 0.02291322 0.02622142 1000 1000 1000 0.02271619 0.02291322 0.02622142 1000 1000 1000 0.02063455 0.02033609 0.020152 0.01807253 0.0170669 1000 0.02063455 0.02033609 0.020152 0.01807253 0.0170669 1000
lala 17 0.075 0 second 4 1 202 6 3.735 0.579997777938843 -1 0 -1 1 0.01063017 0.0123057 0.01292942 0.01163959 0.008807019 1000 0.01063017 0.0123057 0.01292942 0.01163959 0.008807019 1000 0.008932869 0.008463054 0.008321989 0.008594054 0.00674323 1000 0.008932869 0.008463054 0.008321989 0.008594054 0.00674323 1000
lala 12 0.6 1 first 13 1 203 4 2.92 0.919997453689575 0 1 1 0 0.006132106 0.006807848 0.005604742 1000 1000 1000 0.006132106 0.006807848 0.005604742 1000 1000 1000 0.01370791 0.01327546 0.013764 0.01397062 0.01498268 1000 0.01370791 0.01327546 0.013764 0.01397062 0.01498268 1000
lala 15 0.6 1 first 12 1 204 4 4.32 0.559997797012329 0 0 1 1 0.01381219 0.01230061 0.01070561 1000 1000 1000 0.01381219 0.01230061 0.01070561 1000 1000 1000 0.01615825 0.0139065 0.01165516 0.01150494 0.01151191 1000 0.01615825 0.0139065 0.01165516 0.01150494 0.01151191 1000
lala 5 1.2 0 first 5 1 205 6 3.180001 0.839997529983521 -1 1 -1 1 0.01059676 0.01051492 0.01128891 1000 1000 1000 0.01059676 0.01051492 0.01128891 1000 1000 1000 0.0135349 0.01364165 0.01260636 0.01233908 0.0119099 1000 0.0135349 0.01364165 0.01260636 0.01233908 0.0119099 1000
lala 9 1.2 1 second 7 1 206 4 3.72 0.39999794960022 1 1 1 1 0.009883417 0.008666065 0.007896296 0.008509968 0.01062639 1000 0.009883417 0.008666065 0.007896296 0.008509968 0.01062639 1000 0.008282881 0.008352565 0.007358722 0.00719657 0.007916705 1000 0.008282881 0.008352565 0.007358722 0.00719657 0.007916705 1000
lala 11 0.6 1 second 16 1 207 6 4.98 0.639997720718384 0 0 1 1 0.006988605 0.007611244 0.0072538 0.006281431 0.006133559 1000 0.006988605 0.007611244 0.0072538 0.006281431 0.006133559 1000 0.00665267 0.007258103 0.007917373 0.007184489 0.006669924 1000 0.00665267 0.007258103 0.007917373 0.007184489 0.006669924 1000
lala 10 0.6 1 second 7 1 208 4 3.12 0.759997606277466 1 1 1 0 0.002477704 0.001729774 0.001399067 0.002289823 0.00198549 1000 0.002477704 0.001729774 0.001399067 0.002289823 0.00198549 1000 -0.003812515 -0.003680911 -0.003931155 -0.003578373 -0.002220264 1000 -0.003812515 -0.003680911 -0.003931155 -0.003578373 -0.002220264 1000
lala 18 0.0375 0 second 4 1 209 6 3.7725 1.15999722480774 -1 0 -1 1 0.0001480678 0.0011207 0.002233906 0.001984553 0.002143166 1000 0.0001480678 0.0011207 0.002233906 0.001984553 0.002143166 1000 0.002893606 0.003296222 0.00418737 0.004499151 0.003570355 1000 0.002893606 0.003296222 0.00418737 0.004499151 0.003570355 1000
lala 10 0.6 1 first 11 1 210 6 3.780001 0.839997529983521 1 1 1 1 -0.0007619048 -3.751829E-05 0.0002618619 1000 1000 1000 -0.0007619048 -3.751829E-05 0.0002618619 1000 1000 1000 -0.002919203 -0.002776876 -0.003017746 -0.003913822 -0.00393573 1000 -0.002919203 -0.002776876 -0.003017746 -0.003913822 -0.00393573 1000
lala 11 0.6 1 first 8 1 211 5 2.7 0.979997396469116 1 0 1 1 -0.02058849 -0.0191119 -0.01325725 1000 1000 1000 -0.02058849 -0.0191119 -0.01325725 1000 1000 1000 0.01209029 0.01698191 0.01309889 0.01001517 0.01108575 1000 0.01209029 0.01698191 0.01309889 0.01001517 0.01108575 1000
lala 16 0.3 1 second 12 1 212 4 4.02 0.679997682571411 0 0 1 0 0.007976269 0.01116941 0.01523103 0.01815615 0.01889415 1000 0.007976269 0.01116941 0.01523103 0.01815615 0.01889415 1000 0.01106653 0.01207603 0.01466196 0.01630389 0.01844673 1000 0.01106653 0.01207603 0.01466196 0.01630389 0.01844673 1000
lala 11 0.6 0 first 7 1 213 4 2.52 0.819997549057007 1 1 -1 1 0.02411694 0.02299372 0.02161481 1000 1000 1000 0.02411694 0.02299372 0.02161481 1000 1000 1000 -0.01404889 -0.01599354 -0.0177591 -0.02015449 -0.02176318 1000 -0.01404889 -0.01599354 -0.0177591 -0.02015449 -0.02176318 1000
lala 10 0.6 1 second 9 1 214 5 2.25 0.499997854232788 1 1 1 1 0.0001833889 0.00206504 0.0002685339 0.0006421558 0.001177068 1000 0.0001833889 0.00206504 0.0002685339 0.0006421558 0.001177068 1000 0.0004015627 0.0005940835 0.00102014 3.59223E-05 0.000328988 1000 0.0004015627 0.0005940835 0.00102014 3.59223E-05 0.000328988 1000
lala 16 0.0375 0 first 15 1 215 5 3.5375 1.51999688148499 0 1 -1 1 -3.105932E-05 -0.0005333027 -0.0001447977 1000 1000 1000 -3.105932E-05 -0.0005333027 -0.0001447977 1000 1000 1000 0.0001613379 0.0003637976 0.0002632553 0.0003789196 0.001064746 1000 0.0001613379 0.0003637976 0.0002632553 0.0003789196 0.001064746 1000
lala 11 0.3 1 second 0 1 216 4 2.94 0.939997434616089 -1 0 1 0 -0.001155133 -0.002254341 -0.002870483 -0.003868023 -0.00470984 1000 -0.001155133 -0.002254341 -0.002870483 -0.003868023 -0.00470984 1000 -0.005084216 -0.003962333 -0.003703007 -0.004493981 -0.00543371 1000 -0.005084216 -0.003962333 -0.003703007 -0.004493981 -0.00543371 1000
lala 12 0.3 1 second 0 1 217 4 2.64 1.3999969959259 -1 0 1 0 -0.008596153 -0.008318779 -0.007776309 -0.008037561 -0.008175317 1000 -0.008596153 -0.008318779 -0.007776309 -0.008037561 -0.008175317 1000 -0.007559078 -0.00760397 -0.008992292 -0.009316899 -0.006247981 1000 -0.007559078 -0.00760397 -0.008992292 -0.009316899 -0.006247981 1000
lala 17 0.3 0 first 12 1 218 4 3.72 0.519997835159302 0 0 -1 1 -0.00582201 -0.005646009 -0.00482653 1000 1000 1000 -0.00582201 -0.005646009 -0.00482653 1000 1000 1000 -0.005318385 -0.006120844 -0.007676646 -0.01078785 -0.01071922 1000 -0.005318385 -0.006120844 -0.007676646 -0.01078785 -0.01071922 1000
lala 18 0.15 1 first 12 1 219 4 3.87 1.79999685287476 0 0 1 1 -0.008201295 -0.01035913 -0.01098899 1000 1000 1000 -0.008201295 -0.01035913 -0.01098899 1000 1000 1000 -0.006475997 -0.006042627 -0.006069573 -0.005712028 -0.006747049 1000 -0.006475997 -0.006042627 -0.006069573 -0.005712028 -0.006747049 1000
lala 10 0.6 1 second 14 1 220 5 3.9 2.2999963760376 0 0 1 1 0.003412818 0.004863326 0.003103844 0.0006256488 0.005275945 1000 0.003412818 0.004863326 0.003103844 0.0006256488 0.005275945 1000 0.01970053 0.01591266 0.01225825 0.01057066 0.01631555 1000 0.01970053 0.01591266 0.01225825 0.01057066 0.01631555 1000
lala 11 0.3 0 first 14 1 221 5 3.6 1.33999705314636 0 0 -1 0 0.009035069 0.006742399 0.006556947 1000 1000 1000 0.009035069 0.006742399 0.006556947 1000 1000 1000 0.02453665 0.02405713 0.0243584 0.02036912 0.01819606 1000 0.02453665 0.02405713 0.0243584 0.02036912 0.01819606 1000
lala 11 0.3 0 first 11 1 222 6 3.480001 0.939997434616089 1 1 -1 0 0.01450516 0.01540922 0.01538095 1000 1000 1000 0.01450516 0.01540922 0.01538095 1000 1000 1000 0.02322971 0.02316715 0.02166668 0.02129607 0.02127573 1000 0.02322971 0.02316715 0.02166668 0.02129607 0.02127573 1000
lala 16 0.075 1 first 6 1 223 4 1.59 0.699997663497925 1 0 1 0 0.01963674 0.01499699 0.006845945 1000 1000 1000 0.01963674 0.01499699 0.006845945 1000 1000 1000 -0.008486764 -0.00840253 -0.0083867 -0.007681707 -0.006039143 1000 -0.008486764 -0.00840253 -0.0083867 -0.007681707 -0.006039143 1000
lala 12 0.6 1 first 16 1 224 6 4.38 0.699997663497925 0 0 1 0 -0.003338283 -0.0001406208 -0.002727078 1000 1000 1000 -0.003338283 -0.0001406208 -0.002727078 1000 1000 1000 -0.006222904 -0.005233047 -0.004319053 -0.003708666 -0.003151869 1000 -0.006222904 -0.005233047 -0.004319053 -0.003708666 -0.003151869 1000
lala 12 0.3 1 second 8 1 225 5 2.4 0.599997758865356 1 0 1 0 -0.006115288 -0.00810123 -0.006387097 -0.004634518 -0.004579581 1000 -0.006115288 -0.00810123 -0.006387097 -0.004634518 -0.004579581 1000 -0.008621924 -0.00835037 -0.00893776 -0.009114002 -0.008418407 1000 -0.008621924 -0.00835037 -0.00893776 -0.009114002 -0.008418407 1000
lala 12 0.6 0 first 17 1 226 6 4.980001 1.45999693870544 0 1 -1 0 -0.009671073 -0.009292624 -0.009210118 1000 1000 1000 -0.009671073 -0.009292624 -0.009210118 1000 1000 1000 -0.01021066 -0.01012257 -0.009246155 -0.009032526 -0.00783075 1000 -0.01021066 -0.01012257 -0.009246155 -0.009032526 -0.00783075 1000
lala 13 0.3 1 second 0 1 227 4 2.34 1.33999705314636 -1 0 1 1 -0.009672056 -0.01164364 -0.0153956 -0.01959588 -0.02244068 1000 -0.009672056 -0.01164364 -0.0153956 -0.01959588 -0.02244068 1000 -0.01612685 -0.01614129 -0.01617308 -0.01601049 -0.0160982 1000 -0.01612685 -0.01614129 -0.01617308 -0.01601049 -0.0160982 1000
lala 12 0.3 0 first 7 1 228 4 2.82 0.679997682571411 1 1 -1 0 -0.01630998 -0.01747158 -0.01866414 1000 1000 1000 -0.01630998 -0.01747158 -0.01866414 1000 1000 1000 -0.01611953 -0.01528562 -0.01455349 -0.01447705 -0.01463058 1000 -0.01611953 -0.01528562 -0.01455349 -0.01447705 -0.01463058 1000
lala 13 0.3 1 first 8 1 229 5 2.1 0.579997777938843 1 0 1 1 -0.01292701 -0.01261329 -0.01275206 1000 1000 1000 -0.01292701 -0.01261329 -0.01275206 1000 1000 1000 -0.01141845 -0.01164285 -0.0115289 -0.01174371 -0.01139625 1000 -0.01141845 -0.01164285 -0.0115289 -0.01174371 -0.01139625 1000
lala 17 0.01875 0 second 15 1 230 5 3.55625 0.539997816085815 0 1 -1 0 -0.01268907 -0.01299075 -0.01320663 -0.01205684 -0.01102683 1000 -0.01268907 -0.01299075 -0.01320663 -0.01205684 -0.01102683 1000 -0.009688178 -0.01045059 -0.01033264 -0.01001518 -0.009700151 1000 -0.009688178 -0.01045059 -0.01033264 -0.01001518 -0.009700151 1000
lala 19 0.075 1 second 12 1 231 4 3.795 0.719997644424438 0 0 1 1 -0.005708762 -0.006815332 -0.006798865 -0.006288316 -0.005174479 1000 -0.005708762 -0.006815332 -0.006798865 -0.006288316 -0.005174479 1000 -0.0054663 -0.005512771 -0.005615194 -0.005282536 -0.004708251 1000 -0.0054663 -0.005512771 -0.005615194 -0.005282536 -0.004708251 1000
lala 13 0.3 1 second 7 1 232 4 3.12 1.57999682426453 1 1 1 0 -0.001185482 2.462442E-05 -0.0003628136 -0.0006728251 -0.003057277 1000 -0.001185482 2.462442E-05 -0.0003628136 -0.0006728251 -0.003057277 1000 -1.58225E-05 0.001996622 0.003086221 0.00585853 0.005309511 1000 -1.58225E-05 0.001996622 0.003086221 0.00585853 0.005309511 1000
lala 11 0.3 1 first 9 1 233 5 1.95 2.33999633789063 1 1 1 1 -0.01508214 -0.006414418 0.001970612 1000 1000 1000 -0.01508214 -0.006414418 0.001970612 1000 1000 1000 0.03148381 0.03308385 0.0354607 0.04039606 0.03787393 1000 0.03148381 0.03308385 0.0354607 0.04039606 0.03787393 1000
lala 14 0.3 1 first 10 1 234 6 2.88 0.839997529983521 1 0 1 1 0.01971087 0.0169684 0.01809575 1000 1000 1000 0.01971087 0.0169684 0.01809575 1000 1000 1000 0.02235293 0.02279841 0.02344064 0.02368736 0.02439735 1000 0.02235293 0.02279841 0.02344064 0.02368736 0.02439735 1000
lala 14 0.075 1 second 2 1 235 5 3.975 0.779997587203979 -1 0 1 1 0.005068213 0.00827371 0.01047818 0.01237576 0.01459266 1000 0.005068213 0.00827371 0.01047818 0.01237576 0.01459266 1000 0.01772223 0.01727793 0.01604456 0.01505628 0.01514414 1000 0.01772223 0.01727793 0.01604456 0.01505628 0.01514414 1000
lala 12 0.15 1 first 14 1 236 5 3.75 0.819997549057007 0 0 1 1 0.01367584 0.01334176 0.01436523 1000 1000 1000 0.01367584 0.01334176 0.01436523 1000 1000 1000 0.01743777 0.0188083 0.01950881 0.01991066 0.02047748 1000 0.01743777 0.0188083 0.01950881 0.01991066 0.02047748 1000
lala 14 0.15 1 first 7 1 237 4 2.97 0.679997682571411 1 1 1 1 0.01701971 0.006783176 0.001977328 1000 1000 1000 0.01701971 0.006783176 0.001977328 1000 1000 1000 -0.0005310732 0.0005297912 0.002656998 0.003519839 0.00268268 1000 -0.0005310732 0.0005297912 0.002656998 0.003519839 0.00268268 1000
lala 12 0.3 0 first 9 1 238 5 1.65 1.33999705314636 1 1 -1 1 0.0001114646 -0.001175796 -0.002998074 1000 1000 1000 0.0001114646 -0.001175796 -0.002998074 1000 1000 1000 0.00373089 0.004164249 0.004814318 0.004875293 0.00428808 1000 0.00373089 0.004164249 0.004814318 0.004875293 0.00428808 1000
lala 20 0.075 1 second 12 1 239 4 3.72 0.639997720718384 0 0 1 1 -0.0006613522 -0.0007973327 -0.001533648 -0.001129373 -0.001242117 1000 -0.0006613522 -0.0007973327 -0.001533648 -0.001129373 -0.001242117 1000 -0.001800502 -0.001812073 -0.001570544 -0.002255053 -0.002461453 1000 -0.001800502 -0.001812073 -0.001570544 -0.002255053 -0.002461453 1000
lala 17 0.0375 0 second 6 1 240 4 1.5525 0.499997854232788 1 0 -1 1 0.001488534 0.003875147 0.004700673 0.003550012 0.003969657 1000 0.001488534 0.003875147 0.004700673 0.003550012 0.003969657 1000 0.003566958 0.004532252 0.005321581 0.005520929 0.006036376 1000 0.003566958 0.004532252 0.005321581 0.005520929 0.006036376 1000
lala 13 0.6 1 first 16 1 241 6 3.78 0.799997568130493 0 0 1 0 0.01042599 0.01000034 0.01117574 1000 1000 1000 0.01042599 0.01000034 0.01117574 1000 1000 1000 0.007020304 0.006775802 0.006583436 0.005899249 0.006358877 1000 0.007020304 0.006775802 0.006583436 0.005899249 0.006358877 1000
lala 15 0.15 1 first 10 1 242 6 2.73 0.539997816085815 1 0 1 1 0.003529748 0.003858664 0.004462832 1000 1000 1000 0.003529748 0.003858664 0.004462832 1000 1000 1000 0.006169826 0.006074236 0.006112439 0.007080164 0.007010783 1000 0.006169826 0.006074236 0.006112439 0.007080164 0.007010783 1000
lala 18 0.01875 0 first 15 1 243 5 3.575 0.719997644424438 0 1 -1 1 0.006231576 0.005300343 0.005472435 1000 1000 1000 0.006231576 0.005300343 0.005472435 1000 1000 1000 0.00427689 0.004045393 0.004360187 0.004356138 0.003530114 1000 0.00427689 0.004045393 0.004360187 0.004356138 0.003530114 1000
lala 15 0.0375 1 first 2 1 244 5 3.9375 1.8599967956543 -1 0 1 0 -0.0005414626 -0.001462796 -0.001296412 1000 1000 1000 -0.0005414626 -0.001462796 -0.001296412 1000 1000 1000 0.004610743 0.005383882 0.006081955 0.006093855 0.005856202 1000 0.004610743 0.005383882 0.006081955 0.006093855 0.005856202 1000
lala 18 0.01875 1 first 6 1 245 4 1.57125 3.19999551773071 1 0 1 0 0.004978199 0.00461241 0.004460542 1000 1000 1000 0.004978199 0.00461241 0.004460542 1000 1000 1000 0.005523402 0.00606301 0.006271513 0.00608312 0.006367286 1000 0.005523402 0.00606301 0.006271513 0.00608312 0.006367286 1000
lala 13 0.15 1 first 9 1 246 5 1.8 1.11999726295471 1 1 1 0 0.007479496 0.007453482 0.007244525 1000 1000 1000 0.007479496 0.007453482 0.007244525 1000 1000 1000 0.01732138 0.01643143 0.0143713 0.01003212 0.006969147 1000 0.01732138 0.01643143 0.0143713 0.01003212 0.006969147 1000
lala 19 0.009375 1 first 6 1 247 4 1.561875 2.23999643325806 1 0 1 0 -0.007308517 -0.008871566 -0.009823483 1000 1000 1000 -0.007308517 -0.008871566 -0.009823483 1000 1000 1000 0.01441405 0.01534376 0.01589584 0.01308778 0.01109098 1000 0.01441405 0.01534376 0.01589584 0.01308778 0.01109098 1000
lala 15 0.15 1 second 7 1 248 4 2.82 2.09999656677246 1 1 1 0 0.004334467 0.003471942 -4.972621E-05 -0.0001230757 0.001039579 1000 0.004334467 0.003471942 -4.972621E-05 -0.0001230757 0.001039579 1000 0.0002912133 0.003301038 0.003270347 6.422553E-05 -0.001166855 1000 0.0002912133 0.003301038 0.003270347 6.422553E-05 -0.001166855 1000
lala 13 0.075 1 second 14 1 249 5 3.675 0.779997587203979 0 0 1 0 -0.001215764 0.0007028453 0.004794753 0.007954179 0.008662871 1000 -0.001215764 0.0007028453 0.004794753 0.007954179 0.008662871 1000 0.007463609 0.007501618 0.007463162 0.006314025 0.005801258 1000 0.007463609 0.007501618 0.007463162 0.006314025 0.005801258 1000
lala 13 0.6 1 second 13 1 250 4 2.32 0.719997644424438 0 1 1 1 0.04455325 0.04077419 0.03820733 0.03986954 0.03017938 1000 0.04455325 0.04077419 0.03820733 0.03986954 0.03017938 1000 0.06801088 0.06869201 0.06932476 0.07021195 0.0703981 1000 0.06801088 0.06869201 0.06932476 0.07021195 0.0703981 1000
lala 16 0.15 0 first 10 1 251 6 2.58 0.779997587203979 1 0 -1 0 0.01787586 0.01531903 0.008041573 1000 1000 1000 0.01787586 0.01531903 0.008041573 1000 1000 1000 0.01872937 0.0192751 0.02092977 0.02205963 0.02236303 1000 0.01872937 0.0192751 0.02092977 0.02205963 0.02236303 1000
lala 12 1.2 1 second 3 1 252 5 4.05 0.659997701644897 -1 1 1 0 0.02043707 0.02077448 0.02182056 0.02099655 0.02064432 1000 0.02043707 0.02077448 0.02182056 0.02099655 0.02064432 1000 0.01766578 0.01818774 0.01767779 0.01827371 0.01841288 1000 0.01766578 0.01818774 0.01767779 0.01827371 0.01841288 1000
lala 13 1.2 1 first 17 1 253 6 6.180001 0.459997892379761 0 1 1 0 0.01636829 0.01646164 0.01626499 1000 1000 1000 0.01636829 0.01646164 0.01626499 1000 1000 1000 0.01627679 0.01554569 0.01560897 0.01521834 0.01533518 1000 0.01627679 0.01554569 0.01560897 0.01521834 0.01533518 1000
lala 19 0.01875 1 first 15 1 254 5 3.59375 1.11999726295471 0 1 1 0 0.01609441 0.01572014 0.01509615 1000 1000 1000 0.01609441 0.01572014 0.01509615 1000 1000 1000 0.01360652 0.01300775 0.01367968 0.01415996 0.01449715 1000 0.01360652 0.01300775 0.01367968 0.01415996 0.01449715 1000
lala 20 0.009375 1 first 6 1 255 4 1.5525 0.739997625350952 1 0 1 1 0.01718417 0.01650337 0.01528065 1000 1000 1000 0.01718417 0.01650337 0.01528065 1000 1000 1000 0.01135749 0.01172534 0.01165796 0.01157021 0.01117851 1000 0.01135749 0.01172534 0.01165796 0.01157021 0.01117851 1000
lala 14 0.15 1 second 1 1 256 4 4.12 0.61999773979187 -1 1 1 0 0.0123123 0.01254963 0.01260101 0.01254047 0.01260495 1000 0.0123123 0.01254963 0.01260101 0.01254047 0.01260495 1000 0.01267536 0.01259693 0.01256068 0.01263461 0.01270705 1000 0.01267536 0.01259693 0.01256068 0.01263461 0.01270705 1000
lala 14 1.2 0 second 13 1 257 4 1.32 0.859997510910034 0 1 -1 1 0.01453176 0.01427866 0.01369319 0.0135541 0.0133955 1000 0.01453176 0.01427866 0.01369319 0.0135541 0.0133955 1000 0.01355798 0.01360179 0.01338188 0.01359813 0.013504 1000 0.01355798 0.01360179 0.01338188 0.01359813 0.013504 1000
lala 16 0.15 0 first 7 1 258 4 2.67 1.25999712944031 1 1 -1 0 0.0238244 0.03059846 0.03385388 1000 1000 1000 0.0238244 0.03059846 0.03385388 1000 1000 1000 0.02149166 0.03174875 0.0428186 0.05315036 0.05420106 1000 0.02149166 0.03174875 0.0428186 0.05315036 0.05420106 1000
lala 21 0.075 1 second 12 1 259 4 3.645 0.379997968673706 0 0 1 1 0.00286577 -0.009659153 -0.0161886 -0.01182589 0.003489092 1000 0.00286577 -0.009659153 -0.0161886 -0.01182589 0.003489092 1000 0.01312939 0.01380842 0.01436419 0.01482096 0.01502392 1000 0.01312939 0.01380842 0.01436419 0.01482096 0.01502392 1000
lala 6 1.2 0 first 5 1 260 6 4.380001 1.31999707221985 -1 1 -1 1 0.01843439 0.01815571 0.01782193 1000 1000 1000 0.01843439 0.01815571 0.01782193 1000 1000 1000 0.02028483 0.02050567 0.01923808 0.01839568 0.01733552 1000 0.02028483 0.02050567 0.01923808 0.01839568 0.01733552 1000
lala 17 0.075 0 second 10 1 261 6 2.655 2.49999618530273 1 0 -1 1 0.01293669 0.01356885 0.01314585 0.01343316 0.01323899 1000 0.01293669 0.01356885 0.01314585 0.01343316 0.01323899 1000 0.01282053 0.01302801 0.01393167 0.01345403 0.01264163 1000 0.01282053 0.01302801 0.01393167 0.01345403 0.01264163 1000
lala 13 0.6 1 first 3 1 262 5 3.45 0.559997797012329 -1 1 1 0 0.01081289 0.009999176 0.009383745 1000 1000 1000 0.01081289 0.009999176 0.009383745 1000 1000 1000 0.007302344 0.006860484 0.007230029 0.007311602 0.007186549 1000 0.007302344 0.006860484 0.007230029 0.007311602 0.007186549 1000
lala 14 0.075 1 second 14 1 263 5 3.6 1.75999689102173 0 0 1 1 0.00620336 0.006302587 0.005930727 0.005882856 0.005890183 1000 0.00620336 0.006302587 0.005930727 0.005882856 0.005890183 1000 0.006861248 0.006585835 0.00639362 0.00637564 0.007094397 1000 0.006861248 0.006585835 0.00639362 0.00637564 0.007094397 1000
lala 14 0.6 0 first 3 1 264 5 2.85 0.899997472763062 -1 1 -1 1 0.003352233 0.003567582 0.003645009 1000 1000 1000 0.003352233 0.003567582 0.003645009 1000 1000 1000 0.00148936 0.00144902 0.00163549 0.002135935 0.002528141 1000 0.00148936 0.00144902 0.00163549 0.002135935 0.002528141 1000
lala 14 0.6 1 first 17 1 265 6 5.580001 0.659997701644897 0 1 1 1 0.0007689859 0.000226997 -0.0004882143 1000 1000 1000 0.0007689859 0.000226997 -0.0004882143 1000 1000 1000 0.001528242 0.001157373 0.001185997 0.001007786 0.001053219 1000 0.001528242 0.001157373 0.001185997 0.001007786 0.001053219 1000
lala 14 1.2 1 second 16 1 266 6 2.58 1.99999666213989 0 0 1 0 0.003059483 0.003374571 0.004301978 0.004523293 0.004574399 1000 0.003059483 0.003374571 0.004301978 0.004523293 0.004574399 1000 0.002976816 0.003004125 0.002584666 0.002333364 0.002346935 1000 0.002976816 0.003004125 0.002584666 0.002333364 0.002346935 1000
lala 17 0.075 1 second 7 1 267 4 2.745 0.599997758865356 1 1 1 0 0.001627695 0.001342936 0.001227671 0.0007894377 0.0001636343 1000 0.001627695 0.001342936 0.001227671 0.0007894377 0.0001636343 1000 0.0002924054 2.15632E-06 0.0002226806 0.0001106966 7.986479E-05 1000 0.0002924054 2.15632E-06 0.0002226806 0.0001106966 7.986479E-05 1000
lala 15 0.075 0 second 14 1 268 5 3.525 0.01999831199646 0 0 -1 1 -0.0005435295 -0.0003862538 -0.0006644585 -0.0009666685 -0.0009952728 1000 -0.0005435295 -0.0003862538 -0.0006644585 -0.0009666685 -0.0009952728 1000 -0.001213281 -0.00121133 -0.0009451539 -0.0008803787 -0.001017314 1000 -0.001213281 -0.00121133 -0.0009451539 -0.0008803787 -0.001017314 1000
lala 15 0.6 1 second 17 1 269 6 4.980001 0.899997472763062 0 1 1 1 -0.0001137177 -0.0002788787 -0.0003866745 -0.0003888649 -0.0004330169 1000 -0.0001137177 -0.0002788787 -0.0003866745 -0.0003888649 -0.0004330169 1000 -0.001508276 -0.001368729 -0.001754229 -0.001845393 -0.001842915 1000 -0.001508276 -0.001368729 -0.001754229 -0.001845393 -0.001842915 1000
lala 19 0.0375 1 second 4 1 270 6 3.81 0.639997720718384 -1 0 1 0 -0.001965515 -0.001922078 -0.001956217 -0.002170757 -0.002208224 1000 -0.001965515 -0.001922078 -0.001956217 -0.002170757 -0.002208224 1000 -0.002544621 -0.002780605 -0.002767771 -0.00301551 -0.003074777 1000 -0.002544621 -0.002780605 -0.002767771 -0.00301551 -0.003074777 1000
lala 15 0.6 0 second 13 1 271 4 1.92 1.25999712944031 0 1 -1 0 -0.00281736 -0.002689053 -0.00279199 -0.002812019 -0.002018054 1000 -0.00281736 -0.002689053 -0.00279199 -0.002812019 -0.002018054 1000 -0.001925974 -0.001738999 -0.001291653 -0.001057111 -0.001107575 1000 -0.001925974 -0.001738999 -0.001291653 -0.001057111 -0.001107575 1000
lala 20 0.01875 0 second 4 1 272 6 3.79125 2.77999591827393 -1 0 -1 1 -0.0006054512 -0.0002500037 -0.0005138862 -0.0005222735 -0.0003029762 1000 -0.0006054512 -0.0002500037 -0.0005138862 -0.0005222735 -0.0003029762 1000 9.041204E-05 -0.0002855022 6.709777E-05 0.0002969241 0.0006489377 1000 9.041204E-05 -0.0002855022 6.709777E-05 0.0002969241 0.0006489377 1000
lala 20 0.009375 1 second 15 1 273 5 3.584375 0.519997835159302 0 1 1 0 -0.002414442 -0.002630444 -0.002592229 -0.002426166 -0.002555365 1000 -0.002414442 -0.002630444 -0.002592229 -0.002426166 -0.002555365 1000 -0.005320993 -0.004958326 -0.004782119 -0.00447648 -0.003948054 1000 -0.005320993 -0.004958326 -0.004782119 -0.00447648 -0.003948054 1000
lala 18 0.0375 1 first 7 1 274 4 2.7075 0.61999773979187 1 1 1 0 -0.002709446 -0.002525382 -0.002474016 1000 1000 1000 -0.002709446 -0.002525382 -0.002474016 1000 1000 1000 0.0002104704 0.0005713833 0.0006166963 0.0005476943 0.0006651824 1000 0.0002104704 0.0005713833 0.0006166963 0.0005476943 0.0006651824 1000
lala 14 0.3 0 first 8 1 275 5 1.8 0.779997587203979 1 0 -1 1 0.0002737739 0.0003559667 0.0002043763 1000 1000 1000 0.0002737739 0.0003559667 0.0002043763 1000 1000 1000 0.0005614139 0.0004638313 0.0005588435 0.0006692984 0.0007784356 1000 0.0005614139 0.0004638313 0.0005588435 0.0006692984 0.0007784356 1000
lala 21 0.009375 1 first 6 1 276 4 1.543125 1.73999691009521 1 0 1 1 0.001437332 0.001681901 0.001410923 1000 1000 1000 0.001437332 0.001681901 0.001410923 1000 1000 1000 0.003609535 0.003988582 0.004539235 0.004635373 0.004449493 1000 0.003609535 0.003988582 0.004539235 0.004635373 0.004449493 1000
lala 14 0.075 0 second 9 1 277 5 1.725 0.659997701644897 1 1 -1 0 0.002566207 0.002749176 0.003027309 0.003294506 0.003242191 1000 0.002566207 0.002749176 0.003027309 0.003294506 0.003242191 1000 0.003554429 0.00361297 0.00341569 0.003503055 0.003044367 1000 0.003554429 0.00361297 0.00341569 0.003503055 0.003044367 1000
lala 7 1.2 0 second 5 1 278 6 5.580001 3.39999532699585 -1 1 -1 0 0.001841608 0.00325382 0.004045958 0.004113014 0.004959253 1000 0.001841608 0.00325382 0.004045958 0.004113014 0.004959253 1000 0.00635871 0.00658185 0.007046222 0.006922989 0.007558195 1000 0.00635871 0.00658185 0.007046222 0.006922989 0.007558195 1000
lala 15 0.0375 1 first 9 1 279 5 1.7625 1.55999684333801 1 1 1 0 0.006539121 0.006819617 0.00674161 1000 1000 1000 0.006539121 0.006819617 0.00674161 1000 1000 1000 0.007454066 0.007851019 0.008372412 0.009004664 0.009442862 1000 0.007454066 0.007851019 0.008372412 0.009004664 0.009442862 1000
lala 16 0.6 1 second 13 1 280 4 2.52 0.639997720718384 0 1 1 1 0.01039018 0.01070624 0.01065238 0.01048222 0.01094246 1000 0.01039018 0.01070624 0.01065238 0.01048222 0.01094246 1000 0.01045876 0.01023769 0.0104664 0.01050353 0.01013172 1000 0.01045876 0.01023769 0.0104664 0.01050353 0.01013172 1000
lala 22 0.01875 1 second 6 1 281 4 1.524375 0.859997510910034 1 0 1 1 0.01158014 0.01112725 0.01062235 0.01076949 0.0107082 1000 0.01158014 0.01112725 0.01062235 0.01076949 0.0107082 1000 0.01004122 0.00997257 0.009703554 0.009715149 0.009635879 1000 0.01004122 0.00997257 0.009703554 0.009715149 0.009635879 1000
lala 16 0.0375 0 second 2 1 282 5 3.9 0.559997797012329 -1 0 -1 1 0.01154416 0.01137849 0.01110051 0.01031692 0.009767757 1000 0.01154416 0.01137849 0.01110051 0.01031692 0.009767757 1000 0.009261782 0.008769918 0.009099149 0.008717667 0.009061008 1000 0.009261782 0.008769918 0.009099149 0.008717667 0.009061008 1000
lala 8 1.2 1 second 5 1 283 6 6.780001 0.859997510910034 -1 1 1 1 0.0099859 0.009938215 0.009731308 0.0095703 0.01000851 1000 0.0099859 0.009938215 0.009731308 0.0095703 0.01000851 1000 0.00993007 0.01002888 0.01002705 0.01012293 0.01001887 1000 0.00993007 0.01002888 0.01002705 0.01012293 0.01001887 1000
lala 15 0.15 0 second 8 1 284 5 1.95 1.0999972820282 1 0 -1 1 0.01062055 0.01025794 0.0103149 0.01000676 0.009937404 1000 0.01062055 0.01025794 0.0103149 0.01000676 0.009937404 1000 0.01049286 0.01055298 0.01046286 0.0108959 0.01095988 1000 0.01049286 0.01055298 0.01046286 0.0108959 0.01095988 1000
lala 14 0.6 0 first 0 1 285 4 1.74 2.19999647140503 -1 0 -1 1 0.01098865 0.01081433 0.01071443 1000 1000 1000 0.01098865 0.01081433 0.01071443 1000 1000 1000 0.009629047 0.009917581 0.01007722 0.01045489 0.01042012 1000 0.009629047 0.009917581 0.01007722 0.01045489 0.01042012 1000
lala 12 0.15 1 first 11 1 286 6 3.630001 0.699997663497925 1 1 1 1 0.01061794 0.01131285 0.0111417 1000 1000 1000 0.01061794 0.01131285 0.0111417 1000 1000 1000 0.01489577 0.01544941 0.01517379 0.01473613 0.01420426 1000 0.01489577 0.01544941 0.01517379 0.01473613 0.01420426 1000
lala 18 0.075 1 second 10 1 287 6 2.73 1.89999675750732 1 0 1 1 0.01189099 0.01157116 0.01141608 0.01144711 0.01119924 1000 0.01189099 0.01157116 0.01141608 0.01144711 0.01119924 1000 0.01264952 0.01230554 0.01220458 0.01220371 0.01215687 1000 0.01264952 0.01230554 0.01220458 0.01220371 0.01215687 1000
lala 19 0.0375 1 first 10 1 288 6 2.6925 0.819997549057007 1 0 1 0 0.01158642 0.01155561 0.01147155 1000 1000 1000 0.01158642 0.01155561 0.01147155 1000 1000 1000 0.01087602 0.01104494 0.0109775 0.01074555 0.01118354 1000 0.01087602 0.01104494 0.0109775 0.01074555 0.01118354 1000
lala 16 0.15 1 second 8 1 289 5 2.1 2.09999656677246 1 0 1 1 0.01119567 0.01119857 0.01105532 0.01075091 0.01120663 1000 0.01119567 0.01119857 0.01105532 0.01075091 0.01120663 1000 0.01124538 0.0113176 0.0113337 0.01155314 0.01137272 1000 0.01124538 0.0113176 0.0113337 0.01155314 0.01137272 1000
lala 16 0.0375 0 first 14 1 290 5 3.5625 2.23999643325806 0 0 -1 1 0.01113036 0.01130929 0.01122941 1000 1000 1000 0.01113036 0.01130929 0.01122941 1000 1000 1000 0.01154006 0.01133694 0.01116226 0.01137528 0.01108457 1000 0.01154006 0.01133694 0.01116226 0.01137528 0.01108457 1000
lala 13 0.075 1 second 11 1 291 6 3.555001 0.819997549057007 1 1 1 1 0.010924 0.01087016 0.01118448 0.01112549 0.0111584 1000 0.010924 0.01087016 0.01118448 0.01112549 0.0111584 1000 0.01140718 0.01142709 0.0112907 0.01119735 0.01136182 1000 0.01140718 0.01142709 0.0112907 0.01119735 0.01136182 1000
lala 15 2.4 1 second 16 1 292 6 1.98 0.939997434616089 0 0 1 1 0.01166325 0.01171984 0.01174248 0.01155278 0.01175662 1000 0.01166325 0.01171984 0.01174248 0.01155278 0.01175662 1000 0.01112063 0.01116821 0.01112623 0.01132755 0.0114497 1000 0.01112063 0.01116821 0.01112623 0.01132755 0.0114497 1000
lala 15 0.3 1 second 0 1 293 4 2.04 1.33999705314636 -1 0 1 1 0.009693024 0.009531067 0.009562294 0.009298404 0.009412421 1000 0.009693024 0.009531067 0.009562294 0.009298404 0.009412421 1000 0.009832417 0.009902603 0.009781933 0.009769338 0.009777566 1000 0.009832417 0.009902603 0.009781933 0.009769338 0.009777566 1000
lala 17 0.0375 1 second 14 1 294 5 3.6 1.41999697685242 0 0 1 0 0.009332347 0.009340147 0.009256842 0.009413344 0.009290515 1000 0.009332347 0.009340147 0.009256842 0.009413344 0.009290515 1000 0.009353868 0.009967819 0.009896028 0.009547298 0.009220726 1000 0.009353868 0.009967819 0.009896028 0.009547298 0.009220726 1000
lala 16 0.01875 0 second 9 1 295 5 1.74375 2.03999662399292 1 1 -1 0 0.008292256 0.008592099 0.008453826 0.008753619 0.009359119 1000 0.008292256 0.008592099 0.008453826 0.008753619 0.009359119 1000 0.009008405 0.008710003 0.009042981 0.008800118 0.008745971 1000 0.009008405 0.008710003 0.009042981 0.008800118 0.008745971 1000
lala 16 4.8 0 first 16 1 296 6 1.98 0.679997682571411 0 0 -1 0 0.008992059 0.008721047 0.008626681 1000 1000 1000 0.008992059 0.008721047 0.008626681 1000 1000 1000 0.008021018 0.008002285 0.00803926 0.007824958 0.007903125 1000 0.008021018 0.008002285 0.00803926 0.007824958 0.007903125 1000
lala 23 0.0375 1 second 6 1 297 4 1.486875 0.799997568130493 1 0 1 0 0.008204463 0.008566623 0.009260725 0.009812297 0.01048087 1000 0.008204463 0.008566623 0.009260725 0.009812297 0.01048087 1000 0.02489635 0.02534646 0.02671734 0.0278485 0.02811303 1000 0.02489635 0.02534646 0.02671734 0.0278485 0.02811303 1000
lala 17 0.3 1 second 13 1 298 4 2.22 0.39999794960022 0 1 1 0 0.01688512 0.01618943 0.01569828 0.01530227 0.01580902 1000 0.01688512 0.01618943 0.01569828 0.01530227 0.01580902 1000 0.01513612 0.01468464 0.01486565 0.01571558 0.01595993 1000 0.01513612 0.01468464 0.01486565 0.01571558 0.01595993 1000
lala 18 0.3 1 second 13 1 299 4 1.92 0.719997644424438 0 1 1 1 0.01335763 0.01369273 0.01368562 0.01365054 0.01333658 1000 0.01335763 0.01369273 0.01368562 0.01365054 0.01333658 1000 0.01490738 0.01415763 0.01330072 0.01193764 0.0107204 1000 0.01490738 0.01415763 0.01330072 0.01193764 0.0107204 1000
lala 18 0.01875 1 first 14 1 300 5 3.58125 0.539997816085815 0 0 1 1 0.0128969 0.01290545 0.01260228 0.01259588 0.01263718 0.01272774 0.0128969 0.01290545 0.01260228 0.01259588 0.01263718 0.01272774 0.01206762 0.01195543 0.01196344 0.01209059 0.01196322 1000 0.01206762 0.01195543 0.01196344 0.01209059 0.01196322 1000
lala 16 0.15 1 second 0 1 301 4 1.89 0.599997758865356 -1 0 1 1 0.01197949 0.01187139 0.01206445 0.01206006 0.01188527 1000 0.01197949 0.01187139 0.01206445 0.01206006 0.01188527 1000 0.01379132 0.01353224 0.01247006 0.01235455 0.01220815 1000 0.01379132 0.01353224 0.01247006 0.01235455 0.01220815 1000
lala 15 0.15 1 first 1 1 302 4 3.97 1.5399968624115 -1 1 1 1 0.01099634 0.01079324 0.01062067 1000 1000 1000 0.01099634 0.01079324 0.01062067 1000 1000 1000 0.0115584 0.0116751 0.01144416 0.01147371 0.01137466 1000 0.0115584 0.0116751 0.01144416 0.01147371 0.01137466 1000
lala 15 0.3 1 second 3 1 303 5 3.15 0.599997758865356 -1 1 1 0 0.01238747 0.01238132 0.01243341 0.01276122 0.01358567 1000 0.01238747 0.01238132 0.01243341 0.01276122 0.01358567 1000 0.01291318 0.01292471 0.01293754 0.01294069 0.01301661 1000 0.01291318 0.01292471 0.01293754 0.01294069 0.01301661 1000
lala 16 0.3 0 second 1 1 304 4 3.67 0.799997568130493 -1 1 -1 1 0.01279929 0.01261683 0.01282803 0.01303105 0.01323851 1000 0.01279929 0.01261683 0.01282803 0.01303105 0.01323851 1000 0.01257653 0.01266955 0.01238078 0.01243397 0.01211163 1000 0.01257653 0.01266955 0.01238078 0.01243397 0.01211163 1000
lala 17 0.075 0 first 8 1 305 5 2.025 1.69999694824219 1 0 -1 1 0.01271556 0.01285719 0.01290355 1000 1000 1000 0.01271556 0.01285719 0.01290355 1000 1000 1000 0.01297376 0.0129874 0.012999 0.01345756 0.01341459 1000 0.01297376 0.0129874 0.012999 0.01345756 0.01341459 1000
lala 21 0.009375 1 second 15 1 306 5 3.575 0.99999737739563 0 1 1 1 0.01473331 0.01479906 0.01407604 0.01429218 0.01393888 1000 0.01473331 0.01479906 0.01407604 0.01429218 0.01393888 1000 0.01385269 0.01401308 0.01458757 0.01469241 0.01494442 1000 0.01385269 0.01401308 0.01458757 0.01469241 0.01494442 1000
lala 20 0.0375 0 first 10 1 307 6 2.655 0.659997701644897 1 0 -1 1 0.01581758 0.01560545 0.01548676 1000 1000 1000 0.01581758 0.01560545 0.01548676 1000 1000 1000 0.01459272 0.01462138 0.01448101 0.01417636 0.01389764 1000 0.01459272 0.01462138 0.01448101 0.01417636 0.01389764 1000
lala 17 0.009375 1 second 9 1 308 5 1.753125 0.559997797012329 1 1 1 1 0.01448938 0.01441787 0.01472034 0.0147673 0.01501169 1000 0.01448938 0.01441787 0.01472034 0.0147673 0.01501169 1000 0.01533423 0.01548671 0.01519514 0.01536905 0.01517021 1000 0.01533423 0.01548671 0.01519514 0.01536905 0.01517021 1000
lala 24 0.075 0 second 6 1 309 4 1.411875 0.939997434616089 1 0 -1 1 0.01521205 0.01509685 0.01513321 0.01516197 0.01516348 1000 0.01521205 0.01509685 0.01513321 0.01516197 0.01516348 1000 0.01508759 0.01460494 0.01471176 0.01474975 0.01491953 1000 0.01508759 0.01460494 0.01471176 0.01474975 0.01491953 1000
lala 19 0.01875 1 first 14 1 310 5 3.5625 0.519997835159302 0 0 1 0 0.01461027 0.01467508 0.01464247 1000 1000 1000 0.01461027 0.01467508 0.01464247 1000 1000 1000 0.01541403 0.01551667 0.01547302 0.01570137 0.01553837 1000 0.01541403 0.01551667 0.01547302 0.01570137 0.01553837 1000
lala 16 0.6 0 first 17 1 311 6 4.380002 0.879997491836548 0 1 -1 1 0.01597089 0.01585981 0.01583322 1000 1000 1000 0.01597089 0.01585981 0.01583322 1000 1000 1000 0.01538965 0.01586351 0.01612053 0.01616645 0.01667831 1000 0.01538965 0.01586351 0.01612053 0.01616645 0.01667831 1000
lala 19 0.0375 1 first 7 1 312 4 2.67 0.439997911453247 1 1 1 0 0.01726999 0.01706767 0.01661225 1000 1000 1000 0.01726999 0.01706767 0.01661225 1000 1000 1000 0.01608027 0.01705016 0.01767742 0.01858907 0.01872315 1000 0.01608027 0.01705016 0.01767742 0.01858907 0.01872315 1000
lala 25 0.0375 1 second 6 1 313 4 1.449375 6.06000375747681 1 0 1 0 0.01751375 0.01737846 0.01729087 0.01731516 0.01698858 1000 0.01751375 0.01737846 0.01729087 0.01731516 0.01698858 1000 0.01787977 0.0179738 0.01804764 0.01819582 0.01812885 1000 0.01787977 0.0179738 0.01804764 0.01819582 0.01812885 1000
lala 17 0.01875 0 second 2 1 314 5 3.91875 0.979997396469116 -1 0 -1 0 0.01440521 0.01508046 0.01654413 0.01795 0.02015677 1000 0.01440521 0.01508046 0.01654413 0.01795 0.02015677 1000 0.02151541 0.02192063 0.02144184 0.02083426 0.02015865 1000 0.02151541 0.02192063 0.02144184 0.02083426 0.02015865 1000
lala 22 0.009375 1 first 15 1 315 5 3.565624 2.63999605178833 0 1 1 1 0.01954379 0.020117 0.02057851 1000 1000 1000 0.01954379 0.020117 0.02057851 1000 1000 1000 0.01991959 0.01924482 0.01942297 0.01985965 0.02011837 1000 0.01991959 0.01924482 0.01942297 0.01985965 0.02011837 1000
lala 18 0.0375 0 first 8 1 316 5 2.0625 0.659997701644897 1 0 -1 0 0.02020145 0.01770749 0.01548075 1000 1000 1000 0.02020145 0.01770749 0.01548075 1000 1000 1000 0.01438493 0.01416274 0.01402306 0.013809 0.01377211 1000 0.01438493 0.01416274 0.01402306 0.013809 0.01377211 1000
lala 16 0.15 0 second 3 1 317 5 3 0.819997549057007 -1 1 -1 1 0.0133563 0.01309698 0.0130481 0.01306788 0.01279394 1000 0.0133563 0.01309698 0.0130481 0.01306788 0.01279394 1000 0.01241256 0.01328703 0.01330503 0.01360232 0.01352084 1000 0.01241256 0.01328703 0.01330503 0.01360232 0.01352084 1000
lala 23 0.01875 1 second 15 1 318 5 3.546875 0.699997663497925 0 1 1 0 0.01186792 0.01166502 0.01185142 0.01151078 0.01188097 1000 0.01186792 0.01166502 0.01185142 0.01151078 0.01188097 1000 0.01220018 0.01229836 0.01291522 0.01352479 0.01324598 1000 0.01220018 0.01229836 0.01291522 0.01352479 0.01324598 1000
lala 21 0.009375 1 first 4 1 319 6 3.800625 0.799997568130493 -1 0 1 0 0.01596802 0.01592318 0.01604555 1000 1000 1000 0.01596802 0.01592318 0.01604555 1000 1000 1000 0.0154073 0.0150159 0.0153916 0.01551878 0.01613343 1000 0.0154073 0.0150159 0.0153916 0.01551878 0.01613343 1000
lala 21 0.01875 0 first 10 1 320 6 2.67375 0.419997930526733 1 0 -1 0 0.01645801 0.01648363 0.0162721 1000 1000 1000 0.01645801 0.01648363 0.0162721 1000 1000 1000 0.01556033 0.01552326 0.01550401 0.01586019 0.01620737 1000 0.01556033 0.01552326 0.01550401 0.01586019 0.01620737 1000
lala 17 0.3 1 second 17 1 321 6 4.680002 0.61999773979187 0 1 1 1 0.0165048 0.01666382 0.01629745 0.01653669 0.01663541 1000 0.0165048 0.01666382 0.01629745 0.01653669 0.01663541 1000 0.01548713 0.01575181 0.01605658 0.01624798 0.01664343 1000 0.01548713 0.01575181 0.01605658 0.01624798 0.01664343 1000
lala 22 0.01875 1 second 10 1 322 6 2.6925 0.01999831199646 1 0 1 1 0.01700249 0.01699499 0.01710469 0.01717708 0.01686058 1000 0.01700249 0.01699499 0.01710469 0.01717708 0.01686058 1000 0.01701268 0.01684397 0.01669394 0.01637755 0.01650556 1000 0.01701268 0.01684397 0.01669394 0.01637755 0.01650556 1000
lala 19 0.3 1 second 13 1 323 4 1.62 2.51999616622925 0 1 1 0 0.01691605 0.01691067 0.01711364 0.01722559 0.01703345 1000 0.01691605 0.01691067 0.01711364 0.01722559 0.01703345 1000 0.01717372 0.01678102 0.01635399 0.01624299 0.01562508 1000 0.01717372 0.01678102 0.01635399 0.01624299 0.01562508 1000
lala 20 0.01875 1 second 14 1 324 5 3.54375 2.91999578475952 0 0 1 0 0.01750411 0.01725122 0.01716387 0.01711693 0.01713131 1000 0.01750411 0.01725122 0.01716387 0.01711693 0.01713131 1000 0.01770438 0.01761532 0.01809986 0.01833614 0.01818884 1000 0.01770438 0.01761532 0.01809986 0.01833614 0.01818884 1000
lala 20 0.6 0 first 13 1 325 4 1.32 1.15999722480774 0 1 -1 0 0.01881183 0.01863313 0.01863773 1000 1000 1000 0.01881183 0.01863313 0.01863773 1000 1000 1000 0.01925037 0.01946822 0.01940907 0.01941052 0.01954539 1000 0.01925037 0.01946822 0.01940907 0.01941052 0.01954539 1000
lala 18 0.01875 1 second 2 1 326 5 3.9375 0.639997720718384 -1 0 1 1 0.01928851 0.01912657 0.01902525 0.01943391 0.0192071 1000 0.01928851 0.01912657 0.01902525 0.01943391 0.0192071 1000 0.01649589 0.01645704 0.01584916 0.01526421 0.0153884 1000 0.01649589 0.01645704 0.01584916 0.01526421 0.0153884 1000
lala 21 0.0375 1 second 14 1 327 5 3.50625 1.59999680519104 0 0 1 0 0.01672876 0.01665358 0.0165577 0.01636206 0.01625198 1000 0.01672876 0.01665358 0.0165577 0.01636206 0.01625198 1000 0.01664336 0.01703479 0.01969785 0.02013075 0.02066033 1000 0.01664336 0.01703479 0.01969785 0.02013075 0.02066033 1000
