subject PestNr Step_Size_OnTrial Pest_Faster Pest_Interval Condition block trial velH velH_Pest Reaction_Time velH_Subject Start_Above Response_MotionEstimation RightOrLeftxRotations_first0 xRotations_first1 xRotations_first2 xRotations_first3 xRotations_first4 xRotations_first5 yRotations_first0 yRotations_first1 yRotations_first2 yRotations_first3 yRotations_first4 yRotations_first5 xRotations_second0 xRotations_second1 xRotations_second2 xRotations_second3 xRotations_second4 xRotations_second5 yRotations_second0 yRotations_second1 yRotations_second2 yRotations_second3 yRotations_second4 yRotations_second5
lala 1 1.2 0 second 0 1 1 4 2.64 1.77999687194824 -1 0 -1 1 -0.01340211 -0.01218374 -0.01148077 -0.01265624 -0.01299746 1000 -0.01340211 -0.01218374 -0.01148077 -0.01265624 -0.01299746 1000 -0.02120984 -0.02107251 -0.0206869 -0.02073034 -0.02073418 1000 -0.02120984 -0.02107251 -0.0206869 -0.02073034 -0.02073418 1000
lala 1 1.2 1 first 17 1 2 6 7.98 0.459997892379761 0 1 1 0 -0.02212319 -0.02225343 -0.02220771 1000 1000 1000 -0.02212319 -0.02225343 -0.02220771 1000 1000 1000 -0.02074064 -0.02040849 -0.01978544 -0.0194559 -0.01948559 1000 -0.02074064 -0.02040849 -0.01978544 -0.0194559 -0.01948559 1000
lala 1 1.2 1 first 1 1 3 4 5.32 0.959997415542603 -1 1 1 1 -0.01871271 -0.01834596 -0.01836756 1000 1000 1000 -0.01871271 -0.01834596 -0.01836756 1000 1000 1000 -0.0190795 -0.01921813 -0.01891941 -0.01904263 -0.01907488 1000 -0.0190795 -0.01921813 -0.01891941 -0.01904263 -0.01907488 1000
lala 1 1.2 0 second 2 1 4 5 3.3 0.99999737739563 -1 0 -1 1 -0.01743455 -0.01726825 -0.01797911 -0.01742512 -0.01717235 1000 -0.01743455 -0.01726825 -0.01797911 -0.01742512 -0.01717235 1000 -0.01875635 -0.01833394 -0.01787038 -0.0182094 -0.01821338 1000 -0.01875635 -0.01833394 -0.01787038 -0.0182094 -0.01821338 1000
lala 1 1.2 1 first 9 1 5 5 6.65 0.119998216629028 1 1 1 0 -0.01855333 -0.01826439 -0.01820028 1000 1000 1000 -0.01855333 -0.01826439 -0.01820028 1000 1000 1000 -0.01568555 -0.01592073 -0.01707046 -0.01664427 -0.01583222 1000 -0.01568555 -0.01592073 -0.01707046 -0.01664427 -0.01583222 1000
lala 1 1.2 0 first 16 1 6 6 3.96 0.319998025894165 0 0 -1 0 -0.01560612 -0.01520515 -0.01490332 1000 1000 1000 -0.01560612 -0.01520515 -0.01490332 1000 1000 1000 -0.01551206 -0.0158057 -0.01496781 -0.01505705 -0.01556483 1000 -0.01551206 -0.0158057 -0.01496781 -0.01505705 -0.01556483 1000
lala 1 1.2 1 first 7 1 7 4 5.32 2.159996509552 1 1 1 1 -0.01522062 -0.015273 -0.01522449 1000 1000 1000 -0.01522062 -0.015273 -0.01522449 1000 1000 1000 -0.01496012 -0.01558136 -0.01529497 -0.01536458 -0.01545804 1000 -0.01496012 -0.01558136 -0.01529497 -0.01536458 -0.01545804 1000
lala 1 1.2 0 second 14 1 8 5 3.3 0.359997987747192 0 0 -1 1 -0.01240449 -0.01260082 -0.01309265 -0.01328278 -0.01224738 1000 -0.01240449 -0.01260082 -0.01309265 -0.01328278 -0.01224738 1000 -0.01283649 -0.01287656 -0.01252012 -0.01270534 -0.01252622 1000 -0.01283649 -0.01287656 -0.01252012 -0.01270534 -0.01252622 1000
lala 2 1.2 1 second 14 1 9 5 4.5 0.359997987747192 0 0 1 0 -0.01204701 -0.01211862 -0.01212521 -0.01230658 -0.01157405 1000 -0.01204701 -0.01211862 -0.01212521 -0.01230658 -0.01157405 1000 -0.01202434 -0.01173342 -0.01185017 -0.01197525 -0.01223678 1000 -0.01202434 -0.01173342 -0.01185017 -0.01197525 -0.01223678 1000
lala 1 1.2 0 second 8 1 10 5 3.3 0.459997892379761 1 0 -1 0 -0.01137852 -0.01165152 -0.01239276 -0.01240995 -0.01175174 1000 -0.01137852 -0.01165152 -0.01239276 -0.01240995 -0.01175174 1000 -0.01129959 -0.01071491 -0.01102999 -0.01145778 -0.01142632 1000 -0.01129959 -0.01071491 -0.01102999 -0.01145778 -0.01142632 1000
lala 2 1.2 1 first 8 1 11 5 4.5 0.739997625350952 1 0 1 1 -0.01252857 -0.01262141 -0.0117758 1000 1000 1000 -0.01252857 -0.01262141 -0.0117758 1000 1000 1000 -0.011036 -0.01103545 -0.01071754 -0.01118121 -0.01104381 1000 -0.011036 -0.01103545 -0.01071754 -0.01118121 -0.01104381 1000
lala 1 1.2 1 second 11 1 12 6 7.98 1.23999714851379 1 1 1 1 -0.01202493 -0.01210132 -0.01250045 -0.01261128 -0.01290611 1000 -0.01202493 -0.01210132 -0.01250045 -0.01261128 -0.01290611 1000 -0.0120592 -0.01261866 -0.01325018 -0.01404043 -0.01327911 1000 -0.0120592 -0.01261866 -0.01325018 -0.01404043 -0.01327911 1000
lala 1 1.2 1 second 13 1 13 4 5.32 1.97999668121338 0 1 1 1 -0.0139054 -0.01435363 -0.01413729 -0.01428032 -0.01437634 1000 -0.0139054 -0.01435363 -0.01413729 -0.01428032 -0.01437634 1000 -0.01390351 -0.01400398 -0.01455185 -0.01482402 -0.01474238 1000 -0.01390351 -0.01400398 -0.01455185 -0.01482402 -0.01474238 1000
lala 1 1.2 0 second 6 1 14 4 2.64 0.659997701644897 1 0 -1 0 -0.01360198 -0.01330156 -0.01420686 -0.01469296 -0.01447892 1000 -0.01360198 -0.01330156 -0.01420686 -0.01469296 -0.01447892 1000 -0.01528025 -0.01481318 -0.01427937 -0.01461679 -0.01467733 1000 -0.01528025 -0.01481318 -0.01427937 -0.01461679 -0.01467733 1000
lala 1 1.2 1 second 5 1 15 6 7.98 0.599997758865356 -1 1 1 1 -0.01429505 -0.01431253 -0.01513331 -0.0147299 -0.01410718 1000 -0.01429505 -0.01431253 -0.01513331 -0.0147299 -0.01410718 1000 -0.01455211 -0.01522447 -0.01512744 -0.01514251 -0.01325269 1000 -0.01455211 -0.01522447 -0.01512744 -0.01514251 -0.01325269 1000
lala 2 1.2 1 second 11 1 16 6 6.780001 1.49999690055847 1 1 1 1 0.003412607 -0.001781403 0.001343674 -0.0009795302 -0.006934764 1000 0.003412607 -0.001781403 0.001343674 -0.0009795302 -0.006934764 1000 -0.004459059 -0.00462667 -0.006046728 -0.005354302 -0.005242184 1000 -0.004459059 -0.00462667 -0.006046728 -0.005354302 -0.005242184 1000
lala 2 1.2 0 second 13 1 17 4 4.12 1.41999697685242 0 1 -1 0 -0.02534531 -0.03294463 -0.03181277 -0.03105892 -0.03334745 1000 -0.02534531 -0.03294463 -0.03181277 -0.03105892 -0.03334745 1000 -0.008491949 -0.01104945 -0.01128127 -0.01174488 -0.01272955 1000 -0.008491949 -0.01104945 -0.01128127 -0.01174488 -0.01272955 1000
lala 3 1.2 1 second 11 1 18 6 5.580001 2.47999620437622 1 1 1 0 -0.007033868 -0.007438469 -0.008490174 -0.008401684 -0.00927502 1000 -0.007033868 -0.007438469 -0.008490174 -0.008401684 -0.00927502 1000 -0.0121591 -0.01255898 -0.01092841 -0.009647537 -0.009619717 1000 -0.0121591 -0.01255898 -0.01092841 -0.009647537 -0.009619717 1000
lala 1 1.2 0 first 10 1 19 6 3.96 0.579997777938843 1 0 -1 0 -0.009147259 -0.00760459 -0.006959599 1000 1000 1000 -0.009147259 -0.00760459 -0.006959599 1000 1000 1000 -0.007742716 -0.007991217 -0.00775492 -0.007714406 -0.007265309 1000 -0.007742716 -0.007991217 -0.00775492 -0.007714406 -0.007265309 1000
lala 2 1.2 0 first 16 1 20 6 5.16 0.599997758865356 0 0 -1 0 -0.007205368 -0.006927424 -0.007904403 1000 1000 1000 -0.007205368 -0.006927424 -0.007904403 1000 1000 1000 -0.009815618 -0.00935722 -0.009564002 -0.009328797 -0.007739808 1000 -0.009815618 -0.00935722 -0.009564002 -0.009328797 -0.007739808 1000
lala 3 1.2 0 first 8 1 21 5 3.3 1.17999720573425 1 0 -1 0 -0.01058126 -0.009637059 -0.009017874 1000 1000 1000 -0.01058126 -0.009637059 -0.009017874 1000 1000 1000 -0.009828283 -0.009682111 -0.008857497 -0.008596155 -0.009341127 1000 -0.009828283 -0.009682111 -0.008857497 -0.008596155 -0.009341127 1000
lala 2 1.2 0 second 6 1 22 4 3.84 1.55999684333801 1 0 -1 0 -0.01037238 -0.01067064 -0.01056559 -0.009651828 -0.0090584 1000 -0.01037238 -0.01067064 -0.01056559 -0.009651828 -0.0090584 1000 -0.009236055 -0.009187161 -0.008927245 -0.009177734 -0.00935697 1000 -0.009236055 -0.009187161 -0.008927245 -0.009177734 -0.00935697 1000
lala 4 1.2 0 first 8 1 23 5 4.5 0.819997549057007 1 0 -1 0 -0.008394416 -0.008687209 -0.00910117 1000 1000 1000 -0.008394416 -0.008687209 -0.00910117 1000 1000 1000 -0.008978938 -0.008830527 -0.007773985 -0.00747851 -0.007979874 1000 -0.008978938 -0.008830527 -0.007773985 -0.00747851 -0.007979874 1000
lala 2 1.2 1 first 0 1 24 4 3.84 1.35999703407288 -1 0 1 0 -0.007793208 -0.007149477 -0.006461232 1000 1000 1000 -0.007793208 -0.007149477 -0.006461232 1000 1000 1000 -0.00626324 -0.006358885 -0.005294 -0.006202985 -0.006340863 1000 -0.00626324 -0.006358885 -0.005294 -0.006202985 -0.006340863 1000
lala 3 1.2 1 second 13 1 25 4 5.32 0.539997816085815 0 1 1 0 -0.007917485 -0.007714527 -0.007884491 -0.008153668 -0.006184692 1000 -0.007917485 -0.007714527 -0.007884491 -0.008153668 -0.006184692 1000 -0.004077278 -0.005135876 -0.002640455 -0.000457604 -0.001314333 1000 -0.004077278 -0.005135876 -0.002640455 -0.000457604 -0.001314333 1000
lala 4 1.2 0 first 11 1 26 6 4.380001 3.97999477386475 1 1 -1 1 -0.01962562 -0.01613818 -0.01625571 1000 1000 1000 -0.01962562 -0.01613818 -0.01625571 1000 1000 1000 -0.01564359 -0.01656997 -0.01762062 -0.01621784 -0.01108235 1000 -0.01564359 -0.01656997 -0.01762062 -0.01621784 -0.01108235 1000
lala 3 1.2 0 second 6 1 27 4 5.04 2.75999593734741 1 0 -1 1 -0.003266057 -0.002448054 -0.004015767 -0.0053917 -0.006951572 1000 -0.003266057 -0.002448054 -0.004015767 -0.0053917 -0.006951572 1000 -0.001925846 0.000769816 -0.000132338 0.0007446466 -0.000937388 1000 -0.001925846 0.000769816 -0.000132338 0.0007446466 -0.000937388 1000
lala 3 1.2 1 first 16 1 28 6 6.36 0.899997472763062 0 0 1 1 -0.0008961308 -0.001663747 -0.002954894 1000 1000 1000 -0.0008961308 -0.001663747 -0.002954894 1000 1000 1000 -0.001698339 -0.001361211 -0.001921802 -0.001598268 -0.001927422 1000 -0.001698339 -0.001361211 -0.001921802 -0.001598268 -0.001927422 1000
lala 1 1.2 0 first 12 1 29 4 2.64 0.939997434616089 0 0 -1 1 -0.005363422 -0.00615353 -0.006811376 1000 1000 1000 -0.005363422 -0.00615353 -0.006811376 1000 1000 1000 -0.0038863 -0.004653095 -0.005664381 -0.003092687 -0.003023839 1000 -0.0038863 -0.004653095 -0.005664381 -0.003092687 -0.003023839 1000
lala 2 1.2 1 second 9 1 30 5 5.45 0.719997644424438 1 1 1 0 0.0004170332 0.0001054853 0.0001205147 -0.0002503556 -0.001770702 1000 0.0004170332 0.0001054853 0.0001205147 -0.0002503556 -0.001770702 1000 0.0007163204 0.0001763714 0.0005685616 -0.0001106318 -0.001562063 1000 0.0007163204 0.0001763714 0.0005685616 -0.0001106318 -0.001562063 1000
lala 4 1.2 1 first 16 1 31 6 5.16 1.03999733924866 0 0 1 1 -0.002820035 -0.004864763 -0.005708431 1000 1000 1000 -0.002820035 -0.004864763 -0.005708431 1000 1000 1000 0.002739039 -0.0008518844 0.001534341 0.003835118 0.00214185 1000 0.002739039 -0.0008518844 0.001534341 0.003835118 0.00214185 1000
lala 3 1.2 0 second 14 1 32 5 3.3 0.679997682571411 0 0 -1 0 0.003993445 0.005056524 0.004786288 0.004018102 0.003101679 1000 0.003993445 0.005056524 0.004786288 0.004018102 0.003101679 1000 0.003616653 0.006284458 0.005205282 0.00494351 0.005778016 1000 0.003616653 0.006284458 0.005205282 0.00494351 0.005778016 1000
lala 2 1.2 0 second 10 1 33 6 5.16 2.01999664306641 1 0 -1 0 0.006673339 0.005123142 0.003112515 0.005126964 0.005547946 1000 0.006673339 0.005123142 0.003112515 0.005126964 0.005547946 1000 0.001075116 0.002060057 0.002279364 0.005011683 0.005897922 1000 0.001075116 0.002060057 0.002279364 0.005011683 0.005897922 1000
lala 3 1.2 0 second 0 1 34 4 2.64 1.69999694824219 -1 0 -1 1 0.005514274 0.005824185 0.008132132 0.007301837 0.005936104 1000 0.005514274 0.005824185 0.008132132 0.007301837 0.005936104 1000 0.003822987 0.003677364 0.003373683 0.003027899 0.002821166 1000 0.003822987 0.003677364 0.003373683 0.003027899 0.002821166 1000
lala 2 1.2 0 second 5 1 35 6 6.780001 3.51999521255493 -1 1 -1 1 0.002275507 0.002591481 0.002533883 0.003066739 0.003388725 1000 0.002275507 0.002591481 0.002533883 0.003066739 0.003388725 1000 0.002659231 0.002476303 0.001708213 0.0008211939 0.000673207 1000 0.002659231 0.002476303 0.001708213 0.0008211939 0.000673207 1000
lala 4 1.2 1 first 13 1 36 4 4.12 1.33999705314636 0 1 1 1 0.003482712 0.003165747 0.003589212 1000 1000 1000 0.003482712 0.003165747 0.003589212 1000 1000 1000 0.00354999 0.002908083 0.003345331 0.003129181 0.003467 1000 0.00354999 0.002908083 0.003345331 0.003129181 0.003467 1000
lala 2 1.2 1 second 12 1 37 4 3.84 0.339998006820679 0 0 1 1 0.004563193 0.003657448 0.002559349 0.001507385 0.0004648007 1000 0.004563193 0.003657448 0.002559349 0.001507385 0.0004648007 1000 0.0035272 0.003471127 0.006081383 0.00489459 0.004796532 1000 0.0035272 0.003471127 0.006081383 0.00489459 0.004796532 1000
lala 3 1.2 0 first 12 1 38 4 2.64 0.759997606277466 0 0 -1 1 0.00545645 0.003988662 0.005779784 1000 1000 1000 0.00545645 0.003988662 0.005779784 1000 1000 1000 0.007255272 0.007294435 0.006860249 0.007448341 0.006474656 1000 0.007255272 0.007294435 0.006860249 0.007448341 0.006474656 1000
lala 4 1.2 1 first 12 1 39 4 3.84 0.479997873306274 0 0 1 1 -0.002112903 0.0001026256 0.001042803 1000 1000 1000 -0.002112903 0.0001026256 0.001042803 1000 1000 1000 0.003470782 0.003545295 0.003648732 0.004283503 0.003889797 1000 0.003470782 0.003545295 0.003648732 0.004283503 0.003889797 1000
lala 5 1.2 0 second 8 1 40 5 5.7 0.559997797012329 1 0 -1 0 0.003572096 0.00361349 0.00374107 0.003573298 0.004743471 1000 0.003572096 0.00361349 0.00374107 0.003573298 0.004743471 1000 0.00199863 0.002789119 0.003502093 0.004410892 0.00404237 1000 0.00199863 0.002789119 0.003502093 0.004410892 0.00404237 1000
lala 5 1.2 0 first 11 1 41 6 5.580001 0.679997682571411 1 1 -1 1 0.003986967 0.003846396 0.004686649 1000 1000 1000 0.003986967 0.003846396 0.004686649 1000 1000 1000 0.00317764 0.003525153 0.0036476 0.003574318 0.003590447 1000 0.00317764 0.003525153 0.0036476 0.003574318 0.003590447 1000
lala 6 1.2 1 second 11 1 42 6 6.780001 0.699997663497925 1 1 1 0 0.003046039 0.003128767 0.003966772 0.004057814 0.004115399 1000 0.003046039 0.003128767 0.003966772 0.004057814 0.004115399 1000 0.003314143 0.002906892 0.003593435 0.003241314 0.003034166 1000 0.003314143 0.002906892 0.003593435 0.003241314 0.003034166 1000
lala 2 1.2 0 second 2 1 43 5 4.5 1.13999724388123 -1 0 -1 1 0.001667493 0.002312047 0.002383047 0.002606034 0.002878006 1000 0.001667493 0.002312047 0.002383047 0.002606034 0.002878006 1000 0.002506069 0.002998689 0.003287235 0.003220507 0.003527086 1000 0.002506069 0.002998689 0.003287235 0.003220507 0.003527086 1000
lala 3 1.2 1 second 10 1 44 6 6.36 0.899997472763062 1 0 1 0 0.002400406 0.002367212 0.002255988 0.003400219 0.003210202 1000 0.002400406 0.002367212 0.002255988 0.003400219 0.003210202 1000 0.004034609 0.004566345 0.004020882 0.00420673 0.00408189 1000 0.004034609 0.004566345 0.004020882 0.00420673 0.00408189 1000
lala 4 1.2 0 first 0 1 45 4 3.84 0.519997835159302 -1 0 -1 1 0.002785337 0.002347367 -0.001227929 1000 1000 1000 0.002785337 0.002347367 -0.001227929 1000 1000 1000 -0.02082895 -0.02181392 -0.02299706 -0.02326371 -0.02303174 1000 -0.02082895 -0.02181392 -0.02299706 -0.02326371 -0.02303174 1000
lala 5 1.2 0 first 12 1 46 4 2.64 0.879997491836548 0 0 -1 1 -0.02002959 -0.01972475 -0.0183333 1000 1000 1000 -0.02002959 -0.01972475 -0.0183333 1000 1000 1000 -0.01926128 -0.01876937 -0.01891355 -0.01893901 -0.01966276 1000 -0.01926128 -0.01876937 -0.01891355 -0.01893901 -0.01966276 1000
lala 4 1.2 0 first 10 1 47 6 5.16 0.819997549057007 1 0 -1 0 -0.02040242 -0.02075109 -0.01941007 1000 1000 1000 -0.02040242 -0.02075109 -0.01941007 1000 1000 1000 -0.02372286 -0.02342419 -0.02276159 -0.02283074 -0.02321978 1000 -0.02372286 -0.02342419 -0.02276159 -0.02283074 -0.02321978 1000
lala 5 1.2 0 first 0 1 48 4 5.04 0.959997415542603 -1 0 -1 1 -0.01994468 -0.01802295 -0.01611151 1000 1000 1000 -0.01994468 -0.01802295 -0.01611151 1000 1000 1000 -0.002032328 -0.001835199 -0.002617348 -0.002351141 -0.00210752 1000 -0.002032328 -0.001835199 -0.002617348 -0.002351141 -0.00210752 1000
lala 3 1.2 1 second 5 1 49 6 7.98 0.739997625350952 -1 1 1 1 -0.003897662 -0.004409785 -0.003680205 -0.004266702 -0.004859909 1000 -0.003897662 -0.004409785 -0.003680205 -0.004266702 -0.004859909 1000 -0.006570819 -0.007154272 -0.006964811 -0.006834082 -0.006243139 1000 -0.006570819 -0.007154272 -0.006964811 -0.006834082 -0.006243139 1000
lala 6 1.2 1 first 8 1 50 5 6.9 0.079998254776001 1 0 1 0 0.01238851 0.01937588 0.01292172 0.007773858 0.008046025 0.007012105 0.01238851 0.01937588 0.01292172 0.007773858 0.008046025 0.007012105 0.00537275 0.004718021 0.00451832 0.004438932 0.004177412 1000 0.00537275 0.004718021 0.00451832 0.004438932 0.004177412 1000
lala 4 1.2 1 first 6 1 51 4 6.24 0.359997987747192 1 0 1 1 0.004218375 0.003513537 0.003613214 1000 1000 1000 0.004218375 0.003513537 0.003613214 1000 1000 1000 0.006267161 0.005948508 0.005446889 0.005706674 0.004541235 1000 0.006267161 0.005948508 0.005446889 0.005706674 0.004541235 1000
lala 4 1.2 1 first 5 1 52 6 6.780001 0.759997606277466 -1 1 1 1 0.005425929 0.005147544 0.005500705 1000 1000 1000 0.005425929 0.005147544 0.005500705 1000 1000 1000 0.00443886 0.004323061 0.006545138 0.007763197 0.007610104 1000 0.00443886 0.004323061 0.006545138 0.007763197 0.007610104 1000
lala 5 1.2 0 first 16 1 53 6 3.96 1.15999722480774 0 0 -1 1 0.004666317 0.005140847 0.0044243 1000 1000 1000 0.004666317 0.005140847 0.0044243 1000 1000 1000 0.005866673 0.005007204 0.005226291 0.005903858 0.005725284 1000 0.005866673 0.005007204 0.005226291 0.005903858 0.005725284 1000
lala 1 1.2 1 second 3 1 54 5 6.65 0.459997892379761 -1 1 1 0 0.003612727 0.003170362 0.003280018 0.003527268 0.003673522 1000 0.003612727 0.003170362 0.003280018 0.003527268 0.003673522 1000 0.004078535 0.003703007 0.003964756 0.004087272 0.004740168 1000 0.004078535 0.003703007 0.003964756 0.004087272 0.004740168 1000
lala 5 1.2 1 second 13 1 55 4 2.92 3.6199951171875 0 1 1 1 0.006051637 0.008016226 0.007518279 0.004938011 0.006262407 1000 0.006051637 0.008016226 0.007518279 0.004938011 0.006262407 1000 0.008455856 0.01063223 0.0110609 0.009886752 0.01009266 1000 0.008455856 0.01063223 0.0110609 0.009886752 0.01009266 1000
lala 2 1.2 1 first 17 1 56 6 6.780001 0.699997663497925 0 1 1 0 -0.007569108 -0.008400746 -0.01028802 1000 1000 1000 -0.007569108 -0.008400746 -0.01028802 1000 1000 1000 -0.00304046 -0.001978059 -0.002224038 -0.003074876 -0.001364219 1000 -0.00304046 -0.001978059 -0.002224038 -0.003074876 -0.001364219 1000
lala 3 1.2 1 first 2 1 57 5 5.7 2.17999649047852 -1 0 1 1 0.007671888 0.00597539 0.001341153 1000 1000 1000 0.007671888 0.00597539 0.001341153 1000 1000 1000 -0.005038873 -0.00503097 -0.004949409 -0.00590224 -0.005647266 1000 -0.005038873 -0.00503097 -0.004949409 -0.00590224 -0.005647266 1000
lala 1 1.2 0 second 4 1 58 6 3.96 3.29999542236328 -1 0 -1 1 -0.005466195 -0.00494723 -0.004417972 -0.004499159 -0.005321197 1000 -0.005466195 -0.00494723 -0.004417972 -0.004499159 -0.005321197 1000 -0.002808806 -0.002983284 -0.003455405 -0.003462231 -0.003845844 1000 -0.002808806 -0.002983284 -0.003455405 -0.003462231 -0.003845844 1000
lala 7 1.2 1 first 8 1 59 5 5.7 1.43999695777893 1 0 1 0 -0.003452008 -0.002691446 -0.0015935 1000 1000 1000 -0.003452008 -0.002691446 -0.0015935 1000 1000 1000 0.001150767 0.001705452 0.001306656 0.0004740257 0.0002045443 1000 0.001150767 0.001705452 0.001306656 0.0004740257 0.0002045443 1000
lala 5 1.2 1 second 10 1 60 6 6.36 0.419997930526733 1 0 1 0 0.0008257986 0.001136838 0.0007463982 0.0009067511 0.0006376194 1000 0.0008257986 0.001136838 0.0007463982 0.0009067511 0.0006376194 1000 0.0006642726 0.0005751381 0.0006489472 0.001289202 0.001126798 1000 0.0006642726 0.0005751381 0.0006489472 0.001289202 0.001126798 1000
lala 8 1.2 0 first 8 1 61 5 4.5 2.57999610900879 1 0 -1 1 0.0010261 0.001583185 0.001707188 1000 1000 1000 0.0010261 0.001583185 0.001707188 1000 1000 1000 0.007268099 0.007393459 0.00620437 0.005567564 0.006077605 1000 0.007268099 0.007393459 0.00620437 0.005567564 0.006077605 1000
lala 6 1.2 0 first 10 1 62 6 5.16 1.03999733924866 1 0 -1 1 0.004883018 0.004836476 0.005306958 1000 1000 1000 0.004883018 0.004836476 0.005306958 1000 1000 1000 0.004849722 0.004484842 0.004379417 0.004170267 0.004053179 1000 0.004849722 0.004484842 0.004379417 0.004170267 0.004053179 1000
lala 6 1.2 1 first 0 1 63 4 6.24 0.319998025894165 -1 0 1 1 0.003689863 0.003641605 0.004148332 1000 1000 1000 0.003689863 0.003641605 0.004148332 1000 1000 1000 0.003585879 0.003806678 0.003500509 0.004316802 0.003596781 1000 0.003585879 0.003806678 0.003500509 0.004316802 0.003596781 1000
lala 4 1.2 0 first 2 1 64 5 4.5 2.55999612808228 -1 0 -1 0 0.004249104 0.004777795 0.005226637 1000 1000 1000 0.004249104 0.004777795 0.005226637 1000 1000 1000 0.005512042 0.004516975 0.005741409 0.004762775 0.004215625 1000 0.005512042 0.004516975 0.005741409 0.004762775 0.004215625 1000
lala 2 1.2 1 first 4 1 65 6 5.16 1.19999718666077 -1 0 1 1 0.004876806 0.005464386 0.00532301 1000 1000 1000 0.004876806 0.005464386 0.00532301 1000 1000 1000 0.005347776 0.005096953 0.005482143 0.005753785 0.0052209 1000 0.005347776 0.005096953 0.005482143 0.005753785 0.0052209 1000
lala 5 1.2 1 second 6 1 66 4 5.04 0.419997930526733 1 0 1 1 0.005144062 0.005514035 0.005256761 0.00451076 0.004417414 1000 0.005144062 0.005514035 0.005256761 0.00451076 0.004417414 1000 0.004701373 0.004585222 0.005089548 0.004999358 0.004317691 1000 0.004701373 0.004585222 0.005089548 0.004999358 0.004317691 1000
lala 6 1.2 0 second 13 1 67 4 1.72 0.779997587203979 0 1 -1 0 -0.0003227764 0.00230094 0.001581766 0.002075745 0.002378124 1000 -0.0003227764 0.00230094 0.001581766 0.002075745 0.002378124 1000 0.00472731 0.004104218 0.004009441 0.006120303 0.005061503 1000 0.00472731 0.004104218 0.004009441 0.006120303 0.005061503 1000
lala 6 1.2 0 second 16 1 68 6 5.16 2.13999652862549 0 0 -1 0 0.00473836 0.005918051 0.006365313 0.006527487 0.007626182 1000 0.00473836 0.005918051 0.006365313 0.006527487 0.007626182 1000 0.008265685 0.007838063 0.007723528 0.008045284 0.008764888 1000 0.008265685 0.007838063 0.007723528 0.008045284 0.008764888 1000
lala 5 1.2 1 second 5 1 69 6 5.580001 0.359997987747192 -1 1 1 1 0.008596071 0.008685802 0.008372176 0.009080252 0.009362708 1000 0.008596071 0.008685802 0.008372176 0.009080252 0.009362708 1000 0.009087188 0.008992082 0.008682798 0.009186087 0.008657364 1000 0.009087188 0.008992082 0.008682798 0.009186087 0.008657364 1000
lala 3 1.2 1 second 9 1 70 5 4.25 0.39999794960022 1 1 1 0 0.00728481 0.007393039 0.00719257 0.008153211 0.007711111 1000 0.00728481 0.007393039 0.00719257 0.008153211 0.007711111 1000 0.009714464 0.009470486 0.008795972 0.008178549 0.009487116 1000 0.009714464 0.009470486 0.008795972 0.008178549 0.009487116 1000
lala 1 1.2 1 second 15 1 71 5 6.65 0.279998064041138 0 1 1 0 0.009412308 0.009029573 0.009488694 0.009045254 0.009518163 1000 0.009412308 0.009029573 0.009488694 0.009045254 0.009518163 1000 0.009457394 0.008663192 0.00897582 0.008964304 0.009263231 1000 0.009457394 0.008663192 0.00897582 0.008964304 0.009263231 1000
lala 2 1.2 1 second 3 1 72 5 5.45 0.319998025894165 -1 1 1 1 0.007555341 0.007215745 0.007757669 0.008503646 0.008458595 1000 0.007555341 0.007215745 0.007757669 0.008503646 0.008458595 1000 0.009373092 0.009895201 0.009024346 0.008649644 0.008179954 1000 0.009373092 0.009895201 0.009024346 0.008649644 0.008179954 1000
lala 3 1.2 1 second 17 1 73 6 5.580001 0.339998006820679 0 1 1 0 0.004945103 0.004659809 0.004151349 0.005370489 0.005932951 1000 0.004945103 0.004659809 0.004151349 0.005370489 0.005932951 1000 0.008612597 0.006657117 0.004886676 0.005101018 0.005285226 1000 0.008612597 0.006657117 0.004886676 0.005101018 0.005285226 1000
lala 9 1.2 1 first 8 1 74 5 5.7 0.61999773979187 1 0 1 0 0.005205383 0.005731408 0.006642574 1000 1000 1000 0.005205383 0.005731408 0.006642574 1000 1000 1000 0.007636892 0.006727163 0.006799557 0.006371982 0.005711685 1000 0.007636892 0.006727163 0.006799557 0.006371982 0.005711685 1000
lala 2 1.2 0 first 7 1 75 4 4.12 0.23999810218811 1 1 -1 1 0.00640303 0.006294072 0.00622753 1000 1000 1000 0.00640303 0.006294072 0.00622753 1000 1000 1000 0.004911136 0.004779452 0.004989251 0.005124565 0.005107056 1000 0.004911136 0.004779452 0.004989251 0.005124565 0.005107056 1000
lala 3 1.2 1 first 7 1 76 4 5.32 0.919997453689575 1 1 1 1 0.004165887 0.004867529 0.004839723 1000 1000 1000 0.004165887 0.004867529 0.004839723 1000 1000 1000 0.006108915 0.006056276 0.005857707 0.005583201 0.005814717 1000 0.006108915 0.006056276 0.005857707 0.005583201 0.005814717 1000
lala 7 1.2 1 first 16 1 77 6 6.36 0.299998044967651 0 0 1 1 0.004844334 0.004272475 0.004595646 1000 1000 1000 0.004844334 0.004272475 0.004595646 1000 1000 1000 0.004966533 0.004998824 0.005319512 0.005607521 0.00452735 1000 0.004966533 0.004998824 0.005319512 0.005607521 0.00452735 1000
lala 4 1.2 0 first 17 1 78 6 4.380001 0.259998083114624 0 1 -1 0 0.004942869 0.004538239 0.00461962 1000 1000 1000 0.004942869 0.004538239 0.00461962 1000 1000 1000 0.003777189 0.004302602 0.004118177 0.005315903 0.004863356 1000 0.003777189 0.004302602 0.004118177 0.005315903 0.004863356 1000
lala 7 1.2 0 second 13 1 79 4 2.92 0.459997892379761 0 1 -1 0 0.005127851 0.004796746 0.005586363 0.0054465 0.004738103 1000 0.005127851 0.004796746 0.005586363 0.0054465 0.004738103 1000 0.006219759 0.006128719 0.005710187 0.005715649 0.006717445 1000 0.006219759 0.006128719 0.005710187 0.005715649 0.006717445 1000
lala 6 1.2 0 first 12 1 80 4 3.84 1.51999688148499 0 0 -1 1 0.005991622 0.005770452 0.005024862 1000 1000 1000 0.005991622 0.005770452 0.005024862 1000 1000 1000 -0.0124277 -0.01414908 -0.01458405 -0.01600369 -0.01729535 1000 -0.0124277 -0.01414908 -0.01458405 -0.01600369 -0.01729535 1000
lala 3 1.2 1 second 4 1 81 6 3.96 0.339998006820679 -1 0 1 1 -0.01018737 -0.009548294 -0.009861957 -0.008754763 -0.008464728 1000 -0.01018737 -0.009548294 -0.009861957 -0.008754763 -0.008464728 1000 -0.00309099 -0.002942923 -0.003650868 -0.004788365 -0.004936633 1000 -0.00309099 -0.002942923 -0.003650868 -0.004788365 -0.004936633 1000
lala 4 1.2 1 first 14 1 82 5 4.5 0.919997453689575 0 0 1 0 -0.006338882 -0.006185509 -0.006278438 1000 1000 1000 -0.006338882 -0.006185509 -0.006278438 1000 1000 1000 -0.008561465 -0.007665161 -0.006790003 -0.006317513 -0.005689012 1000 -0.008561465 -0.007665161 -0.006790003 -0.006317513 -0.005689012 1000
lala 10 0.6 0 first 8 1 83 5 5.1 1.57999682426453 1 0 -1 1 -0.004989129 -0.004105245 -0.002714071 1000 1000 1000 -0.004989129 -0.004105245 -0.002714071 1000 1000 1000 -0.006477332 -0.006687922 -0.005958663 -0.006816729 -0.006894934 1000 -0.006477332 -0.006687922 -0.005958663 -0.006816729 -0.006894934 1000
lala 2 1.2 1 second 1 1 84 4 4.12 0.39999794960022 -1 1 1 0 -0.004264909 -0.00371693 -0.004039807 -0.003483599 -0.003297292 1000 -0.004264909 -0.00371693 -0.004039807 -0.003483599 -0.003297292 1000 -0.003223763 -0.003678137 -0.002915679 -0.003238377 -0.003232998 1000 -0.003223763 -0.003678137 -0.002915679 -0.003238377 -0.003232998 1000
lala 5 1.2 0 first 14 1 85 5 3.3 0.659997701644897 0 0 -1 0 -0.00414127 -0.003976956 -0.003631606 1000 1000 1000 -0.00414127 -0.003976956 -0.003631606 1000 1000 1000 -0.0004031719 -0.0003136389 -0.0008064159 -0.0009750362 -0.001699016 1000 -0.0004031719 -0.0003136389 -0.0008064159 -0.0009750362 -0.001699016 1000
lala 4 1.2 0 first 9 1 86 5 3.05 2.03999662399292 1 1 -1 0 -0.003178709 -0.002800983 -0.004667654 1000 1000 1000 -0.003178709 -0.002800983 -0.004667654 1000 1000 1000 -0.006578223 -0.006281804 -0.00610927 -0.006223049 -0.005762805 1000 -0.006578223 -0.006281804 -0.00610927 -0.006223049 -0.005762805 1000
lala 3 1.2 0 second 1 1 87 4 2.92 0.419997930526733 -1 1 -1 0 -0.002721459 -0.00348216 -0.00339963 -0.00330547 -0.002196657 1000 -0.002721459 -0.00348216 -0.00339963 -0.00330547 -0.002196657 1000 -0.001592127 -0.001815445 -0.001382903 -0.001844737 -0.001906238 1000 -0.001592127 -0.001815445 -0.001382903 -0.001844737 -0.001906238 1000
lala 6 1.2 0 second 14 1 88 5 4.5 0.479997873306274 0 0 -1 1 -0.001574559 -0.001642563 -0.001656222 -0.001402029 -0.001646506 1000 -0.001574559 -0.001642563 -0.001656222 -0.001402029 -0.001646506 1000 -0.001333143 -0.001551901 -0.001394558 -0.001441377 -0.0008637839 1000 -0.001333143 -0.001551901 -0.001394558 -0.001441377 -0.0008637839 1000
lala 7 1.2 1 first 0 1 89 4 5.04 0.259998083114624 -1 0 1 1 -0.002096747 -0.00300264 -0.002718462 1000 1000 1000 -0.002096747 -0.00300264 -0.002718462 1000 1000 1000 -0.003662358 -0.003441575 -0.002700218 -0.00252001 -0.00293511 1000 -0.003662358 -0.003441575 -0.002700218 -0.00252001 -0.00293511 1000
lala 7 1.2 1 second 10 1 90 6 6.36 0.599997758865356 1 0 1 1 -0.003814569 -0.003347796 -0.003502101 -0.003486783 -0.003596141 1000 -0.003814569 -0.003347796 -0.003502101 -0.003486783 -0.003596141 1000 -0.004268838 -0.004296755 -0.004535493 -0.004672336 -0.005192065 1000 -0.004268838 -0.004296755 -0.004535493 -0.004672336 -0.005192065 1000
lala 6 1.2 0 second 6 1 91 4 3.84 0.459997892379761 1 0 -1 1 -0.004636316 -0.00470255 -0.004309866 -0.004097743 -0.004012214 1000 -0.004636316 -0.00470255 -0.004309866 -0.004097743 -0.004012214 1000 -0.003373475 -0.002901531 -0.003419968 -0.003888164 -0.004255513 1000 -0.003373475 -0.002901531 -0.003419968 -0.003888164 -0.004255513 1000
lala 2 1.2 1 first 15 1 92 5 5.45 0.219998121261597 0 1 1 1 -0.0047402 -0.004860375 -0.004685773 1000 1000 1000 -0.0047402 -0.004860375 -0.004685773 1000 1000 1000 -0.003678114 -0.003202071 -0.003919099 -0.00365686 -0.003404168 1000 -0.003678114 -0.003202071 -0.003919099 -0.00365686 -0.003404168 1000
lala 8 1.2 1 first 10 1 93 6 5.16 0.559997797012329 1 0 1 0 -0.005275287 -0.0050583 -0.00442226 1000 1000 1000 -0.005275287 -0.0050583 -0.00442226 1000 1000 1000 -0.004206963 -0.004756136 -0.00520325 -0.005112983 -0.004331653 1000 -0.004206963 -0.004756136 -0.00520325 -0.005112983 -0.004331653 1000
lala 7 1.2 0 first 12 1 94 4 5.04 1.55999684333801 0 0 -1 0 -0.004020997 -0.003763063 -0.004137617 1000 1000 1000 -0.004020997 -0.003763063 -0.004137617 1000 1000 1000 -0.00525541 -0.005215087 -0.004231625 -0.004608834 -0.004593099 1000 -0.00525541 -0.005215087 -0.004231625 -0.004608834 -0.004593099 1000
lala 3 1.2 1 second 15 1 95 5 4.25 0.459997892379761 0 1 1 1 -0.003884753 -0.00351545 -0.003456704 -0.004042223 -0.004501435 1000 -0.003884753 -0.00351545 -0.003456704 -0.004042223 -0.004501435 1000 -0.004040959 -0.003982223 -0.004062447 -0.003842631 -0.003971062 1000 -0.004040959 -0.003982223 -0.004062447 -0.003842631 -0.003971062 1000
lala 9 1.2 0 first 10 1 96 6 3.96 0.819997549057007 1 0 -1 0 -0.002722623 -0.003198217 -0.00360025 1000 1000 1000 -0.002722623 -0.003198217 -0.00360025 1000 1000 1000 -0.00397984 -0.003873776 -0.003571064 -0.003900883 -0.003863282 1000 -0.00397984 -0.003873776 -0.003571064 -0.003900883 -0.003863282 1000
lala 4 1.2 0 second 4 1 97 6 2.76 0.579997777938843 -1 0 -1 0 -0.002621228 -0.002255966 -0.004070755 -0.00542129 -0.004397139 1000 -0.002621228 -0.002255966 -0.004070755 -0.00542129 -0.004397139 1000 -0.002010188 -0.001925335 -0.003019958 -0.003021776 -0.004940114 1000 -0.002010188 -0.001925335 -0.003019958 -0.003021776 -0.004940114 1000
lala 8 1.2 1 second 12 1 98 4 6.24 0.319998025894165 0 0 1 1 -0.006523187 -0.006825977 -0.006788096 -0.007390962 -0.009087288 1000 -0.006523187 -0.006825977 -0.006788096 -0.007390962 -0.009087288 1000 -0.01385818 -0.0134263 -0.0125168 -0.01317599 -0.01327038 1000 -0.01385818 -0.0134263 -0.0125168 -0.01317599 -0.01327038 1000
lala 11 0.3 1 second 8 1 99 5 5.4 0.23999810218811 1 0 1 0 -0.01336707 -0.01383461 -0.01408022 -0.01268614 -0.01229842 1000 -0.01336707 -0.01383461 -0.01408022 -0.01268614 -0.01229842 1000 -0.01349554 -0.01256071 -0.01312229 -0.01322583 -0.01263809 1000 -0.01349554 -0.01256071 -0.01312229 -0.01322583 -0.01263809 1000
lala 12 0.15 1 first 8 1 100 5 5.25 1.13999724388123 1 0 1 0 -0.01512877 -0.01507861 -0.01506837 -0.0141992 -0.01395696 -0.01655003 -0.01512877 -0.01507861 -0.01506837 -0.0141992 -0.01395696 -0.01655003 -0.02418965 -0.02458405 -0.02617046 -0.02917182 -0.02834572 1000 -0.02418965 -0.02458405 -0.02617046 -0.02917182 -0.02834572 1000
lala 5 1.2 0 first 4 1 101 6 3.96 0.199998140335083 -1 0 -1 1 -0.01398294 -0.01410502 -0.01478363 1000 1000 1000 -0.01398294 -0.01410502 -0.01478363 1000 1000 1000 -0.01586252 -0.01075953 -0.006422238 -0.00458401 -0.002695136 1000 -0.01586252 -0.01075953 -0.006422238 -0.00458401 -0.002695136 1000
lala 3 1.2 1 first 3 1 102 5 4.25 0.779997587203979 -1 1 1 0 -0.001982808 -0.002127779 -0.002063926 1000 1000 1000 -0.001982808 -0.002127779 -0.002063926 1000 1000 1000 0.01504485 0.01821391 0.01544725 0.0139704 0.01239195 1000 0.01504485 0.01821391 0.01544725 0.0139704 0.01239195 1000
lala 8 1.2 1 first 0 1 103 4 3.84 1.25999712944031 -1 0 1 1 0.002229594 0.004183249 0.005457696 1000 1000 1000 0.002229594 0.004183249 0.005457696 1000 1000 1000 0.006916512 0.005674946 0.005681141 0.004804831 0.005219058 1000 0.006916512 0.005674946 0.005681141 0.004804831 0.005219058 1000
lala 13 0.15 1 first 8 1 104 5 5.1 0.439997911453247 1 0 1 1 0.002095885 0.00326139 0.003267857 1000 1000 1000 0.002095885 0.00326139 0.003267857 1000 1000 1000 0.006370686 0.007466639 0.006607749 0.005602451 0.005536627 1000 0.006370686 0.007466639 0.006607749 0.005602451 0.005536627 1000
lala 7 1.2 0 second 6 1 105 4 5.04 0.01999831199646 1 0 -1 0 0.005391676 0.006768099 0.00612757 0.006496434 0.00651477 1000 0.005391676 0.006768099 0.00612757 0.006496434 0.00651477 1000 0.006155183 0.006019095 0.006053151 0.005907608 0.004825263 1000 0.006155183 0.006019095 0.006053151 0.005907608 0.004825263 1000
lala 5 1.2 1 second 9 1 106 5 4.25 0.559997797012329 1 1 1 0 0.006109592 0.006096963 0.005861629 0.006302645 0.005283477 1000 0.006109592 0.006096963 0.005861629 0.006302645 0.005283477 1000 0.005498091 0.005041752 0.005659852 0.005332822 0.005745267 1000 0.005498091 0.005041752 0.005659852 0.005332822 0.005745267 1000
lala 7 1.2 0 second 11 1 107 6 5.580001 1.49999690055847 1 1 -1 1 0.004489714 0.004351608 0.004350237 0.004630518 0.004597439 1000 0.004489714 0.004351608 0.004350237 0.004630518 0.004597439 1000 0.005686026 0.005810014 0.006186237 0.006161076 0.006237268 1000 0.005686026 0.005810014 0.006186237 0.006161076 0.006237268 1000
lala 4 1.2 0 first 1 1 108 4 4.12 1.0999972820282 -1 1 -1 1 0.005682954 0.006224809 0.005995399 1000 1000 1000 0.005682954 0.006224809 0.005995399 1000 1000 1000 0.006133657 0.0068725 0.006854262 0.006938082 0.007410434 1000 0.006133657 0.0068725 0.006854262 0.006938082 0.007410434 1000
lala 4 1.2 1 second 7 1 109 4 4.12 0.319998025894165 1 1 1 0 0.008607773 0.008429388 0.008227122 0.009533321 0.009278053 1000 0.008607773 0.008429388 0.008227122 0.009533321 0.009278053 1000 0.008836508 0.00971667 0.009760404 0.009901752 0.009625128 1000 0.008836508 0.00971667 0.009760404 0.009901752 0.009625128 1000
lala 10 0.6 1 first 10 1 110 6 4.56 0.819997549057007 1 0 1 0 0.00816119 0.008769238 0.009572373 1000 1000 1000 0.00816119 0.008769238 0.009572373 1000 1000 1000 0.007930189 0.005893519 0.006147943 0.006481435 0.006381751 1000 0.007930189 0.005893519 0.006147943 0.006481435 0.006381751 1000
lala 14 0.15 1 first 8 1 111 5 4.95 0.419997930526733 1 0 1 0 0.009602148 0.009135135 0.00977749 1000 1000 1000 0.009602148 0.009135135 0.00977749 1000 1000 1000 0.01045472 0.01019307 0.010031 0.009700563 0.01013784 1000 0.01045472 0.01019307 0.010031 0.009700563 0.01013784 1000
lala 9 1.2 1 first 12 1 112 4 5.04 1.15999722480774 0 0 1 0 0.01079473 0.009983965 0.01032373 1000 1000 1000 0.01079473 0.009983965 0.01032373 1000 1000 1000 0.00945345 0.009298548 0.009514419 0.009361906 0.009800768 1000 0.00945345 0.009298548 0.009514419 0.009361906 0.009800768 1000
lala 6 1.2 1 second 5 1 113 6 4.380001 0.439997911453247 -1 1 1 1 0.002832474 0.003273719 0.004145831 0.005037818 0.005120775 1000 0.002832474 0.003273719 0.004145831 0.005037818 0.005120775 1000 0.004720501 0.004195526 0.004393476 0.003984293 0.003663116 1000 0.004720501 0.004195526 0.004393476 0.003984293 0.003663116 1000
lala 10 1.2 0 second 12 1 114 4 3.84 0.499997854232788 0 0 -1 1 0.006670292 0.006569795 0.004726923 0.004567099 0.001758803 1000 0.006670292 0.006569795 0.004726923 0.004567099 0.001758803 1000 0.002840855 0.002719496 0.003048805 0.002085029 0.001614297 1000 0.002840855 0.002719496 0.003048805 0.002085029 0.001614297 1000
lala 5 1.2 1 second 17 1 115 6 5.580001 0.359997987747192 0 1 1 1 0.00831582 0.007281359 0.00537223 0.005568137 0.004656864 1000 0.00831582 0.007281359 0.00537223 0.005568137 0.004656864 1000 0.003836837 0.003810768 0.004573827 0.004784205 0.005811753 1000 0.003836837 0.003810768 0.004573827 0.004784205 0.005811753 1000
lala 4 1.2 0 second 15 1 116 5 3.05 0.539997816085815 0 1 -1 0 0.004999258 0.004572695 0.005048192 0.004841022 0.00561061 1000 0.004999258 0.004572695 0.005048192 0.004841022 0.00561061 1000 0.004464293 0.004202231 0.005084699 0.004689714 0.004944146 1000 0.004464293 0.004202231 0.005084699 0.004689714 0.004944146 1000
lala 5 1.2 1 second 2 1 117 5 5.7 0.259998083114624 -1 0 1 1 0.004220786 0.003614743 0.00295054 0.001795026 0.0003488972 1000 0.004220786 0.003614743 0.00295054 0.001795026 0.0003488972 1000 0.0006300149 0.0005329341 0.001107377 0.001803357 0.001997935 1000 0.0006300149 0.0005329341 0.001107377 0.001803357 0.001997935 1000
lala 7 1.2 0 second 5 1 118 6 3.180001 0.479997873306274 -1 1 -1 1 -0.0009269718 -0.001286584 -0.00175818 0.0003871562 -0.001227151 1000 -0.0009269718 -0.001286584 -0.00175818 0.0003871562 -0.001227151 1000 -0.002761055 -0.00319877 -0.002331289 -0.001811421 -0.002769187 1000 -0.002761055 -0.00319877 -0.002331289 -0.001811421 -0.002769187 1000
lala 8 1.2 1 second 5 1 119 6 4.380001 0.61999773979187 -1 1 1 1 0.000398032 -0.0001567729 -0.0006575461 -0.0009445352 -0.001030332 1000 0.000398032 -0.0001567729 -0.0006575461 -0.0009445352 -0.001030332 1000 -0.003092984 -0.003372998 -0.003667954 -0.003757096 -0.003652771 1000 -0.003092984 -0.003372998 -0.003667954 -0.003757096 -0.003652771 1000
lala 4 1.2 0 second 3 1 120 5 3.05 0.559997797012329 -1 1 -1 1 -0.004192226 -0.004243979 -0.004067653 -0.003536286 -0.003845465 1000 -0.004192226 -0.004243979 -0.004067653 -0.003536286 -0.003845465 1000 -0.005241507 -0.0050808 -0.004906757 -0.005108506 -0.005090608 1000 -0.005241507 -0.0050808 -0.004906757 -0.005108506 -0.005090608 1000
lala 5 1.2 1 first 1 1 121 4 5.32 0.339998006820679 -1 1 1 1 -0.004863413 -0.002489219 -0.001593559 1000 1000 1000 -0.004863413 -0.002489219 -0.001593559 1000 1000 1000 -0.004619272 -0.004306183 -0.00455879 -0.004360152 -0.004442394 1000 -0.004619272 -0.004306183 -0.00455879 -0.004360152 -0.004442394 1000
lala 6 1.2 0 second 9 1 122 5 3.05 0.419997930526733 1 1 -1 0 -0.004527463 -0.00362035 -0.003606796 -0.003777176 -0.00411453 1000 -0.004527463 -0.00362035 -0.003606796 -0.003777176 -0.00411453 1000 -0.008263174 -0.008182491 -0.006633287 -0.005748584 -0.005417234 1000 -0.008263174 -0.008182491 -0.006633287 -0.005748584 -0.005417234 1000
lala 11 0.6 1 first 12 1 123 4 4.44 0.299998044967651 0 0 1 1 -0.005294974 -0.005067896 -0.00689233 1000 1000 1000 -0.005294974 -0.005067896 -0.00689233 1000 1000 1000 -0.006984816 -0.007506077 -0.005085994 -0.004574047 -0.00464073 1000 -0.006984816 -0.007506077 -0.005085994 -0.004574047 -0.00464073 1000
lala 5 1.2 1 second 3 1 124 5 4.25 0.299998044967651 -1 1 1 1 -0.00708474 -0.00703159 -0.007093506 -0.006914787 -0.006339719 1000 -0.00708474 -0.00703159 -0.007093506 -0.006914787 -0.006339719 1000 -0.006201904 -0.00628698 -0.005732384 -0.006295883 -0.006510533 1000 -0.006201904 -0.00628698 -0.005732384 -0.006295883 -0.006510533 1000
lala 5 1.2 0 first 7 1 125 4 2.92 0.419997930526733 1 1 -1 1 -0.00820733 -0.008088511 -0.00785041 1000 1000 1000 -0.00820733 -0.008088511 -0.00785041 1000 1000 1000 -0.008484752 -0.008293279 -0.008033399 -0.009232237 -0.009465127 1000 -0.008484752 -0.008293279 -0.008033399 -0.009232237 -0.009465127 1000
lala 6 1.2 0 first 3 1 126 5 3.05 1.87999677658081 -1 1 -1 0 -0.008189037 -0.008342442 -0.008891884 1000 1000 1000 -0.008189037 -0.008342442 -0.008891884 1000 1000 1000 -0.01097628 -0.01047336 -0.01114449 -0.01100418 -0.01119048 1000 -0.01097628 -0.01047336 -0.01114449 -0.01100418 -0.01119048 1000
lala 8 1.2 0 first 16 1 127 6 5.16 0.759997606277466 0 0 -1 1 -0.009946835 -0.009851734 -0.009664631 1000 1000 1000 -0.009946835 -0.009851734 -0.009664631 1000 1000 1000 -0.01019427 -0.01046807 -0.01031526 -0.009966669 -0.01037282 1000 -0.01019427 -0.01046807 -0.01031526 -0.009966669 -0.01037282 1000
lala 6 1.2 1 first 2 1 128 5 4.5 0.559997797012329 -1 0 1 1 -0.01035434 -0.01063386 -0.01114748 1000 1000 1000 -0.01035434 -0.01063386 -0.01114748 1000 1000 1000 -0.01124988 -0.01074941 -0.01088656 -0.01039268 -0.009971613 1000 -0.01124988 -0.01074941 -0.01088656 -0.01039268 -0.009971613 1000
lala 12 0.3 1 first 12 1 129 4 4.14 0.479997873306274 0 0 1 0 -0.01134757 -0.01147154 -0.0102064 1000 1000 1000 -0.01134757 -0.01147154 -0.0102064 1000 1000 1000 -0.01099504 -0.01080538 -0.01154626 -0.01144108 -0.01107258 1000 -0.01099504 -0.01080538 -0.01154626 -0.01144108 -0.01107258 1000
lala 6 1.2 0 first 4 1 130 6 5.16 0.61999773979187 -1 0 -1 1 -0.0130326 -0.01330867 -0.01349796 1000 1000 1000 -0.0130326 -0.01330867 -0.01349796 1000 1000 1000 -0.01337619 -0.0137942 -0.01406952 -0.01277704 -0.01366958 1000 -0.01337619 -0.0137942 -0.01406952 -0.01277704 -0.01366958 1000
lala 6 1.2 1 second 17 1 131 6 4.380001 1.11999726295471 0 1 1 1 -0.01384789 -0.01340469 -0.01317618 -0.0131034 -0.01254051 1000 -0.01384789 -0.01340469 -0.01317618 -0.0131034 -0.01254051 1000 -0.01432217 -0.01396758 -0.01359716 -0.01387243 -0.01411687 1000 -0.01432217 -0.01396758 -0.01359716 -0.01387243 -0.01411687 1000
lala 9 1.2 0 second 0 1 132 4 2.64 0.859997510910034 -1 0 -1 1 -0.01551927 -0.01635887 -0.01567151 -0.0150303 -0.01376001 1000 -0.01551927 -0.01635887 -0.01567151 -0.0150303 -0.01376001 1000 -0.01016035 -0.01287411 -0.01284097 -0.0110247 -0.0106719 1000 -0.01016035 -0.01287411 -0.01284097 -0.0110247 -0.0106719 1000
lala 7 1.2 0 second 17 1 133 6 3.180001 1.57999682426453 0 1 -1 1 -0.01359323 -0.01413025 -0.0150851 -0.01472358 -0.0137505 1000 -0.01359323 -0.01413025 -0.0150851 -0.01472358 -0.0137505 1000 -0.0120343 -0.01279889 -0.01323408 -0.01272177 -0.0113107 1000 -0.0120343 -0.01279889 -0.01323408 -0.01272177 -0.0113107 1000
lala 9 1.2 1 first 5 1 134 6 3.180001 2.75999593734741 -1 1 1 0 -0.01226173 -0.01186712 -0.01136872 1000 1000 1000 -0.01226173 -0.01186712 -0.01136872 1000 1000 1000 -0.01417518 -0.01385722 -0.01347536 -0.01407447 -0.0138459 1000 -0.01417518 -0.01385722 -0.01347536 -0.01407447 -0.0138459 1000
lala 7 1.2 1 second 9 1 135 5 4.25 0.459997892379761 1 1 1 1 -0.01685031 -0.016069 -0.01588999 -0.01560962 -0.01575607 1000 -0.01685031 -0.016069 -0.01588999 -0.01560962 -0.01575607 1000 -0.01527178 -0.01637325 -0.01664148 -0.01704196 -0.01669895 1000 -0.01527178 -0.01637325 -0.01664148 -0.01704196 -0.01669895 1000
lala 8 1.2 1 second 17 1 136 6 4.380001 0.459997892379761 0 1 1 1 -0.01608751 -0.01530185 -0.01514597 -0.01486369 -0.01518975 1000 -0.01608751 -0.01530185 -0.01514597 -0.01486369 -0.01518975 1000 -0.01506906 -0.0144047 -0.0133121 -0.0143788 -0.01348078 1000 -0.01506906 -0.0144047 -0.0133121 -0.0143788 -0.01348078 1000
lala 9 1.2 1 first 16 1 137 6 6.36 0.299998044967651 0 0 1 0 -0.01542325 -0.01585847 -0.01547867 1000 1000 1000 -0.01542325 -0.01585847 -0.01547867 1000 1000 1000 -0.01418734 -0.01527207 -0.01496379 -0.0151007 -0.01530735 1000 -0.01418734 -0.01527207 -0.01496379 -0.0151007 -0.01530735 1000
lala 6 1.2 0 second 7 1 138 4 4.12 0.61999773979187 1 1 -1 1 -0.01511423 -0.01611883 -0.01713091 -0.01721149 -0.01683497 1000 -0.01511423 -0.01611883 -0.01713091 -0.01721149 -0.01683497 1000 -0.01571741 -0.01575426 -0.01651815 -0.01688793 -0.01823939 1000 -0.01571741 -0.01575426 -0.01651815 -0.01688793 -0.01823939 1000
lala 11 0.3 0 first 10 1 139 6 4.26 1.07999730110168 1 0 -1 0 -0.01679719 -0.01677589 -0.01661834 1000 1000 1000 -0.01679719 -0.01677589 -0.01661834 1000 1000 1000 -0.01711032 -0.01710684 -0.01692239 -0.01664002 -0.01696612 1000 -0.01711032 -0.01710684 -0.01692239 -0.01664002 -0.01696612 1000
lala 5 1.2 1 second 15 1 140 5 4.25 0.979997396469116 0 1 1 0 -0.01768889 -0.01616339 -0.01501682 -0.01536984 -0.01506469 1000 -0.01768889 -0.01616339 -0.01501682 -0.01536984 -0.01506469 1000 -0.01167833 -0.01263343 -0.01354803 -0.01428797 -0.01418352 1000 -0.01167833 -0.01263343 -0.01354803 -0.01428797 -0.01418352 1000
lala 10 0.6 0 first 0 1 141 4 3.24 0.519997835159302 -1 0 -1 0 -0.01548042 -0.01419193 -0.01339791 1000 1000 1000 -0.01548042 -0.01419193 -0.01339791 1000 1000 1000 -0.01101333 -0.009480326 -0.01064734 -0.01094367 -0.0121826 1000 -0.01101333 -0.009480326 -0.01064734 -0.01094367 -0.0121826 1000
lala 13 0.3 1 second 12 1 142 4 3.84 0.559997797012329 0 0 1 0 -0.01837562 -0.01753375 -0.01805937 -0.02017208 -0.02062092 1000 -0.01837562 -0.01753375 -0.01805937 -0.02017208 -0.02062092 1000 -0.01189641 -0.01137874 -0.01168191 -0.01255709 -0.01346566 1000 -0.01189641 -0.01137874 -0.01168191 -0.01255709 -0.01346566 1000
lala 7 1.2 0 first 2 1 143 5 3.3 0.339998006820679 -1 0 -1 0 -0.01531522 -0.01486648 -0.01472897 1000 1000 1000 -0.01531522 -0.01486648 -0.01472897 1000 1000 1000 -0.01094016 -0.01017582 -0.009187163 -0.009376184 -0.009823566 1000 -0.01094016 -0.01017582 -0.009187163 -0.009376184 -0.009823566 1000
lala 11 0.6 1 second 0 1 144 4 3.84 0.459997892379761 -1 0 1 0 -0.01051339 -0.009808713 -0.00975528 -0.01003171 -0.01048684 1000 -0.01051339 -0.009808713 -0.00975528 -0.01003171 -0.01048684 1000 -0.01409217 -0.01250236 -0.01163843 -0.01142158 -0.0110313 1000 -0.01409217 -0.01250236 -0.01163843 -0.01142158 -0.0110313 1000
lala 6 1.2 0 second 15 1 145 5 3.05 0.459997892379761 0 1 -1 1 -0.008558964 -0.008319802 -0.007400579 -0.007886713 -0.008096551 1000 -0.008558964 -0.008319802 -0.007400579 -0.007886713 -0.008096551 1000 -0.007893842 -0.008118354 -0.008475894 -0.008381657 -0.00867675 1000 -0.007893842 -0.008118354 -0.008475894 -0.008381657 -0.00867675 1000
lala 15 0.3 1 second 8 1 146 5 4.65 0.319998025894165 1 0 1 1 -0.008684248 -0.009257828 -0.009765432 -0.01031561 -0.01019506 1000 -0.008684248 -0.009257828 -0.009765432 -0.01031561 -0.01019506 1000 -0.009884361 -0.009027727 -0.009450978 -0.009960894 -0.009657801 1000 -0.009884361 -0.009027727 -0.009450978 -0.009960894 -0.009657801 1000
lala 8 1.2 1 first 13 1 147 4 4.12 0.299998044967651 0 1 1 1 -0.01087488 -0.0121908 -0.01102921 1000 1000 1000 -0.01087488 -0.0121908 -0.01102921 1000 1000 1000 -0.00952318 -0.01045904 -0.01050302 -0.01057379 -0.009656238 1000 -0.00952318 -0.01045904 -0.01050302 -0.01057379 -0.009656238 1000
lala 8 1.2 0 second 9 1 148 5 3.05 0.899997472763062 1 1 -1 0 -0.009217049 -0.009475736 -0.009048674 -0.008771718 -0.009435213 1000 -0.009217049 -0.009475736 -0.009048674 -0.008771718 -0.009435213 1000 -0.00998974 -0.0127039 -0.01011411 -0.01039418 -0.01107303 1000 -0.00998974 -0.0127039 -0.01011411 -0.01039418 -0.01107303 1000
lala 7 1.2 0 first 3 1 149 5 4.25 0.959997415542603 -1 1 -1 0 -0.01000541 -0.009380485 -0.009674873 1000 1000 1000 -0.01000541 -0.009380485 -0.009674873 1000 1000 1000 -0.009473547 -0.00896089 -0.00869884 -0.008243743 -0.008077517 1000 -0.009473547 -0.00896089 -0.00869884 -0.008243743 -0.008077517 1000
lala 12 0.15 1 second 10 1 150 6 4.41 0.159998178482056 1 0 1 1 -0.0171552 -0.01117804 -0.01183563 -0.01161255 -0.01086832 1000 -0.0171552 -0.01117804 -0.01183563 -0.01161255 -0.01086832 1000 -0.01479926 -0.01565745 -0.01696714 -0.01690775 -0.0157856 1000 -0.01479926 -0.01565745 -0.01696714 -0.01690775 -0.0157856 1000
lala 8 1.2 1 first 3 1 151 5 5.45 0.899997472763062 -1 1 1 1 -0.01888187 -0.01740932 -0.01819128 1000 1000 1000 -0.01888187 -0.01740932 -0.01819128 1000 1000 1000 -0.0242015 -0.02292777 -0.0219707 -0.02206989 -0.02177503 1000 -0.0242015 -0.02292777 -0.0219707 -0.02206989 -0.02177503 1000
lala 9 1.2 0 second 13 1 152 4 2.92 0.39999794960022 0 1 -1 0 -0.02120893 -0.02092905 -0.02092685 -0.02065726 -0.02097338 1000 -0.02120893 -0.02092905 -0.02092685 -0.02065726 -0.02097338 1000 -0.02033467 -0.0203397 -0.0202863 -0.02027255 -0.02013196 1000 -0.02033467 -0.0203397 -0.0202863 -0.02027255 -0.02013196 1000
lala 16 0.6 0 first 8 1 153 5 4.05 0.179998159408569 1 0 -1 0 -0.02077887 -0.01998418 -0.02032271 1000 1000 1000 -0.02077887 -0.01998418 -0.02032271 1000 1000 1000 -0.0188775 -0.01874802 -0.01888368 -0.01869358 -0.01893582 1000 -0.0188775 -0.01874802 -0.01888368 -0.01869358 -0.01893582 1000
lala 13 0.075 1 first 10 1 154 6 4.335 0.259998083114624 1 0 1 1 -0.01989294 -0.01905332 -0.01768805 1000 1000 1000 -0.01989294 -0.01905332 -0.01768805 1000 1000 1000 -0.01838363 -0.01809835 -0.01815099 -0.01865148 -0.01911462 1000 -0.01838363 -0.01809835 -0.01815099 -0.01865148 -0.01911462 1000
lala 7 1.2 1 first 7 1 155 4 5.32 1.47999691963196 1 1 1 0 -0.019633 -0.01943041 -0.01935423 1000 1000 1000 -0.019633 -0.01943041 -0.01935423 1000 1000 1000 -0.01873335 -0.01835835 -0.01776814 -0.01735563 -0.01753788 1000 -0.01873335 -0.01835835 -0.01776814 -0.01735563 -0.01753788 1000
lala 12 0.3 1 first 0 1 156 4 3.54 0.739997625350952 -1 0 1 0 -0.01738606 -0.01673372 -0.01704044 1000 1000 1000 -0.01738606 -0.01673372 -0.01704044 1000 1000 1000 -0.01699987 -0.0171538 -0.01729552 -0.01746207 -0.01713802 1000 -0.01699987 -0.0171538 -0.01729552 -0.01746207 -0.01713802 1000
lala 7 1.2 1 second 4 1 157 6 6.36 0.379997968673706 -1 0 1 1 -0.01782292 -0.01750849 -0.01725249 -0.01703833 -0.01710999 1000 -0.01782292 -0.01750849 -0.01725249 -0.01703833 -0.01710999 1000 -0.01647896 -0.01638285 -0.0159366 -0.01743822 -0.01743985 1000 -0.01647896 -0.01638285 -0.0159366 -0.01743822 -0.01743985 1000
lala 14 0.075 0 first 10 1 158 6 4.26 1.07999730110168 1 0 -1 1 -0.0152181 -0.01488578 -0.01559671 1000 1000 1000 -0.0152181 -0.01488578 -0.01559671 1000 1000 1000 -0.01615616 -0.01673151 -0.01705883 -0.01737791 -0.01724045 1000 -0.01615616 -0.01673151 -0.01705883 -0.01737791 -0.01724045 1000
lala 10 1.2 0 second 5 1 159 6 1.980001 0.479997873306274 -1 1 -1 0 -0.02149354 -0.0219755 -0.02195732 -0.02121623 -0.02095973 1000 -0.02149354 -0.0219755 -0.02195732 -0.02121623 -0.02095973 1000 -0.019829 -0.0193556 -0.01955813 -0.0196254 -0.01990378 1000 -0.019829 -0.0193556 -0.01955813 -0.0196254 -0.01990378 1000
lala 8 1.2 1 first 11 1 160 6 6.780001 0.539997816085815 1 1 1 1 -0.01969887 -0.01865498 -0.01755005 1000 1000 1000 -0.01969887 -0.01865498 -0.01755005 1000 1000 1000 -0.01699444 -0.01574228 -0.01640127 -0.0171156 -0.01759657 1000 -0.01699444 -0.01574228 -0.01640127 -0.0171156 -0.01759657 1000
lala 14 0.3 0 first 12 1 161 4 3.54 3.4799952507019 0 0 -1 1 -0.01807688 -0.0206619 -0.02184015 1000 1000 1000 -0.01807688 -0.0206619 -0.02184015 1000 1000 1000 -0.02629853 -0.02633379 -0.02242141 -0.0181162 -0.017478 1000 -0.02629853 -0.02633379 -0.02242141 -0.0181162 -0.017478 1000
lala 9 1.2 1 second 11 1 162 6 5.580001 1.15999722480774 1 1 1 0 -0.02407481 -0.02276901 -0.02035135 -0.02104596 -0.02299147 1000 -0.02407481 -0.02276901 -0.02035135 -0.02104596 -0.02299147 1000 -0.01329672 -0.01291617 -0.01043573 -0.01250145 -0.01384499 1000 -0.01329672 -0.01291617 -0.01043573 -0.01250145 -0.01384499 1000
lala 9 1.2 0 first 17 1 163 6 3.180001 0.279998064041138 0 1 -1 0 -0.00948617 -0.001118358 -0.003838118 1000 1000 1000 -0.00948617 -0.001118358 -0.003838118 1000 1000 1000 -0.01751969 -0.01583143 -0.01811704 -0.02054286 -0.02318398 1000 -0.01751969 -0.01583143 -0.01811704 -0.02054286 -0.02318398 1000
lala 10 0.6 1 first 16 1 164 6 5.76 0.359997987747192 0 0 1 1 -0.02129792 -0.02320586 -0.02034171 1000 1000 1000 -0.02129792 -0.02320586 -0.02034171 1000 1000 1000 -0.01289354 -0.01364258 -0.01543531 -0.01583716 -0.01763042 1000 -0.01289354 -0.01364258 -0.01543531 -0.01583716 -0.01763042 1000
lala 8 1.2 0 first 2 1 165 5 4.5 0.379997968673706 -1 0 -1 0 -0.02515667 -0.026676 -0.02592905 1000 1000 1000 -0.02515667 -0.026676 -0.02592905 1000 1000 1000 -0.02401833 -0.02372847 -0.02404501 -0.02520803 -0.02615159 1000 -0.02401833 -0.02372847 -0.02404501 -0.02520803 -0.02615159 1000
lala 10 0.6 0 second 17 1 166 6 3.780001 0.499997854232788 0 1 -1 0 -0.02346074 -0.02541007 -0.02631107 -0.02558905 -0.02525004 1000 -0.02346074 -0.02541007 -0.02631107 -0.02558905 -0.02525004 1000 -0.02528169 -0.02491077 -0.02459193 -0.02370831 -0.02398349 1000 -0.02528169 -0.02491077 -0.02459193 -0.02370831 -0.02398349 1000
lala 15 0.15 0 second 12 1 167 4 3.69 0.759997606277466 0 0 -1 1 -0.02536743 -0.02714954 -0.02892368 -0.02631261 -0.02354665 1000 -0.02536743 -0.02714954 -0.02892368 -0.02631261 -0.02354665 1000 -0.02107888 -0.02304716 -0.02467928 -0.02536228 -0.02654965 1000 -0.02107888 -0.02304716 -0.02467928 -0.02536228 -0.02654965 1000
lala 9 1.2 1 second 9 1 168 5 4.25 0.279998064041138 1 1 1 1 -0.028728 -0.02917354 -0.02977457 -0.03039993 -0.02986732 1000 -0.028728 -0.02917354 -0.02977457 -0.03039993 -0.02986732 1000 -0.02802138 -0.02873593 -0.02892708 -0.02813661 -0.02867371 1000 -0.02802138 -0.02873593 -0.02892708 -0.02813661 -0.02867371 1000
lala 10 0.6 1 second 9 1 169 5 3.65 0.459997892379761 1 1 1 1 -0.02354547 -0.02138351 -0.01975397 -0.01904367 -0.01910256 1000 -0.02354547 -0.02138351 -0.01975397 -0.01904367 -0.01910256 1000 -0.02398297 -0.02543862 -0.02518971 -0.0245593 -0.0241566 1000 -0.02398297 -0.02543862 -0.02518971 -0.0245593 -0.0241566 1000
lala 11 0.6 1 second 17 1 170 6 4.380001 1.73999691009521 0 1 1 0 -0.02353306 -0.02786257 -0.03059161 -0.03057917 -0.02886975 1000 -0.02353306 -0.02786257 -0.03059161 -0.03057917 -0.02886975 1000 -0.01934236 -0.01994772 -0.02034039 -0.02092617 -0.02324156 1000 -0.01934236 -0.01994772 -0.02034039 -0.02092617 -0.02324156 1000
lala 7 1.2 1 first 14 1 171 5 5.7 0.259998083114624 0 0 1 1 -0.02039168 -0.02153407 -0.02142427 1000 1000 1000 -0.02039168 -0.02153407 -0.02142427 1000 1000 1000 -0.0174837 -0.01772001 -0.01779192 -0.01798022 -0.01815022 1000 -0.0174837 -0.01772001 -0.01779192 -0.01798022 -0.01815022 1000
lala 15 0.0375 0 second 10 1 172 6 4.2975 0.359997987747192 1 0 -1 1 -0.01176594 -0.01275158 -0.01270353 -0.01325791 -0.01353449 1000 -0.01176594 -0.01275158 -0.01270353 -0.01325791 -0.01353449 1000 -0.01171314 -0.01335303 -0.01437906 -0.01508832 -0.01516552 1000 -0.01171314 -0.01335303 -0.01437906 -0.01508832 -0.01516552 1000
lala 11 0.6 0 second 5 1 173 6 2.580001 0.959997415542603 -1 1 -1 0 -0.01766643 -0.01781689 -0.01788949 -0.01807662 -0.01750345 1000 -0.01766643 -0.01781689 -0.01788949 -0.01807662 -0.01750345 1000 -0.01827667 -0.01824017 -0.01719791 -0.01750285 -0.01801277 1000 -0.01827667 -0.01824017 -0.01719791 -0.01750285 -0.01801277 1000
lala 11 0.6 0 first 9 1 174 5 3.05 0.499997854232788 1 1 -1 1 -0.02122141 -0.02100222 -0.02018741 1000 1000 1000 -0.02122141 -0.02100222 -0.02018741 1000 1000 1000 -0.02226493 -0.02189347 -0.02157472 -0.02158936 -0.02191776 1000 -0.02226493 -0.02189347 -0.02157472 -0.02158936 -0.02191776 1000
lala 9 1.2 1 second 2 1 175 5 5.7 0.259998083114624 -1 0 1 0 -0.02154561 -0.0210885 -0.02130249 -0.021633 -0.02249722 1000 -0.02154561 -0.0210885 -0.02130249 -0.021633 -0.02249722 1000 -0.02094725 -0.02100072 -0.02190882 -0.0220911 -0.02274169 1000 -0.02094725 -0.02100072 -0.02190882 -0.0220911 -0.02274169 1000
lala 8 1.2 1 second 4 1 176 6 5.16 0.219998121261597 -1 0 1 1 -0.02295842 -0.02302506 -0.02310723 -0.02361134 -0.02386078 1000 -0.02295842 -0.02302506 -0.02310723 -0.02361134 -0.02386078 1000 -0.02300602 -0.02176484 -0.02101189 -0.02165443 -0.02205035 1000 -0.02300602 -0.02176484 -0.02101189 -0.02165443 -0.02205035 1000
lala 13 0.3 0 first 0 1 177 4 3.24 0.339998006820679 -1 0 -1 0 -0.02286248 -0.02277505 -0.02319252 1000 1000 1000 -0.02286248 -0.02277505 -0.02319252 1000 1000 1000 -0.02097641 -0.02240543 -0.02270519 -0.02243947 -0.02219311 1000 -0.02097641 -0.02240543 -0.02270519 -0.02243947 -0.02219311 1000
lala 16 0.0375 0 second 10 1 178 6 4.335 0.419997930526733 1 0 -1 1 -0.02033311 -0.02133071 -0.02100624 -0.02012079 -0.01984143 1000 -0.02033311 -0.02133071 -0.02100624 -0.02012079 -0.01984143 1000 -0.02174424 -0.0214213 -0.02179628 -0.02191938 -0.02208896 1000 -0.02174424 -0.0214213 -0.02179628 -0.02191938 -0.02208896 1000
lala 12 0.3 0 first 9 1 179 5 3.35 2.95999574661255 1 1 -1 1 -0.02145895 -0.02154174 -0.02170224 1000 1000 1000 -0.02145895 -0.02154174 -0.02170224 1000 1000 1000 -0.02056411 -0.02000998 -0.02081419 -0.02134364 -0.02161659 1000 -0.02056411 -0.02000998 -0.02081419 -0.02134364 -0.02161659 1000
lala 13 0.3 1 first 9 1 180 5 3.65 0.519997835159302 1 1 1 0 -0.02311923 -0.02190439 -0.0214853 1000 1000 1000 -0.02311923 -0.02190439 -0.0214853 1000 1000 1000 -0.02342868 -0.02255603 -0.02155098 -0.02174772 -0.02203093 1000 -0.02342868 -0.02255603 -0.02155098 -0.02174772 -0.02203093 1000
lala 10 0.6 1 second 13 1 181 4 3.52 0.779997587203979 0 1 1 0 -0.02065549 -0.02034135 -0.02076883 -0.02049826 -0.02047618 1000 -0.02065549 -0.02034135 -0.02076883 -0.02049826 -0.02047618 1000 -0.02077905 -0.02068727 -0.02077721 -0.02086353 -0.02065341 1000 -0.02077905 -0.02068727 -0.02077721 -0.02086353 -0.02065341 1000
lala 16 0.15 0 first 12 1 182 4 3.84 0.859997510910034 0 0 -1 0 -0.02127451 -0.02106291 -0.02102412 1000 1000 1000 -0.02127451 -0.02106291 -0.02102412 1000 1000 1000 -0.02014998 -0.02003679 -0.01994231 -0.0205427 -0.02078295 1000 -0.02014998 -0.02003679 -0.01994231 -0.0205427 -0.02078295 1000
lala 9 1.2 1 first 4 1 183 6 3.96 2.13999652862549 -1 0 1 0 -0.02080388 -0.01848631 -0.01796483 1000 1000 1000 -0.02080388 -0.01848631 -0.01796483 1000 1000 1000 -0.02226084 -0.02153241 -0.02154963 -0.02148711 -0.02169745 1000 -0.02226084 -0.02153241 -0.02154963 -0.02148711 -0.02169745 1000
lala 14 0.15 0 first 9 1 184 5 3.5 1.41999697685242 1 1 -1 0 -0.02308769 -0.0234574 -0.02364571 1000 1000 1000 -0.02308769 -0.0234574 -0.02364571 1000 1000 1000 -0.02200047 -0.02224205 -0.02211966 -0.02246681 -0.02217478 1000 -0.02200047 -0.02224205 -0.02211966 -0.02246681 -0.02217478 1000
lala 6 1.2 1 first 1 1 185 4 4.12 0.379997968673706 -1 1 1 1 -0.02379268 -0.02339762 -0.02444797 1000 1000 1000 -0.02379268 -0.02339762 -0.02444797 1000 1000 1000 -0.02220761 -0.02195195 -0.02094012 -0.02006733 -0.01947363 1000 -0.02220761 -0.02195195 -0.02094012 -0.02006733 -0.01947363 1000
lala 14 0.15 0 first 0 1 186 4 3.39 0.499997854232788 -1 0 -1 0 -0.02049899 -0.02064333 -0.0202123 1000 1000 1000 -0.02049899 -0.02064333 -0.0202123 1000 1000 1000 -0.01816479 -0.01816083 -0.01872949 -0.02040262 -0.02088741 1000 -0.01816479 -0.01816083 -0.01872949 -0.02040262 -0.02088741 1000
lala 10 0.6 1 first 2 1 187 5 5.1 0.319998025894165 -1 0 1 0 -0.01994327 -0.02013169 -0.02034547 1000 1000 1000 -0.01994327 -0.02013169 -0.02034547 1000 1000 1000 -0.0201268 -0.02010418 -0.01931273 -0.01859184 -0.01845207 1000 -0.0201268 -0.02010418 -0.01931273 -0.01859184 -0.01845207 1000
lala 15 0.15 1 first 0 1 188 4 3.54 0.639997720718384 -1 0 1 1 -0.01886888 -0.0185493 -0.01853233 1000 1000 1000 -0.01886888 -0.0185493 -0.01853233 1000 1000 1000 -0.01753015 -0.01745231 -0.01728698 -0.01747771 -0.01739336 1000 -0.01753015 -0.01745231 -0.01728698 -0.01747771 -0.01739336 1000
lala 7 1.2 0 first 15 1 189 5 4.25 0.419997930526733 0 1 -1 0 -0.01755238 -0.01760723 -0.01657343 1000 1000 1000 -0.01755238 -0.01760723 -0.01657343 1000 1000 1000 -0.01460067 -0.01499066 -0.01517253 -0.0150522 -0.01534286 1000 -0.01460067 -0.01499066 -0.01517253 -0.0150522 -0.01534286 1000
lala 8 1.2 1 second 15 1 190 5 5.45 0.199998140335083 0 1 1 1 -0.01456873 -0.0146501 -0.01476664 -0.0154813 -0.017 1000 -0.01456873 -0.0146501 -0.01476664 -0.0154813 -0.017 1000 -0.01554151 -0.01586146 -0.01622267 -0.01655659 -0.01700414 1000 -0.01554151 -0.01586146 -0.01622267 -0.01655659 -0.01700414 1000
lala 17 0.15 0 first 12 1 191 4 3.99 0.499997854232788 0 0 -1 0 -0.01656078 -0.01656298 -0.01628012 1000 1000 1000 -0.01656078 -0.01656298 -0.01628012 1000 1000 1000 -0.01298347 -0.01261053 -0.01315057 -0.01318466 -0.01389998 1000 -0.01298347 -0.01261053 -0.01315057 -0.01318466 -0.01389998 1000
lala 9 1.2 1 second 15 1 192 5 4.25 0.199998140335083 0 1 1 1 -0.01357806 -0.01389077 -0.01393774 -0.0136023 -0.01371527 1000 -0.01357806 -0.01389077 -0.01393774 -0.0136023 -0.01371527 1000 -0.0130889 -0.01308376 -0.0132628 -0.01337239 -0.01348456 1000 -0.0130889 -0.01308376 -0.0132628 -0.01337239 -0.01348456 1000
lala 17 0.3 0 first 8 1 193 5 4.35 0.899997472763062 1 0 -1 0 -0.01301106 -0.01264644 -0.01268952 1000 1000 1000 -0.01301106 -0.01264644 -0.01268952 1000 1000 1000 -0.02297274 -0.02325478 -0.02201655 -0.02089428 -0.02013685 1000 -0.02297274 -0.02325478 -0.02201655 -0.02089428 -0.02013685 1000
lala 18 0.3 1 first 8 1 194 5 4.65 0.579997777938843 1 0 1 1 -0.015478 -0.01613579 -0.01662303 1000 1000 1000 -0.015478 -0.01613579 -0.01662303 1000 1000 1000 -0.01482551 -0.01466836 -0.01419251 -0.01373844 -0.01335881 1000 -0.01482551 -0.01466836 -0.01419251 -0.01373844 -0.01335881 1000
lala 8 1.2 0 first 7 1 195 4 4.12 0.219998121261597 1 1 -1 0 -0.01416361 -0.01408876 -0.01341853 1000 1000 1000 -0.01416361 -0.01408876 -0.01341853 1000 1000 1000 -0.01238638 -0.01232522 -0.01213736 -0.01271346 -0.01338494 1000 -0.01238638 -0.01232522 -0.01213736 -0.01271346 -0.01338494 1000
lala 10 2.4 0 second 4 1 196 6 1.98 0.799997568130493 -1 0 -1 0 -0.01224133 -0.01190373 -0.01193905 -0.01225304 -0.01239356 1000 -0.01224133 -0.01190373 -0.01193905 -0.01225304 -0.01239356 1000 -0.01174956 -0.008809322 -0.007057918 -0.007090257 -0.008854702 1000 -0.01174956 -0.008809322 -0.007057918 -0.007090257 -0.008854702 1000
lala 16 0.075 1 first 0 1 197 4 3.465 0.319998025894165 -1 0 1 0 -0.01845144 -0.01793848 -0.01820058 1000 1000 1000 -0.01845144 -0.01793848 -0.01820058 1000 1000 1000 -0.02235619 -0.02266617 -0.02227962 -0.02190824 -0.02130536 1000 -0.02235619 -0.02266617 -0.02227962 -0.02190824 -0.02130536 1000
lala 18 0.3 1 first 12 1 198 4 4.29 0.379997968673706 0 0 1 1 -0.02123501 -0.02104201 -0.02108448 1000 1000 1000 -0.02123501 -0.02104201 -0.02108448 1000 1000 1000 -0.01989342 -0.0201766 -0.02023649 -0.02020219 -0.02032985 1000 -0.01989342 -0.0201766 -0.02023649 -0.02020219 -0.02032985 1000
lala 12 0.6 0 first 5 1 199 6 3.180001 0.299998044967651 -1 1 -1 0 -0.02235297 -0.02217789 -0.0222453 1000 1000 1000 -0.02235297 -0.02217789 -0.0222453 1000 1000 1000 -0.02082227 -0.02227235 -0.02296213 -0.02290513 -0.02325828 1000 -0.02082227 -0.02227235 -0.02296213 -0.02290513 -0.02325828 1000
lala 9 1.2 1 second 3 1 200 5 4.25 0.479997873306274 -1 1 1 0 -0.02066486 -0.0205149 -0.02080469 -0.02318587 -0.01671091 1000 -0.02066486 -0.0205149 -0.02080469 -0.02318587 -0.01671091 1000 -0.01210667 -0.01015442 -0.008540462 -0.01036032 -0.01277093 1000 -0.01210667 -0.01015442 -0.008540462 -0.01036032 -0.01277093 1000
lala 10 1.2 0 second 3 1 201 5 3.05 1.75999689102173 -1 1 -1 0 -0.02136512 -0.01961151 -0.02006523 -0.02104806 -0.02158273 1000 -0.02136512 -0.01961151 -0.02006523 -0.02104806 -0.02158273 1000 -0.02019006 -0.02133969 -0.02152982 -0.02189253 -0.02180229 1000 -0.02019006 -0.02133969 -0.02152982 -0.02189253 -0.02180229 1000
lala 12 0.3 1 second 17 1 202 6 4.080001 0.359997987747192 0 1 1 0 -0.01895209 -0.01872957 -0.0183928 -0.01790099 -0.01834506 1000 -0.01895209 -0.01872957 -0.0183928 -0.01790099 -0.01834506 1000 -0.01964018 -0.01900376 -0.02008363 -0.02018225 -0.01995539 1000 -0.01964018 -0.01900376 -0.02008363 -0.02018225 -0.01995539 1000
lala 17 0.0375 1 second 10 1 203 6 4.3725 0.479997873306274 1 0 1 0 -0.02183156 -0.02248609 -0.02167081 -0.02570923 -0.02756635 1000 -0.02183156 -0.02248609 -0.02167081 -0.02570923 -0.02756635 1000 -0.03401356 -0.03471218 -0.02926161 -0.0268719 -0.02900719 1000 -0.03401356 -0.03471218 -0.02926161 -0.0268719 -0.02900719 1000
lala 15 0.075 0 second 9 1 204 5 3.575 0.599997758865356 1 1 -1 1 -0.01352789 -0.01165581 -0.01363187 -0.01509867 -0.02106233 1000 -0.01352789 -0.01165581 -0.01363187 -0.01509867 -0.02106233 1000 -0.01992098 -0.01943829 -0.01888385 -0.0184627 -0.01822195 1000 -0.01992098 -0.01943829 -0.01888385 -0.0184627 -0.01822195 1000
lala 11 1.2 0 first 4 1 205 6 3.18 1.79999685287476 -1 0 -1 1 -0.02129028 -0.0209655 -0.01922364 1000 1000 1000 -0.02129028 -0.0209655 -0.01922364 1000 1000 1000 -0.01596647 -0.01708833 -0.01820255 -0.01852332 -0.01882441 1000 -0.01596647 -0.01708833 -0.01820255 -0.01852332 -0.01882441 1000
lala 9 1.2 1 second 7 1 206 4 5.32 0.919997453689575 1 1 1 0 -0.00623961 -0.01050198 -0.01008508 -0.0100832 -0.01065042 1000 -0.00623961 -0.01050198 -0.01008508 -0.0100832 -0.01065042 1000 -0.01737906 -0.01924837 -0.02160828 -0.02060651 -0.01848334 1000 -0.01737906 -0.01924837 -0.02160828 -0.02060651 -0.01848334 1000
lala 10 1.2 0 first 11 1 207 6 4.380001 1.25999712944031 1 1 -1 0 -0.01827313 -0.02424096 -0.02233392 1000 1000 1000 -0.01827313 -0.02424096 -0.02233392 1000 1000 1000 -0.01680498 -0.009301485 -0.004710468 -0.004199288 -0.00869544 1000 -0.01680498 -0.009301485 -0.004710468 -0.004199288 -0.00869544 1000
lala 18 0.01875 0 first 10 1 208 6 4.35375 0.519997835159302 1 0 -1 1 -0.008849637 -0.001004198 0.0004361715 1000 1000 1000 -0.008849637 -0.001004198 0.0004361715 1000 1000 1000 -0.006570484 -0.008679621 -0.008860266 -0.008163707 -0.008494273 1000 -0.006570484 -0.008679621 -0.008860266 -0.008163707 -0.008494273 1000
lala 19 0.009375 1 second 10 1 209 6 4.363125 0.499997854232788 1 0 1 1 -0.01418364 -0.01540044 -0.01699652 -0.01636655 -0.01633307 1000 -0.01418364 -0.01540044 -0.01699652 -0.01636655 -0.01633307 1000 -0.0172805 -0.01697949 -0.01668446 -0.01707972 -0.01643587 1000 -0.0172805 -0.01697949 -0.01668446 -0.01707972 -0.01643587 1000
lala 8 1.2 1 second 6 1 210 4 6.24 0.519997835159302 1 0 1 1 -0.01068768 -0.01203828 -0.01429821 -0.01364167 -0.01378446 1000 -0.01068768 -0.01203828 -0.01429821 -0.01364167 -0.01378446 1000 -0.02121251 -0.02026735 -0.01978865 -0.02122071 -0.02161976 1000 -0.02121251 -0.02026735 -0.01978865 -0.02122071 -0.02161976 1000
lala 13 0.6 0 second 5 1 211 6 3.780001 0.439997911453247 -1 1 -1 0 -0.02014254 -0.02033477 -0.02104176 -0.02091088 -0.02032205 1000 -0.02014254 -0.02033477 -0.02104176 -0.02091088 -0.02032205 1000 -0.02199806 -0.02178775 -0.02179358 -0.02237321 -0.02290571 1000 -0.02199806 -0.02178775 -0.02179358 -0.02237321 -0.02290571 1000
lala 11 0.6 1 first 16 1 212 6 5.16 0.179998159408569 0 0 1 1 -0.02295676 -0.02300604 -0.02193578 1000 1000 1000 -0.02295676 -0.02300604 -0.02193578 1000 1000 1000 -0.02038417 -0.02044806 -0.02021596 -0.0206597 -0.02158531 1000 -0.02038417 -0.02044806 -0.02021596 -0.0206597 -0.02158531 1000
lala 12 0.6 1 first 16 1 213 6 4.56 0.579997777938843 0 0 1 0 -0.02255083 -0.02251998 -0.02233579 1000 1000 1000 -0.02255083 -0.02251998 -0.02233579 1000 1000 1000 -0.02270452 -0.02360529 -0.02285315 -0.02221438 -0.02411535 1000 -0.02270452 -0.02360529 -0.02285315 -0.02221438 -0.02411535 1000
lala 10 0.6 1 first 7 1 214 4 4.72 1.29999709129334 1 1 1 0 -0.01822078 -0.01811935 -0.01865989 1000 1000 1000 -0.01822078 -0.01811935 -0.01865989 1000 1000 1000 -0.01735724 -0.01828584 -0.01864903 -0.01782146 -0.01740126 1000 -0.01735724 -0.01828584 -0.01864903 -0.01782146 -0.01740126 1000
lala 8 1.2 0 first 14 1 215 5 4.5 0.519997835159302 0 0 -1 1 -0.01939489 -0.01875048 -0.01785088 1000 1000 1000 -0.01939489 -0.01875048 -0.01785088 1000 1000 1000 -0.01895771 -0.01898923 -0.01887093 -0.01825155 -0.01875486 1000 -0.01895771 -0.01898923 -0.01887093 -0.01825155 -0.01875486 1000
lala 14 1.2 1 second 5 1 216 6 4.98 0.319998025894165 -1 1 1 0 -0.01646125 -0.01732279 -0.01826541 -0.01856178 -0.01845288 1000 -0.01646125 -0.01732279 -0.01826541 -0.01856178 -0.01845288 1000 -0.01841112 -0.01803577 -0.01823177 -0.01796327 -0.01830957 1000 -0.01841112 -0.01803577 -0.01823177 -0.01796327 -0.01830957 1000
lala 13 1.2 0 second 16 1 217 6 3.36 0.479997873306274 0 0 -1 0 -0.01779806 -0.01701073 -0.01651397 -0.01664967 -0.01694593 1000 -0.01779806 -0.01701073 -0.01651397 -0.01664967 -0.01694593 1000 -0.01816108 -0.01836468 -0.01863608 -0.01846002 -0.01842662 1000 -0.01816108 -0.01836468 -0.01863608 -0.01846002 -0.01842662 1000
lala 16 0.075 0 first 9 1 218 5 3.65 1.51999688148499 1 1 -1 0 -0.01524828 -0.01582441 -0.01457378 1000 1000 1000 -0.01524828 -0.01582441 -0.01457378 1000 1000 1000 -0.01912117 -0.0191494 -0.01917177 -0.01924256 -0.01945368 1000 -0.01912117 -0.0191494 -0.01917177 -0.01924256 -0.01945368 1000
lala 13 0.3 1 second 17 1 219 6 3.780001 0.499997854232788 0 1 1 0 -0.01830466 -0.01801733 -0.01836319 -0.01790435 -0.01760664 1000 -0.01830466 -0.01801733 -0.01836319 -0.01790435 -0.01760664 1000 -0.02050276 -0.01919117 -0.01861126 -0.01863912 -0.0188755 1000 -0.02050276 -0.01919117 -0.01861126 -0.01863912 -0.0188755 1000
lala 19 0.15 1 second 8 1 220 5 4.5 0.219998121261597 1 0 1 0 -0.01852572 -0.01928723 -0.01889544 -0.01881919 -0.02006787 1000 -0.01852572 -0.01928723 -0.01889544 -0.01881919 -0.02006787 1000 -0.02042546 -0.02050532 -0.02080885 -0.02063243 -0.02049311 1000 -0.02042546 -0.02050532 -0.02080885 -0.02063243 -0.02049311 1000
lala 11 0.6 1 first 7 1 221 4 4.12 0.899997472763062 1 1 1 1 -0.02088713 -0.02111598 -0.02168852 1000 1000 1000 -0.02088713 -0.02111598 -0.02168852 1000 1000 1000 -0.02106616 -0.02104133 -0.02106109 -0.02111533 -0.02116787 1000 -0.02106616 -0.02104133 -0.02106109 -0.02111533 -0.02116787 1000
lala 17 0.075 0 first 0 1 222 4 3.39 0.319998025894165 -1 0 -1 0 -0.02298938 -0.02301674 -0.02259158 1000 1000 1000 -0.02298938 -0.02301674 -0.02259158 1000 1000 1000 -0.02163771 -0.02170898 -0.02151402 -0.02216727 -0.02259517 1000 -0.02163771 -0.02170898 -0.02151402 -0.02216727 -0.02259517 1000
lala 19 0.15 1 second 12 1 223 4 4.14 0.479997873306274 0 0 1 0 -0.02037448 -0.02104301 -0.02188354 -0.02139307 -0.02074069 1000 -0.02037448 -0.02104301 -0.02188354 -0.02139307 -0.02074069 1000 -0.02129688 -0.02084148 -0.02047531 -0.02028113 -0.02045341 1000 -0.02129688 -0.02084148 -0.02047531 -0.02028113 -0.02045341 1000
lala 20 0.0046875 0 first 10 1 224 6 4.358438 0.839997529983521 1 0 -1 0 -0.02072612 -0.02075863 -0.02050267 1000 1000 1000 -0.02072612 -0.02075863 -0.02050267 1000 1000 1000 -0.01931906 -0.02025868 -0.02066025 -0.01994411 -0.02003683 1000 -0.01931906 -0.02025868 -0.02066025 -0.01994411 -0.02003683 1000
lala 10 1.2 0 first 15 1 225 5 3.05 0.279998064041138 0 1 -1 0 -0.02064386 -0.02000281 -0.02064145 1000 1000 1000 -0.02064386 -0.02000281 -0.02064145 1000 1000 1000 -0.02046135 -0.02078696 -0.02115844 -0.0210903 -0.02071962 1000 -0.02046135 -0.02078696 -0.02115844 -0.0210903 -0.02071962 1000
lala 14 0.6 0 first 16 1 226 6 3.96 0.719997644424438 0 0 -1 1 -0.02082365 -0.02008174 -0.02036184 1000 1000 1000 -0.02082365 -0.02008174 -0.02036184 1000 1000 1000 -0.01873283 -0.01775358 -0.01955354 -0.01907199 -0.0165273 1000 -0.01873283 -0.01775358 -0.01955354 -0.01907199 -0.0165273 1000
lala 14 0.3 0 second 17 1 227 6 3.480001 0.379997968673706 0 1 -1 1 -0.02011404 -0.02014516 -0.02051949 -0.02063816 -0.02088487 1000 -0.02011404 -0.02014516 -0.02051949 -0.02063816 -0.02088487 1000 -0.01988074 -0.01990591 -0.01992828 -0.02041265 -0.02077499 1000 -0.01988074 -0.01990591 -0.01992828 -0.02041265 -0.02077499 1000
lala 15 0.6 1 second 16 1 228 6 4.56 0.519997835159302 0 0 1 1 -0.02103767 -0.02085544 -0.02043011 -0.02028669 -0.02038862 1000 -0.02103767 -0.02085544 -0.02043011 -0.02028669 -0.02038862 1000 -0.02110463 -0.0198305 -0.01936558 -0.01982312 -0.02073672 1000 -0.02110463 -0.0198305 -0.01936558 -0.01982312 -0.02073672 1000
lala 9 1.2 1 second 6 1 229 4 5.04 0.459997892379761 1 0 1 0 -0.02693424 -0.025578 -0.02419723 -0.02380917 -0.02425857 1000 -0.02693424 -0.025578 -0.02419723 -0.02380917 -0.02425857 1000 -0.02169287 -0.02132679 -0.02117487 -0.0218501 -0.02215043 1000 -0.02169287 -0.02132679 -0.02117487 -0.0218501 -0.02215043 1000
lala 12 0.6 0 second 7 1 230 4 3.52 0.39999794960022 1 1 -1 1 -0.02114954 -0.02397252 -0.02512519 -0.02593694 -0.026711 1000 -0.02114954 -0.02397252 -0.02512519 -0.02593694 -0.026711 1000 -0.02277718 -0.02293121 -0.02343346 -0.02381268 -0.02484401 1000 -0.02277718 -0.02293121 -0.02343346 -0.02381268 -0.02484401 1000
lala 9 1.2 1 first 14 1 231 5 5.7 0.279998064041138 0 0 1 1 -0.02608162 -0.02900552 -0.03086269 1000 1000 1000 -0.02608162 -0.02900552 -0.03086269 1000 1000 1000 -0.02784629 -0.02666773 -0.02583833 -0.02554763 -0.02581379 1000 -0.02784629 -0.02666773 -0.02583833 -0.02554763 -0.02581379 1000
lala 13 0.3 0 first 7 1 232 4 3.82 0.359997987747192 1 1 -1 1 -0.02444336 -0.02479379 -0.02510415 1000 1000 1000 -0.02444336 -0.02479379 -0.02510415 1000 1000 1000 -0.02382408 -0.02330031 -0.02235829 -0.02254035 -0.02306382 1000 -0.02382408 -0.02330031 -0.02235829 -0.02254035 -0.02306382 1000
lala 15 0.6 1 second 5 1 233 6 4.380001 0.339998006820679 -1 1 1 1 -0.02438526 -0.02396823 -0.02442555 -0.02455459 -0.02522026 1000 -0.02438526 -0.02396823 -0.02442555 -0.02455459 -0.02522026 1000 -0.02301756 -0.02181248 -0.02264366 -0.02253065 -0.02221411 1000 -0.02301756 -0.02181248 -0.02264366 -0.02253065 -0.02221411 1000
lala 11 0.3 0 second 13 1 234 4 3.22 0.359997987747192 0 1 -1 0 -0.02254377 -0.02306325 -0.02299702 -0.02263005 -0.02096887 1000 -0.02254377 -0.02306325 -0.02299702 -0.02263005 -0.02096887 1000 -0.01733785 -0.0175909 -0.01865308 -0.01985909 -0.02084278 1000 -0.01733785 -0.0175909 -0.01865308 -0.01985909 -0.02084278 1000
lala 21 0.00234375 0 second 10 1 235 6 4.360781 0.319998025894165 1 0 -1 0 -0.0199714 -0.0206919 -0.02082006 -0.02050666 -0.02046209 1000 -0.0199714 -0.0206919 -0.02082006 -0.02050666 -0.02046209 1000 -0.01960271 -0.01898478 -0.01876004 -0.01907033 -0.01957136 1000 -0.01960271 -0.01898478 -0.01876004 -0.01907033 -0.01957136 1000
lala 18 0.0375 0 second 0 1 236 4 3.4275 0.479997873306274 -1 0 -1 1 -0.01914526 -0.01920007 -0.02041322 -0.02018722 -0.01888316 1000 -0.01914526 -0.01920007 -0.02041322 -0.02018722 -0.01888316 1000 -0.0215132 -0.02150057 -0.02212132 -0.02195993 -0.02192842 1000 -0.0215132 -0.02150057 -0.02212132 -0.02195993 -0.02192842 1000
lala 10 1.2 1 first 6 1 237 4 3.84 0.99999737739563 1 0 1 0 -0.02422921 -0.02393761 -0.02441406 1000 1000 1000 -0.02422921 -0.02393761 -0.02441406 1000 1000 1000 -0.02203792 -0.02205132 -0.02147338 -0.02139727 -0.02160777 1000 -0.02203792 -0.02205132 -0.02147338 -0.02139727 -0.02160777 1000
lala 20 0.15 0 first 8 1 238 5 4.35 0.559997797012329 1 0 -1 0 -0.02234623 -0.02262175 -0.02267649 1000 1000 1000 -0.02234623 -0.02262175 -0.02267649 1000 1000 1000 -0.02149995 -0.02199159 -0.02211608 -0.02200381 -0.02188664 1000 -0.02149995 -0.02199159 -0.02211608 -0.02200381 -0.02188664 1000
lala 17 0.075 1 second 9 1 239 5 3.725 0.39999794960022 1 1 1 1 -0.02266196 -0.02224164 -0.02209122 -0.02225687 -0.02235471 1000 -0.02266196 -0.02224164 -0.02209122 -0.02225687 -0.02235471 1000 -0.02498094 -0.02467333 -0.02473426 -0.02501347 -0.02572131 1000 -0.02498094 -0.02467333 -0.02473426 -0.02501347 -0.02572131 1000
lala 15 0.15 0 first 17 1 240 6 3.630001 0.179998159408569 0 1 -1 1 -0.02504186 -0.02532809 -0.02518589 1000 1000 1000 -0.02504186 -0.02532809 -0.02518589 1000 1000 1000 -0.02586481 -0.02523048 -0.02460711 -0.02491026 -0.02535095 1000 -0.02586481 -0.02523048 -0.02460711 -0.02491026 -0.02535095 1000
lala 11 2.4 0 first 6 1 241 4 1.44 0.279998064041138 1 0 -1 1 -0.02443469 -0.02430223 -0.02455679 1000 1000 1000 -0.02443469 -0.02430223 -0.02455679 1000 1000 1000 -0.02312239 -0.02340091 -0.02362632 -0.0236397 -0.0237358 1000 -0.02312239 -0.02340091 -0.02362632 -0.0236397 -0.0237358 1000
lala 20 0.15 1 second 12 1 242 4 3.99 0.459997892379761 0 0 1 0 -0.02407745 -0.02435835 -0.02370141 -0.02349761 -0.02385337 1000 -0.02407745 -0.02435835 -0.02370141 -0.02349761 -0.02385337 1000 -0.02287315 -0.02305564 -0.02335278 -0.02321906 -0.02319701 1000 -0.02287315 -0.02305564 -0.02335278 -0.02321906 -0.02319701 1000
lala 12 0.15 0 second 13 1 243 4 3.37 0.459997892379761 0 1 -1 1 -0.02299587 -0.02213745 -0.02157674 -0.02153396 -0.02187956 1000 -0.02299587 -0.02213745 -0.02157674 -0.02153396 -0.02187956 1000 -0.02096602 -0.02124728 -0.02149947 -0.02290354 -0.02279692 1000 -0.02096602 -0.02124728 -0.02149947 -0.02290354 -0.02279692 1000
lala 22 0.00234375 0 first 10 1 244 6 4.363125 0.679997682571411 1 0 -1 1 -0.02060982 -0.02057252 -0.02094621 1000 1000 1000 -0.02060982 -0.02057252 -0.02094621 1000 1000 1000 -0.01818952 -0.01882086 -0.01943824 -0.02065501 -0.02123055 1000 -0.01818952 -0.01882086 -0.01943824 -0.02065501 -0.02123055 1000
lala 12 1.2 1 second 4 1 245 6 4.38 0.339998006820679 -1 0 1 0 -0.024075 -0.02433973 -0.02433042 -0.02367493 -0.02320924 1000 -0.024075 -0.02433973 -0.02433042 -0.02367493 -0.02320924 1000 -0.02166091 -0.02132228 -0.02148747 -0.02207182 -0.02221209 1000 -0.02166091 -0.02132228 -0.02148747 -0.02207182 -0.02221209 1000
lala 18 0.0375 1 second 9 1 246 5 3.6875 0.419997930526733 1 1 1 0 -0.02257762 -0.02295649 -0.02307758 -0.02394339 -0.02431335 1000 -0.02257762 -0.02295649 -0.02307758 -0.02394339 -0.02431335 1000 -0.02209035 -0.02249681 -0.02343357 -0.02381793 -0.02392329 1000 -0.02209035 -0.02249681 -0.02343357 -0.02381793 -0.02392329 1000
lala 10 0.6 0 first 14 1 247 5 5.1 3.13999557495117 0 0 -1 0 -0.02422725 -0.02315728 -0.02253206 1000 1000 1000 -0.02422725 -0.02315728 -0.02253206 1000 1000 1000 -0.02476435 -0.02369738 -0.02276804 -0.0240759 -0.0240033 1000 -0.02476435 -0.02369738 -0.02276804 -0.0240759 -0.0240033 1000
lala 16 0.3 1 first 16 1 248 6 4.26 0.419997930526733 0 0 1 0 -0.02093522 -0.01605215 -0.01469085 1000 1000 1000 -0.02093522 -0.01605215 -0.01469085 1000 1000 1000 -0.01578778 -0.0155711 -0.0154922 -0.01562954 -0.0161018 1000 -0.01578778 -0.0155711 -0.0154922 -0.01562954 -0.0161018 1000
lala 21 0.15 1 first 12 1 249 4 3.84 0.479997873306274 0 0 1 0 -0.01028365 -0.009830228 -0.01128215 1000 1000 1000 -0.01028365 -0.009830228 -0.01128215 1000 1000 1000 -0.003856556 -0.004514819 -0.004276259 -0.004373885 -0.004213467 1000 -0.003856556 -0.004514819 -0.004276259 -0.004373885 -0.004213467 1000
lala 19 0.0375 0 first 9 1 250 5 3.65 0.0399982929229736 1 1 -1 1 -0.006762577 -0.005399002 -0.006363038 -0.003378966 -0.001471827 -0.002411902 -0.006762577 -0.005399002 -0.006363038 -0.003378966 -0.001471827 -0.002411902 0.0001114988 -0.0001148899 -4.427365E-05 -0.0002228688 -0.0001290572 1000 0.0001114988 -0.0001148899 -4.427365E-05 -0.0002228688 -0.0001290572 1000
lala 11 0.6 1 first 15 1 251 5 3.65 0.379997968673706 0 1 1 1 3.774176E-05 0.0007141037 0.0009991841 1000 1000 1000 3.774176E-05 0.0007141037 0.0009991841 1000 1000 1000 0.0009541818 0.0004599428 0.001004167 0.001194627 0.001311461 1000 0.0009541818 0.0004599428 0.001004167 0.001194627 0.001311461 1000
lala 13 0.6 1 second 4 1 252 6 3.78 0.0999982357025146 -1 0 1 0 0.0006855848 0.000960008 0.000980188 0.001169957 0.000737806 1000 0.0006855848 0.000960008 0.000980188 0.001169957 0.000737806 1000 0.003248682 0.002539748 0.002040913 0.00154499 0.001363002 1000 0.003248682 0.002539748 0.002040913 0.00154499 0.001363002 1000
lala 22 0.3 0 first 12 1 253 4 3.54 0.459997892379761 0 0 -1 1 0.001523966 0.002054245 0.002033311 1000 1000 1000 0.001523966 0.002054245 0.002033311 1000 1000 1000 0.001657809 0.001072944 0.001966229 0.005025245 0.006451229 1000 0.001657809 0.001072944 0.001966229 0.005025245 0.006451229 1000
lala 11 0.6 1 second 3 1 254 5 3.65 0.259998083114624 -1 1 1 1 0.008184955 0.007222559 0.007725951 0.008344173 0.009578729 1000 0.008184955 0.007222559 0.007725951 0.008344173 0.009578729 1000 0.008253083 0.007549642 0.006845883 0.007173962 0.007789277 1000 0.008253083 0.007549642 0.006845883 0.007173962 0.007789277 1000
lala 11 0.6 1 second 11 1 255 6 4.980001 0.859997510910034 1 1 1 1 0.007597465 0.008505978 0.008653304 0.00704423 0.002648341 1000 0.007597465 0.008505978 0.008653304 0.00704423 0.002648341 1000 0.0008653636 -0.0003204696 -0.0001236602 0.000561218 0.001503079 1000 0.0008653636 -0.0003204696 -0.0001236602 0.000561218 0.001503079 1000
lala 11 0.3 1 second 14 1 256 5 5.4 0.599997758865356 0 0 1 0 0.002868676 0.001337592 -0.005662788 -0.008100348 -0.008457591 1000 0.002868676 0.001337592 -0.005662788 -0.008100348 -0.008457591 1000 -0.01609362 -0.01389907 -0.01123628 -0.01173536 -0.01139466 1000 -0.01609362 -0.01389907 -0.01123628 -0.01173536 -0.01139466 1000
lala 16 0.15 1 second 17 1 257 6 3.780001 0.959997415542603 0 1 1 0 -0.002407038 -0.002012529 -0.002232191 -0.001873081 -0.002603744 1000 -0.002407038 -0.002012529 -0.002232191 -0.001873081 -0.002603744 1000 -0.002414048 -0.001647142 -0.002966057 -0.001482867 0.0002354254 1000 -0.002414048 -0.001647142 -0.002966057 -0.001482867 0.0002354254 1000
lala 11 0.6 0 first 2 1 258 5 4.5 0.379997968673706 -1 0 -1 0 -0.003849724 -0.003903447 -0.004427482 1000 1000 1000 -0.003849724 -0.003903447 -0.004427482 1000 1000 1000 -0.004127073 -0.003874628 -0.003892809 -0.004926306 -0.004752464 1000 -0.004127073 -0.003874628 -0.003892809 -0.004926306 -0.004752464 1000
lala 12 0.3 0 second 3 1 259 5 3.35 0.799997568130493 -1 1 -1 1 -0.007470214 -0.007274908 -0.007337995 -0.007471947 -0.007497457 1000 -0.007470214 -0.007274908 -0.007337995 -0.007471947 -0.007497457 1000 -0.006185068 -0.006729899 -0.006118608 -0.006052915 -0.007106501 1000 -0.006185068 -0.006729899 -0.006118608 -0.006052915 -0.007106501 1000
lala 23 0.00234375 0 first 10 1 260 6 4.365469 0.539997816085815 1 0 -1 0 -0.005698328 -0.004407593 -0.005339979 1000 1000 1000 -0.005698328 -0.004407593 -0.005339979 1000 1000 1000 -0.005341323 -0.004805127 -0.004439229 -0.004178075 -0.003803224 1000 -0.005341323 -0.004805127 -0.004439229 -0.004178075 -0.003803224 1000
lala 17 0.3 1 second 16 1 261 6 3.96 1.35999703407288 0 0 1 0 -0.004101707 -0.004130723 -0.004173319 -0.003564512 -0.002801785 1000 -0.004101707 -0.004130723 -0.004173319 -0.003564512 -0.002801785 1000 -0.005138944 -0.004268304 -0.004174058 -0.004280494 -0.003924867 1000 -0.005138944 -0.004268304 -0.004174058 -0.004280494 -0.003924867 1000
lala 13 0.15 1 second 13 1 262 4 3.52 0.539997816085815 0 1 1 0 -0.00428334 -0.003487261 -0.002402602 -0.002668498 -0.001656286 1000 -0.00428334 -0.003487261 -0.002402602 -0.002668498 -0.001656286 1000 -0.002668458 -0.003521355 -0.002932273 -0.0026271 -0.002561933 1000 -0.002668458 -0.003521355 -0.002932273 -0.0026271 -0.002561933 1000
lala 13 0.15 0 first 3 1 263 5 3.5 1.03999733924866 -1 1 -1 1 -0.00197585 -0.002442347 -0.002661546 1000 1000 1000 -0.00197585 -0.002442347 -0.002661546 1000 1000 1000 -0.001100431 0.001275601 0.00305216 0.00358794 0.00376889 1000 -0.001100431 0.001275601 0.00305216 0.00358794 0.00376889 1000
lala 12 1.2 0 second 6 1 264 4 2.64 0.839997529983521 1 0 -1 0 0.0009626352 0.0008406885 0.0005296739 0.001495527 0.001254419 1000 0.0009626352 0.0008406885 0.0005296739 0.001495527 0.001254419 1000 -0.0003106867 0.0004519859 0.000283356 -3.194303E-06 0.0003956928 1000 -0.0003106867 0.0004519859 0.000283356 -3.194303E-06 0.0003956928 1000
lala 21 0.075 1 first 8 1 265 5 4.425 0.439997911453247 1 0 1 1 8.140624E-05 0.001203133 0.002334305 1000 1000 1000 8.140624E-05 0.001203133 0.002334305 1000 1000 1000 -0.001259741 -0.001335866 -0.0005400883 -0.0003019352 4.873119E-05 1000 -0.001259741 -0.001335866 -0.0005400883 -0.0003019352 4.873119E-05 1000
lala 14 0.3 1 second 7 1 266 4 4.12 1.03999733924866 1 1 1 1 -0.001187787 -0.0009223032 -0.001240318 -0.001319251 -0.001432522 1000 -0.001187787 -0.0009223032 -0.001240318 -0.001319251 -0.001432522 1000 -0.007864537 -0.006643647 -0.004242184 -0.00361038 -0.00376969 1000 -0.007864537 -0.006643647 -0.004242184 -0.00361038 -0.00376969 1000
lala 12 0.3 1 first 2 1 267 5 4.8 1.11999726295471 -1 0 1 0 -0.003083088 -0.00284407 -0.002641069 1000 1000 1000 -0.003083088 -0.00284407 -0.002641069 1000 1000 1000 -0.003493537 0.003442955 0.002945327 0.002458056 0.002458951 1000 -0.003493537 0.003442955 0.002945327 0.002458056 0.002458951 1000
lala 13 1.2 1 second 6 1 268 4 3.84 0.699997663497925 1 0 1 0 -0.003027694 -0.003560829 -0.003461101 -0.002776818 -0.002753701 1000 -0.003027694 -0.003560829 -0.003461101 -0.002776818 -0.002753701 1000 -0.003679425 -0.001749511 -0.001195491 -0.002050414 -0.001949762 1000 -0.003679425 -0.001749511 -0.001195491 -0.002050414 -0.001949762 1000
lala 14 0.15 0 second 3 1 269 5 3.65 1.23999714851379 -1 1 -1 0 -0.00565495 -0.005807574 -0.006175031 -0.006023389 -0.005353554 1000 -0.00565495 -0.005807574 -0.006175031 -0.006023389 -0.005353554 1000 -0.004860485 -0.004362682 -0.003665726 -0.003100877 -0.004147279 1000 -0.004860485 -0.004362682 -0.003665726 -0.003100877 -0.004147279 1000
lala 24 0.0046875 1 second 10 1 270 6 4.370156 0.419997930526733 1 0 1 1 -0.00331248 -0.004130519 -0.004008794 -0.004106203 -0.003919136 1000 -0.00331248 -0.004130519 -0.004008794 -0.004106203 -0.003919136 1000 -0.004909417 -0.004645469 -0.003825675 -0.003485231 -0.003895268 1000 -0.004909417 -0.004645469 -0.003825675 -0.003485231 -0.003895268 1000
lala 19 0.0375 0 second 0 1 271 4 3.465 0.779997587203979 -1 0 -1 0 -0.003609637 -0.002426659 -0.001880147 -0.001720636 -0.002293811 1000 -0.003609637 -0.002426659 -0.001880147 -0.001720636 -0.002293811 1000 0.0002240599 -0.0002447974 0.0003085703 0.0008965581 0.001638826 1000 0.0002240599 -0.0002447974 0.0003085703 0.0008965581 0.001638826 1000
lala 17 0.075 1 second 17 1 272 6 3.705001 0.939997434616089 0 1 1 0 0.001416766 0.001036264 0.00119323 0.002577698 -0.003300062 1000 0.001416766 0.001036264 0.00119323 0.002577698 -0.003300062 1000 -0.0002197009 0.0003952261 -0.0008579143 -0.001512824 0.0003390303 1000 -0.0002197009 0.0003952261 -0.0008579143 -0.001512824 0.0003390303 1000
lala 23 0.15 0 first 12 1 273 4 3.69 0.39999794960022 0 0 -1 1 -0.005907508 -0.005402891 -0.005000286 1000 1000 1000 -0.005907508 -0.005402891 -0.005000286 1000 1000 1000 -0.005040686 -0.005126738 -0.005393284 -0.004130329 -0.004930616 1000 -0.005040686 -0.005126738 -0.005393284 -0.004130329 -0.004930616 1000
lala 20 0.0375 1 second 0 1 274 4 3.5025 0.479997873306274 -1 0 1 0 -0.00310187 -0.004090762 -0.005294989 -0.005623595 -0.006895797 1000 -0.00310187 -0.004090762 -0.005294989 -0.005623595 -0.006895797 1000 -0.007961886 -0.008410969 -0.007530042 -0.006665506 -0.006600377 1000 -0.007961886 -0.008410969 -0.007530042 -0.006665506 -0.006600377 1000
lala 18 0.075 0 second 17 1 275 6 3.630001 0.579997777938843 0 1 -1 0 -0.01094808 -0.01336736 -0.01651426 -0.0162855 -0.01469252 1000 -0.01094808 -0.01336736 -0.01651426 -0.0162855 -0.01469252 1000 -0.01730364 -0.0137738 -0.01154077 -0.01329203 -0.0159013 1000 -0.01730364 -0.0137738 -0.01154077 -0.01329203 -0.0159013 1000
lala 12 0.15 1 first 14 1 276 5 5.25 0.259998083114624 0 0 1 1 -0.01135294 -0.01150457 -0.01282474 1000 1000 1000 -0.01135294 -0.01150457 -0.01282474 1000 1000 1000 -0.009348354 -0.009207979 -0.009988864 -0.01128622 -0.01167018 1000 -0.009348354 -0.009207979 -0.009988864 -0.01128622 -0.01167018 1000
lala 13 0.15 0 first 2 1 277 5 4.65 0.499997854232788 -1 0 -1 1 -0.01270351 -0.01094957 -0.01193319 1000 1000 1000 -0.01270351 -0.01094957 -0.01193319 1000 1000 1000 -0.01573987 -0.01369983 -0.01365099 -0.01379479 -0.01291977 1000 -0.01573987 -0.01369983 -0.01365099 -0.01379479 -0.01291977 1000
lala 24 0.15 0 second 12 1 278 4 3.84 0.439997911453247 0 0 -1 0 -0.01443999 -0.01532733 -0.01432589 -0.01406751 -0.01513389 1000 -0.01443999 -0.01532733 -0.01432589 -0.01406751 -0.01513389 1000 -0.01490658 -0.01439098 -0.01392099 -0.01423329 -0.01408705 1000 -0.01490658 -0.01439098 -0.01392099 -0.01423329 -0.01408705 1000
lala 13 0.15 1 second 14 1 279 5 5.1 0.259998083114624 0 0 1 1 -0.01322848 -0.01317706 -0.0128539 -0.01312017 -0.01327731 1000 -0.01322848 -0.01317706 -0.0128539 -0.01312017 -0.01327731 1000 -0.01315737 -0.0125189 -0.01271491 -0.01297696 -0.01355016 1000 -0.01315737 -0.0125189 -0.01271491 -0.01297696 -0.01355016 1000
lala 7 1.2 0 first 1 1 280 4 2.92 1.3999969959259 -1 1 -1 0 -0.01474273 -0.01429785 -0.01504009 1000 1000 1000 -0.01474273 -0.01429785 -0.01504009 1000 1000 1000 -0.01606127 -0.01586716 -0.01551619 -0.01605375 -0.01725897 1000 -0.01606127 -0.01586716 -0.01551619 -0.01605375 -0.01725897 1000
lala 14 0.15 1 second 14 1 281 5 4.95 0.539997816085815 0 0 1 1 -0.01818493 -0.0165058 -0.01709417 -0.01654881 -0.01701477 1000 -0.01818493 -0.0165058 -0.01709417 -0.01654881 -0.01701477 1000 -0.01680748 -0.01823683 -0.01905076 -0.01857181 -0.01804469 1000 -0.01680748 -0.01823683 -0.01905076 -0.01857181 -0.01804469 1000
lala 16 0.6 0 first 5 1 282 6 3.780001 0.739997625350952 -1 1 -1 0 -0.02105902 -0.02050113 -0.02032343 1000 1000 1000 -0.02105902 -0.02050113 -0.02032343 1000 1000 1000 -0.01757224 -0.01865243 -0.01905827 -0.020346 -0.02078649 1000 -0.01757224 -0.01865243 -0.01905827 -0.020346 -0.02078649 1000
lala 21 0.01875 0 second 0 1 283 4 3.48375 0.699997663497925 -1 0 -1 0 -0.02008973 -0.02001622 -0.0204673 -0.02177156 -0.02207639 1000 -0.02008973 -0.02001622 -0.0204673 -0.02177156 -0.02207639 1000 -0.02094848 -0.02044019 -0.02040056 -0.02011007 -0.02054309 1000 -0.02094848 -0.02044019 -0.02040056 -0.02011007 -0.02054309 1000
lala 25 0.15 1 second 12 1 284 4 3.99 0.359997987747192 0 0 1 0 -0.01977198 -0.01912312 -0.01905683 -0.01919789 -0.01973111 1000 -0.01977198 -0.01912312 -0.01905683 -0.01919789 -0.01973111 1000 -0.01884626 -0.01869249 -0.01911268 -0.01940424 -0.01944581 1000 -0.01884626 -0.01869249 -0.01911268 -0.01940424 -0.01944581 1000
lala 14 0.6 0 second 4 1 285 6 3.18 0.359997987747192 -1 0 -1 1 -0.001353771 -0.003993066 -0.005712523 -0.005450902 -0.005920357 1000 -0.001353771 -0.003993066 -0.005712523 -0.005450902 -0.005920357 1000 -0.01189173 -0.011078 -0.01050893 -0.01052132 -0.01100919 1000 -0.01189173 -0.011078 -0.01050893 -0.01052132 -0.01100919 1000
lala 18 0.3 0 second 16 1 286 6 3.66 0.299998044967651 0 0 -1 1 -0.00692432 -0.003317058 -0.005190726 -0.007011275 -0.005589313 1000 -0.00692432 -0.003317058 -0.005190726 -0.007011275 -0.005589313 1000 -0.004624784 -0.006824448 -0.007641077 -0.007761834 -0.00870818 1000 -0.004624784 -0.006824448 -0.007641077 -0.007761834 -0.00870818 1000
lala 15 0.3 1 second 4 1 287 6 3.48 0.299998044967651 -1 0 1 0 -0.008774135 -0.008798696 -0.008206659 -0.00825294 -0.008301583 1000 -0.008774135 -0.008798696 -0.008206659 -0.00825294 -0.008301583 1000 -0.01007613 -0.01000238 -0.009568712 -0.009336863 -0.009491067 1000 -0.01007613 -0.01000238 -0.009568712 -0.009336863 -0.009491067 1000
lala 14 0.6 1 second 6 1 288 4 3.24 0.39999794960022 1 0 1 0 -0.006034855 -0.005325935 -0.005918143 -0.006914254 -0.00737127 1000 -0.006034855 -0.005325935 -0.005918143 -0.006914254 -0.00737127 1000 -0.008268917 -0.007546089 -0.006721099 -0.006450885 -0.006802979 1000 -0.008268917 -0.007546089 -0.006721099 -0.006450885 -0.006802979 1000
lala 15 0.15 0 first 3 1 289 5 3.8 0.39999794960022 -1 1 -1 1 -0.01004173 -0.008218272 -0.006583614 1000 1000 1000 -0.01004173 -0.008218272 -0.006583614 1000 1000 1000 -0.01235114 -0.01327806 -0.01748846 -0.01955743 -0.02010223 1000 -0.01235114 -0.01327806 -0.01748846 -0.01955743 -0.02010223 1000
lala 26 0.075 1 second 12 1 290 4 3.915 0.299998044967651 0 0 1 0 -0.01202595 -0.009362996 -0.00871531 -0.008055151 -0.006083703 1000 -0.01202595 -0.009362996 -0.00871531 -0.008055151 -0.006083703 1000 -0.00880098 -0.01503315 -0.01473428 -0.01230289 -0.01081111 1000 -0.00880098 -0.01503315 -0.01473428 -0.01230289 -0.01081111 1000
lala 25 0.00234375 1 second 10 1 291 6 4.367812 0.439997911453247 1 0 1 0 -0.00461544 -0.004454739 -0.005248925 -0.005616608 -0.005089424 1000 -0.00461544 -0.004454739 -0.005248925 -0.005616608 -0.005089424 1000 -0.006038792 -0.005948052 -0.006108155 -0.006436111 -0.006410254 1000 -0.006038792 -0.005948052 -0.006108155 -0.006436111 -0.006410254 1000
lala 19 0.15 0 second 16 1 292 6 3.81 1.65999698638916 0 0 -1 1 -0.009046385 -0.008703701 -0.007335627 -0.007567568 -0.008232541 1000 -0.009046385 -0.008703701 -0.007335627 -0.007567568 -0.008232541 1000 -0.006275551 -0.006444551 -0.006172617 -0.00597224 -0.007528623 1000 -0.006275551 -0.006444551 -0.006172617 -0.00597224 -0.007528623 1000
lala 22 0.0375 1 second 8 1 293 5 4.3875 0.39999794960022 1 0 1 1 -0.01151946 -0.01196222 -0.01163782 -0.01114558 -0.01132677 1000 -0.01151946 -0.01196222 -0.01163782 -0.01114558 -0.01132677 1000 -0.01062654 -0.009827629 -0.009811257 -0.01038321 -0.01000457 1000 -0.01062654 -0.009827629 -0.009811257 -0.01038321 -0.01000457 1000
lala 15 0.15 1 second 7 1 294 4 3.97 0.319998025894165 1 1 1 1 -0.008089728 -0.007721304 -0.008418446 -0.008627434 -0.009026131 1000 -0.008089728 -0.007721304 -0.008418446 -0.008627434 -0.009026131 1000 -0.01147998 -0.01430714 -0.01641703 -0.01635529 -0.01576327 1000 -0.01147998 -0.01430714 -0.01641703 -0.01635529 -0.01576327 1000
lala 16 0.15 0 first 4 1 295 6 3.33 0.359997987747192 -1 0 -1 1 -0.01413757 -0.01276296 -0.01293024 1000 1000 1000 -0.01413757 -0.01276296 -0.01293024 1000 1000 1000 -0.01541169 -0.01508055 -0.0151531 -0.01501762 -0.01467004 1000 -0.01541169 -0.01508055 -0.0151531 -0.01501762 -0.01467004 1000
lala 14 0.075 1 first 2 1 296 5 4.725 0.61999773979187 -1 0 1 0 -0.01342676 -0.01245184 -0.01202017 1000 1000 1000 -0.01342676 -0.01245184 -0.01202017 1000 1000 1000 -0.01186019 -0.01050256 -0.01029725 -0.01046511 -0.01059066 1000 -0.01186019 -0.01050256 -0.01029725 -0.01046511 -0.01059066 1000
lala 16 0.15 0 first 7 1 297 4 3.82 2.69999599456787 1 1 -1 1 -0.01432273 -0.01517017 -0.01492344 1000 1000 1000 -0.01432273 -0.01517017 -0.01492344 1000 1000 1000 -0.01208867 -0.01088634 -0.01170925 -0.01195393 -0.01185556 1000 -0.01208867 -0.01088634 -0.01170925 -0.01195393 -0.01185556 1000
lala 8 1.2 1 first 1 1 298 4 4.12 0.919997453689575 -1 1 1 0 -0.01363208 -0.01258298 -0.008050453 1000 1000 1000 -0.01363208 -0.01258298 -0.008050453 1000 1000 1000 -0.008570993 -0.007341929 -0.01014365 -0.01171829 -0.0124622 1000 -0.008570993 -0.007341929 -0.01014365 -0.01171829 -0.0124622 1000
lala 26 0.00234375 0 first 10 1 299 6 4.365469 1.01999735832214 1 0 -1 1 -0.01709756 -0.01524844 -0.01244683 1000 1000 1000 -0.01709756 -0.01524844 -0.01244683 1000 1000 1000 -0.01561511 -0.01741703 -0.01828654 -0.01920443 -0.02238903 1000 -0.01561511 -0.01741703 -0.01828654 -0.01920443 -0.02238903 1000
lala 23 0.0375 1 second 8 1 300 5 4.35 0.23999810218811 1 0 1 1 -0.007221095 -0.006723186 -0.009323223 -0.01194454 -0.01100238 1000 -0.007221095 -0.006723186 -0.009323223 -0.01194454 -0.01100238 1000 -0.01707927 -0.01196668 -0.01002896 -0.00938961 -0.01003987 1000 -0.01707927 -0.01196668 -0.01002896 -0.00938961 -0.01003987 1000
lala 19 0.0375 1 first 17 1 301 6 3.667501 0.839997529983521 0 1 1 1 -0.009054218 -0.008949328 -0.008445662 1000 1000 1000 -0.009054218 -0.008949328 -0.008445662 1000 1000 1000 -0.007382252 -0.007891477 -0.009269213 -0.009269178 -0.009480215 1000 -0.007382252 -0.007891477 -0.009269213 -0.009269178 -0.009480215 1000
lala 15 0.3 1 second 14 1 302 5 4.65 1.19999718666077 0 0 1 1 0.0009065064 0.007639283 0.008422106 0.005576279 0.00211582 1000 0.0009065064 0.007639283 0.008422106 0.005576279 0.00211582 1000 0.03094894 0.03412404 0.02817064 0.02404 0.02072106 1000 0.03094894 0.03412404 0.02817064 0.02404 0.02072106 1000
lala 9 1.2 0 second 1 1 303 4 2.92 0.679997682571411 -1 1 -1 1 0.003956882 0.004542071 0.003235467 0.00140453 0.001183039 1000 0.003956882 0.004542071 0.003235467 0.00140453 0.001183039 1000 -0.006657216 -0.0105041 -0.01229212 -0.01394201 -0.01410314 1000 -0.006657216 -0.0105041 -0.01229212 -0.01394201 -0.01410314 1000
lala 15 0.0375 0 second 2 1 304 5 4.6875 0.679997682571411 -1 0 -1 1 -0.01221335 -0.01147056 -0.01025157 -0.0116181 -0.01256923 1000 -0.01221335 -0.01147056 -0.01025157 -0.0116181 -0.01256923 1000 -0.01350022 -0.01303844 -0.01326942 -0.01373283 -0.01446674 1000 -0.01350022 -0.01303844 -0.01326942 -0.01373283 -0.01446674 1000
lala 24 0.0375 1 first 8 1 305 5 4.3125 0.599997758865356 1 0 1 0 -0.01695611 -0.01689651 -0.01761559 1000 1000 1000 -0.01695611 -0.01689651 -0.01761559 1000 1000 1000 -0.01792018 -0.01789394 -0.01823666 -0.01830241 -0.01788126 1000 -0.01792018 -0.01789394 -0.01823666 -0.01830241 -0.01788126 1000
lala 20 0.01875 0 first 17 1 306 6 3.648751 0.439997911453247 0 1 -1 0 -0.01779483 -0.01697261 -0.0150431 1000 1000 1000 -0.01779483 -0.01697261 -0.0150431 1000 1000 1000 -0.007950447 -0.007552739 -0.007357716 -0.00750184 -0.008174947 1000 -0.007950447 -0.007552739 -0.007357716 -0.00750184 -0.008174947 1000
lala 10 0.6 0 second 1 1 307 4 3.52 0.479997873306274 -1 1 -1 1 -0.009199949 -0.009325063 -0.009019858 -0.008201214 -0.007751511 1000 -0.009199949 -0.009325063 -0.009019858 -0.008201214 -0.007751511 1000 -0.007782944 -0.006326173 -0.005955091 -0.005926175 -0.006615913 1000 -0.007782944 -0.006326173 -0.005955091 -0.005926175 -0.006615913 1000
lala 17 0.3 0 second 5 1 308 6 4.080001 0.539997816085815 -1 1 -1 1 -0.004870108 -0.002313058 -0.001607305 -0.0001961919 0.0002965517 1000 -0.004870108 -0.002313058 -0.001607305 -0.0001961919 0.0002965517 1000 -0.005902562 -0.007157727 -0.007001269 -0.007235003 -0.007072776 1000 -0.005902562 -0.007157727 -0.007001269 -0.007235003 -0.007072776 1000
lala 27 0.001171875 1 second 10 1 309 6 4.366641 0.539997816085815 1 0 1 0 -0.01278584 -0.01251867 -0.01272943 -0.01253129 -0.0123699 1000 -0.01278584 -0.01251867 -0.01272943 -0.01253129 -0.0123699 1000 -0.01383686 -0.01417683 -0.01552668 -0.01585381 -0.01611329 1000 -0.01383686 -0.01417683 -0.01552668 -0.01585381 -0.01611329 1000
lala 25 0.075 1 first 8 1 310 5 4.2375 0.779997587203979 1 0 1 0 -0.00912095 -0.01250994 -0.01575034 1000 1000 1000 -0.00912095 -0.01250994 -0.01575034 1000 1000 1000 -0.01137882 -0.008653531 -0.008492908 -0.008834747 -0.009665841 1000 -0.01137882 -0.008653531 -0.008492908 -0.008834747 -0.009665841 1000
lala 15 0.6 0 second 6 1 311 4 2.64 1.17999720573425 1 0 -1 1 -0.01556187 -0.01508322 -0.01671912 -0.01785096 -0.01759508 1000 -0.01556187 -0.01508322 -0.01671912 -0.01785096 -0.01759508 1000 -0.01665202 -0.01632869 -0.01719833 -0.01629426 -0.01588328 1000 -0.01665202 -0.01632869 -0.01719833 -0.01629426 -0.01588328 1000
lala 12 0.3 0 first 15 1 312 5 3.35 0.959997415542603 0 1 -1 0 -0.01433811 -0.01479068 -0.01422141 1000 1000 1000 -0.01433811 -0.01479068 -0.01422141 1000 1000 1000 -0.0127718 -0.01186739 -0.01199812 -0.01160436 -0.0115816 1000 -0.0127718 -0.01186739 -0.01199812 -0.01160436 -0.0115816 1000
lala 13 0.15 1 first 15 1 313 5 3.5 2.2999963760376 0 1 1 1 -0.01589671 -0.01512279 -0.01519271 1000 1000 1000 -0.01589671 -0.01512279 -0.01519271 1000 1000 1000 -0.01293654 -0.01292086 -0.01357294 -0.01421053 -0.01428866 1000 -0.01293654 -0.01292086 -0.01357294 -0.01421053 -0.01428866 1000
lala 11 0.6 1 second 1 1 314 4 4.12 0.61999773979187 -1 1 1 0 -0.02091458 -0.02149493 -0.02174308 -0.02273883 -0.02571606 1000 -0.02091458 -0.02149493 -0.02174308 -0.02273883 -0.02571606 1000 -0.004992024 -0.005063474 -0.005982802 -0.007833644 -0.01027135 1000 -0.004992024 -0.005063474 -0.005982802 -0.007833644 -0.01027135 1000
lala 16 0.3 0 first 3 1 315 5 4.1 0.799997568130493 -1 1 -1 1 -0.0032301 0.0002714359 0.006460933 1000 1000 1000 -0.0032301 0.0002714359 0.006460933 1000 1000 1000 0.005699121 0.005952322 0.007016367 0.006187266 0.006405133 1000 0.005699121 0.005952322 0.007016367 0.006187266 0.006405133 1000
lala 28 0.0005859375 1 first 10 1 316 6 4.366055 2.97999572753906 1 0 1 1 -0.001421214 -0.000187734 0.001362143 1000 1000 1000 -0.001421214 -0.000187734 0.001362143 1000 1000 1000 0.001628429 0.002034029 0.0007009686 -0.000558407 0.0002974509 1000 0.001628429 0.002034029 0.0007009686 -0.000558407 0.0002974509 1000
lala 18 0.3 0 first 5 1 317 6 4.380001 1.55999684333801 -1 1 -1 0 -0.006637673 -0.008501169 -0.007744462 1000 1000 1000 -0.006637673 -0.008501169 -0.007744462 1000 1000 1000 -0.01912414 -0.0162704 -0.01623801 -0.0157734 -0.01835998 1000 -0.01912414 -0.0162704 -0.01623801 -0.0157734 -0.01835998 1000
lala 16 0.6 0 second 14 1 318 5 4.05 2.35999631881714 0 0 -1 0 -0.01083188 -0.01139072 -0.01221333 -0.01237228 -0.01189476 1000 -0.01083188 -0.01139072 -0.01221333 -0.01237228 -0.01189476 1000 -0.01563263 -0.01576969 -0.01612413 -0.01691526 -0.01715456 1000 -0.01563263 -0.01576969 -0.01612413 -0.01691526 -0.01715456 1000
