subject PestNr Step_Size_OnTrial Response_Interval Pest_Interval Condition block trial velH velH_Pest Reaction_Time velH_Subject Start_Above Response_MotionEstimation RightOrLeft
lala 1 1.2 second second 16 1 1 8 5.28 1.01999735832214 2 0 1 1
lala 1 1.2 first second 6 1 2 -4 -2.64 0.599997758865356 -1 0 -1 0
lala 1 1.2 second second 17 1 3 -8 -10.64 0.379997968673706 -2 1 1 0
lala 1 1.2 first second 1 1 4 4 5.32 1.65999698638916 -1 1 -1 1
lala 1 1.2 first second 8 1 5 -6 -3.96 0.959997415542603 -1 0 -1 0
lala 1 1.2 first first 3 1 6 6 7.98 0.519997835159302 -1 1 1 1
lala 1 1.2 first second 4 1 7 8 5.28 0.559997797012329 -1 0 -1 1
lala 1 1.2 second second 13 1 8 -4 -5.32 0.379997968673706 -2 1 1 0
lala 1 1.2 first first 9 1 9 -6 -7.98 0.699997663497925 -1 1 1 0
lala 1 1.2 second second 11 1 10 8 10.64 0.339998006820679 1 1 1 1
lala 1 1.2 first second 14 1 11 -6 -3.96 0.499997854232788 -2 0 -1 0
lala 2 1.2 second second 14 1 12 -6 -5.16 0.379997968673706 -2 0 1 0
lala 1 1.2 second first 0 1 13 4 2.64 0.379997968673706 -1 0 -1 1
lala 2 1.2 second first 4 1 14 8 6.48 0.39999794960022 -1 0 -1 1
lala 3 1.2 first second 14 1 15 -6 -3.96 0.379997968673706 -2 0 -1 0
lala 1 1.2 second second 7 1 16 -4 -5.32 0.299998044967651 -1 1 1 0
lala 1 1.2 second first 12 1 17 4 2.64 2.79999589920044 2 0 -1 1
lala 1 1.2 first second 2 1 18 6 3.96 0.39999794960022 -1 0 -1 1
lala 2 1.2 second first 12 1 19 -4 1.44 0.299998044967651 -2 0 -1 0
lala 2 1.2 second second 9 1 20 6 -9.18 0.319998025894165 1 1 1 1
lala 2 1.2 second second 13 1 21 -4 -4.12 0.359997987747192 -2 1 1 0
lala 2 1.2 second second 3 1 22 6 6.780001 0.339998006820679 -1 1 1 1
lala 4 1.2 second first 14 1 23 6 -2.76 0.39999794960022 2 0 -1 1
lala 3 1.2 second second 3 1 24 -6 7.98 0.23999810218811 1 1 1 0
lala 1 1.2 first first 15 1 25 -6 -7.98 0.23999810218811 -2 1 1 0
lala 1 1.2 first first 10 1 26 -8 -5.28 0.359997987747192 -1 0 1 0
lala 3 1.2 first first 4 1 27 8 7.68 0.299998044967651 -1 0 1 1
lala 4 1.2 first first 3 1 28 6 6.780001 0.319998025894165 -1 1 1 1
lala 2 1.2 second second 8 1 29 -6 -5.16 0.379997968673706 -1 0 1 0
lala 1 1.2 first first 5 1 30 8 10.64 0.419997930526733 -1 1 1 1
lala 2 1.2 second second 1 1 31 4 6.52 0.279998064041138 -1 1 1 1
lala 2 1.2 first second 10 1 32 -8 -4.08 0.23999810218811 -1 0 -1 0
lala 3 1.2 first first 1 1 33 -4 7.72 0.299998044967651 1 1 1 0
lala 2 1.2 first first 17 1 34 -8 -9.440001 0.179998159408569 -2 1 1 0
lala 5 1.2 second first 14 1 35 6 -1.56 0.299998044967651 2 0 -1 1
lala 2 1.2 second second 0 1 36 4 3.84 0.319998025894165 -1 0 1 1
lala 3 1.2 second first 0 1 37 -4 5.04 0.299998044967651 1 0 -1 0
lala 3 1.2 second second 8 1 38 -6 -3.96 0.319998025894165 -1 0 1 0
lala 4 1.2 first first 8 1 39 6 -5.16 0.339998006820679 1 0 1 1
lala 2 1.2 second second 7 1 40 -4 -4.12 0.279998064041138 -1 1 1 0
lala 2 1.2 second second 5 1 41 -8 11.84 0.279998064041138 1 1 1 0
lala 4 1.2 second second 1 1 42 -4 8.92 0.23999810218811 1 1 1 0
lala 3 1.2 first second 13 1 43 -4 -2.92 0.339998006820679 -2 1 -1 0
lala 3 1.2 second first 10 1 44 8 -2.88 0.199998140335083 1 0 -1 1
lala 2 1.2 first second 16 1 45 8 4.08 0.23999810218811 2 0 -1 1
lala 4 1.2 first second 10 1 46 -8 -4.08 0.279998064041138 -1 0 -1 0
lala 5 2.4 second first 3 1 47 6 4.380001 0.359997987747192 -1 1 -1 1
lala 4 1.2 second second 4 1 48 -8 8.88 0.23999810218811 1 0 1 0
lala 3 1.2 second first 7 1 49 -4 -2.92 0.299998044967651 -1 1 -1 0
lala 4 1.2 second first 13 1 50 4 -1.72 2.19999647140503 2 1 -1 1
lala 5 2.4 first first 8 1 51 6 -7.56 0.23999810218811 1 0 1 1
lala 3 1.2 second second 9 1 52 -6 -7.98 0.219998121261597 -1 1 1 0
lala 6 4.8 second first 8 1 53 -6 -2.76 0.159998178482056 -1 0 -1 0
lala 5 1.2 second first 13 1 54 -4 -2.92 0.199998140335083 -2 1 -1 0
lala 5 2.4 first first 1 1 55 -4 11.32 0.179998159408569 1 1 1 0
lala 6 2.4 first first 14 1 56 -6 -3.96 0.219998121261597 -2 0 1 0
lala 5 2.4 first second 10 1 57 8 -1.68 0.299998044967651 1 0 -1 1
lala 2 1.2 second first 6 1 58 4 -1.44 0.23999810218811 1 0 -1 1
lala 3 1.2 first second 6 1 59 4 -0.24 0.299998044967651 1 0 -1 1
lala 6 2.4 first first 13 1 60 -4 -5.32 0.23999810218811 -2 1 1 0
lala 2 1.2 second second 2 1 61 6 5.16 1.3999969959259 -1 0 1 1
lala 3 1.2 first first 17 1 62 -8 -8.240001 0.199998140335083 -2 1 1 0
lala 2 1.2 second second 11 1 63 -8 11.84 0.23999810218811 -1 1 1 0
lala 5 1.2 first first 4 1 64 8 7.68 0.23999810218811 -1 0 1 1
lala 7 1.2 first first 13 1 65 -4 -4.12 0.179998159408569 -2 1 1 0
lala 7 1.2 first second 14 1 66 -6 -2.76 0.519997835159302 -2 0 -1 0
lala 8 0.6 second first 14 1 67 -6 -3.36 0.179998159408569 -2 0 -1 0
lala 4 1.2 first second 6 1 68 4 0.96 0.539997816085815 1 0 -1 1
lala 7 2.4 first first 8 1 69 -6 -5.16 0.219998121261597 -1 0 1 0
lala 6 4.8 first first 1 1 70 4 6.52 0.23999810218811 -1 1 1 1
lala 8 1.2 second second 8 1 71 6 -6.36 0.299998044967651 1 0 1 1
lala 8 1.2 first first 13 1 72 -4 -2.92 3.23999547958374 -2 1 1 0
lala 4 1.2 first second 0 1 73 -4 3.84 0.799997568130493 1 0 -1 0
lala 9 0.6 first second 14 1 74 -6 -3.96 0.39999794960022 -2 0 -1 0
lala 5 2.4 second first 6 1 75 -4 -1.44 0.199998140335083 -1 0 -1 0
lala 5 1.2 first second 0 1 76 -4 2.64 0.299998044967651 1 0 -1 0
lala 2 1.2 second second 15 1 77 -6 -6.780001 0.339998006820679 -2 1 1 0
lala 6 2.4 second second 0 1 78 4 5.04 0.259998083114624 -1 0 1 1
lala 3 1.2 first first 2 1 79 -6 6.36 0.23999810218811 1 0 1 0
lala 3 1.2 first first 5 1 80 -8 13.04 0.179998159408569 1 1 1 0
lala 6 4.8 first first 10 1 81 -8 -6.48 0.0599982738494873 -1 0 1 0
lala 3 1.2 second second 11 1 82 8 10.64 0.259998083114624 1 1 1 1
lala 9 1.2 second first 13 1 83 4 -4.12 0.379997968673706 2 1 -1 1
lala 9 1.2 first first 8 1 84 6 -7.559999 0.199998140335083 1 0 1 1
lala 7 1.2 second second 0 1 85 4 3.84 0.579997777938843 -1 0 1 1
lala 3 1.2 first first 16 1 86 8 5.28 0.199998140335083 2 0 1 1
lala 10 0.6 second second 13 1 87 -4 -4.72 0.219998121261597 -2 1 1 0
lala 7 2.4 first second 10 1 88 -8 -4.08 0.23999810218811 -1 0 -1 0
lala 4 1.2 first first 9 1 89 6 -9.18 0.219998121261597 1 1 1 1
lala 6 4.8 second second 6 1 90 -4 -6.24 0.23999810218811 -1 0 1 0
lala 11 0.3 first first 13 1 91 4 -5.02 0.299998044967651 2 1 1 1
lala 8 1.2 first second 10 1 92 8 -2.88 0.339998006820679 1 0 -1 1
lala 3 1.2 first second 12 1 93 -4 0.24 0.199998140335083 -2 0 -1 0
lala 6 2.4 second first 4 1 94 8 5.28 0.23999810218811 -1 0 -1 1
lala 4 1.2 first first 2 1 95 6 5.16 0.179998159408569 -1 0 1 1
lala 6 1.2 second second 3 1 96 -6 3.180001 0.299998044967651 1 1 1 0
lala 7 9.6 first first 1 1 97 -4 16.12 0.199998140335083 1 1 1 0
lala 4 1.2 first second 7 1 98 -4 -4.12 1.15999722480774 -1 1 -1 0
lala 7 0.6 second first 3 1 99 6 2.58 0.219998121261597 -1 1 -1 1
lala 8 1.2 first first 0 1 100 -4 5.04 0.359997987747192 1 0 1 0
lala 9 1.2 first first 10 1 101 -8 -4.08 0.319998025894165 -1 0 1 0
lala 5 1.2 first first 7 1 102 -4 -5.32 0.219998121261597 -1 1 1 0
lala 10 1.2 second second 8 1 103 -6 -6.36 0.259998083114624 -1 0 1 0
lala 9 1.2 first first 0 1 104 -4 6.24 0.159998178482056 1 0 1 0
lala 7 2.4 first first 6 1 105 4 -8.64 0.199998140335083 1 0 1 1
lala 4 1.2 second second 5 1 106 -8 14.24 0.23999810218811 1 1 1 0
lala 5 2.4 second second 5 1 107 -8 16.64 0.23999810218811 1 1 1 0
lala 12 0.3 first first 13 1 108 -4 -4.72 0.159998178482056 -2 1 1 0
lala 4 1.2 second second 16 1 109 -8 6.48 0.539997816085815 -2 0 1 0
lala 8 19.2 first second 1 1 110 4 -3.080002 0.299998044967651 -1 1 -1 1
lala 6 4.8 first first 5 1 111 8 11.84 0.259998083114624 -1 1 1 1
lala 8 0.3 second first 3 1 112 -6 2.28 0.199998140335083 1 1 -1 0
lala 8 2.4 first first 6 1 113 -4 -6.24 0.219998121261597 -1 0 1 0
lala 13 0.3 first first 13 1 114 4 -5.02 0.179998159408569 2 1 1 1
lala 9 2.4 first first 6 1 115 -4 -3.84 0.159998178482056 -1 0 1 0
lala 10 4.8 second second 6 1 116 4 -8.64 0.259998083114624 1 0 1 1
lala 9 9.6 first first 1 1 117 -4 -12.68 0.23999810218811 1 1 1 0
lala 10 0.6 second first 14 1 118 6 -3.36 0.159998178482056 2 0 -1 1
lala 10 0.6 second first 10 1 119 8 -4.68 0.199998140335083 1 0 -1 1
lala 7 9.6 second first 5 1 120 8 2.239999 0.299998044967651 -1 1 -1 1
lala 4 1.2 second second 11 1 121 -8 11.84 0.219998121261597 -1 1 1 0
lala 11 9.6 second second 6 1 122 4 -18.24 0.179998159408569 1 0 1 1
lala 10 4.8 first first 1 1 123 -4 -7.880002 0.139998197555542 1 1 1 0
lala 11 0.3 first first 10 1 124 -8 -4.98 0.199998140335083 -1 0 1 0
lala 11 1.2 first second 14 1 125 -6 -4.559999 0.279998064041138 -2 0 -1 0
lala 5 2.4 first first 2 1 126 -6 7.56 0.259998083114624 1 0 1 0
lala 5 2.4 first first 11 1 127 8 9.440001 0.139998197555542 1 1 1 1
lala 7 1.2 first second 4 1 128 8 6.48 0.259998083114624 -1 0 -1 1
lala 6 0.6 first second 7 1 129 -4 -4.72 0.299998044967651 -1 1 -1 0
lala 12 2.4 second second 14 1 130 -6 -6.96 0.299998044967651 -2 0 1 0
lala 4 1.2 second first 12 1 131 4 1.44 0.179998159408569 2 0 -1 1
lala 3 1.2 first first 15 1 132 6 -7.98 0.159998178482056 2 1 1 1
lala 5 2.4 second second 9 1 133 6 -11.58 0.259998083114624 1 1 1 1
lala 12 0.15 first first 10 1 134 8 -5.13 0.159998178482056 1 0 1 1
lala 11 2.4 second first 8 1 135 -6 -3.96 0.339998006820679 -1 0 -1 0
lala 14 0.6 first first 13 1 136 4 -5.62 0.179998159408569 2 1 1 1
lala 6 4.8 second second 2 1 137 -6 12.36 0.299998044967651 1 0 1 0
lala 6 4.8 second second 11 1 138 -8 14.24 0.259998083114624 -1 1 1 0
lala 5 2.4 first second 12 1 139 4 3.84 0.279998064041138 2 0 -1 1
lala 8 1.2 first first 4 1 140 -8 5.280001 0.319998025894165 1 0 1 0
lala 5 1.2 first second 16 1 141 8 5.28 0.299998044967651 2 0 -1 1
lala 10 2.4 second second 0 1 142 -4 8.639999 0.219998121261597 1 0 1 0
lala 9 0.6 first second 4 1 143 8 4.680001 0.259998083114624 -1 0 -1 1
lala 11 4.8 first first 0 1 144 -4 13.44 0.0999982357025146 1 0 1 0
lala 6 4.8 second second 9 1 145 -6 -6.78 0.23999810218811 -1 1 1 0
lala 9 0.3 second first 3 1 146 -6 1.98 0.219998121261597 1 1 -1 0
lala 4 1.2 first second 15 1 147 6 -9.18 0.319998025894165 2 1 -1 1
lala 10 0.3 first second 4 1 148 8 4.980001 0.719997644424438 -1 0 -1 1
lala 4 1.2 second second 17 1 149 8 -9.440001 0.339998006820679 2 1 1 1
lala 10 0.3 first second 3 1 150 6 2.28 0.219998121261597 -1 1 -1 1
lala 12 9.6 second second 0 1 151 -4 23.04 0.259998083114624 1 0 1 0
lala 6 4.8 second second 12 1 152 4 8.64 0.219998121261597 2 0 1 1
lala 13 0.15 second second 10 1 153 8 -5.28 0.23999810218811 1 0 1 1
lala 12 19.2 second first 6 1 154 -4 0.9599991 0.279998064041138 -1 0 -1 0
lala 7 9.6 first first 2 1 155 -6 21.96 0.219998121261597 1 0 1 0
lala 13 1.2 second second 14 1 156 6 -8.16 0.23999810218811 2 0 1 1
lala 13 19.2 second first 0 1 157 4 3.84 0.259998083114624 -1 0 -1 1
lala 14 1.2 second second 14 1 158 6 -9.36 0.299998044967651 2 0 1 1
lala 7 0.3 second second 7 1 159 4 -4.42 1.89999675750732 1 1 1 1
lala 7 9.6 second second 9 1 160 6 -16.38 0.319998025894165 1 1 1 1
lala 7 2.4 second second 12 1 161 4 6.24 0.279998064041138 2 0 1 1
lala 5 2.4 second second 17 1 162 -8 -7.04 0.199998140335083 -2 1 1 0
lala 14 0.15 second second 10 1 163 8 -5.43 0.319998025894165 1 0 1 1
lala 5 0.6 second second 15 1 164 -6 -9.780001 0.199998140335083 -2 1 1 0
lala 6 0.3 first first 15 1 165 6 -10.08 0.199998140335083 2 1 1 1
lala 8 0.15 second first 7 1 166 4 -4.57 0.39999794960022 1 1 -1 1
lala 11 4.8 second second 1 1 167 4 -12.68 0.299998044967651 -1 1 1 1
lala 8 2.4 first first 12 1 168 4 3.84 0.539997816085815 2 0 1 1
lala 15 1.2 second second 14 1 169 -6 -8.16 0.299998044967651 -2 0 1 0
lala 12 1.2 second second 8 1 170 -6 -5.16 0.279998064041138 -1 0 1 0
lala 13 9.6 first first 6 1 171 4 10.56 0.179998159408569 1 0 1 1
lala 8 19.2 second first 9 1 172 -6 2.82 0.359997987747192 -1 1 -1 0
lala 15 0.3 first first 10 1 173 8 -5.73 0.23999810218811 1 0 1 1
lala 6 4.8 second second 17 1 174 8 -11.84 0.159998178482056 2 1 1 1
lala 9 9.6 second second 9 1 175 6 12.42 0.219998121261597 1 1 1 1
lala 7 0.3 second second 15 1 176 -6 -9.780001 0.23999810218811 -2 1 1 0
lala 7 9.6 first first 11 1 177 -8 23.84 0.199998140335083 -1 1 1 0
lala 16 0.6 second second 10 1 178 -8 -5.130001 0.219998121261597 -1 0 1 0
lala 16 2.4 first first 14 1 179 -6 -5.76 0.199998140335083 -2 0 1 0
lala 12 4.8 first first 1 1 180 4 -17.48 0.219998121261597 -1 1 1 1
lala 7 9.6 first second 17 1 181 -8 -2.24 0.419997930526733 -2 1 -1 0
lala 14 4.8 second second 6 1 182 4 5.759999 0.259998083114624 1 0 1 1
lala 13 9.6 first first 1 1 183 -4 -7.880003 0.23999810218811 1 1 1 0
lala 17 4.8 second second 14 1 184 6 -10.56 0.319998025894165 2 0 1 1
lala 10 4.8 first first 9 1 185 6 7.62 0.179998159408569 1 1 1 1
lala 8 0.3 first first 15 1 186 -6 -9.48 0.199998140335083 -2 1 1 0
lala 14 9.6 first first 0 1 187 4 13.44 0.279998064041138 -1 0 1 1
lala 11 4.8 second first 9 1 188 6 2.82 0.179998159408569 1 1 -1 1
lala 8 4.8 second second 17 1 189 -8 -7.04 0.23999810218811 -2 1 1 0
lala 8 19.2 second second 11 1 190 -8 43.04 0.339998006820679 -1 1 1 0
lala 9 2.4 second first 12 1 191 4 1.44 0.219998121261597 2 0 -1 1
lala 15 4.8 second first 6 1 192 4 0.9599991 0.179998159408569 1 0 -1 1
lala 8 4.8 first first 5 1 193 8 7.039999 0.259998083114624 -1 1 1 1
lala 9 2.4 first second 17 1 194 -8 -4.64 0.699997663497925 -2 1 -1 0
lala 15 1.2 first first 13 1 195 4 -6.82 0.179998159408569 2 1 1 1
lala 9 38.4 first second 11 1 196 8 4.639999 0.799997568130493 1 1 -1 1
lala 10 1.2 first second 17 1 197 8 -3.44 0.259998083114624 2 1 -1 1
lala 11 0.6 second first 3 1 198 6 2.880001 0.199998140335083 -1 1 -1 1
lala 9 2.4 second first 5 1 199 8 4.639999 1.29999709129334 -1 1 -1 1
lala 17 1.2 first first 10 1 200 8 -6.330001 0.159998178482056 1 0 1 1
lala 16 2.4 first second 6 1 201 4 3.359999 0.159998178482056 1 0 -1 1
lala 9 0.6 second second 15 1 202 -6 -8.88 0.219998121261597 -2 1 1 0
lala 9 0.075 second second 7 1 203 -4 -4.645 0.199998140335083 -1 1 1 0
lala 10 1.2 second second 15 1 204 6 -10.08 0.199998140335083 2 1 1 1
lala 18 9.6 first first 14 1 205 6 -20.16 0.179998159408569 2 0 1 1
lala 11 1.2 second second 17 1 206 -8 -4.64 0.259998083114624 -2 1 1 0
lala 12 1.2 second first 3 1 207 -6 1.680001 0.179998159408569 1 1 -1 0
lala 15 4.8 first first 0 1 208 4 8.64 0.179998159408569 -1 0 1 1
lala 16 4.8 second second 0 1 209 4 3.84 0.159998178482056 -1 0 1 1
lala 17 2.4 first second 6 1 210 -4 0.9599991 0.339998006820679 -1 0 -1 0
lala 8 19.2 second second 2 1 211 -6 41.16 0.139998197555542 1 0 1 0
lala 9 38.4 first first 2 1 212 -6 79.56001 0.199998140335083 1 0 1 0
lala 12 0.6 first second 17 1 213 8 -5.24 0.319998025894165 2 1 -1 1
lala 13 0.3 first second 17 1 214 8 -4.94 0.719997644424438 2 1 -1 1
lala 12 2.4 second first 9 1 215 -6 0.4199996 0.219998121261597 -1 1 -1 0
lala 18 2.4 first second 10 1 216 -8 -3.930001 0.159998178482056 -1 0 -1 0
lala 14 0.3 first second 17 1 217 -8 -5.24 0.279998064041138 -2 1 -1 0
lala 13 2.4 first second 3 1 218 -6 -0.7199996 0.179998159408569 1 1 -1 0
lala 15 0.3 second first 17 1 219 8 -4.94 0.179998159408569 2 1 -1 1
lala 19 19.2 second first 14 1 220 -6 -0.9599991 0.219998121261597 -2 0 -1 0
lala 11 0.3 second second 4 1 221 8 5.280001 0.879997491836548 -1 0 1 1
lala 10 1.2 first second 12 1 222 -4 0.24 0.519997835159302 -2 0 -1 0
lala 10 76.8 first first 2 1 223 -6 156.36 0.199998140335083 1 0 1 0
lala 10 0.0375 first first 7 1 224 4 -4.682499 0.119998216629028 1 1 1 1
lala 10 19.2 first first 11 1 225 8 23.84 0.219998121261597 1 1 1 1
lala 11 2.4 second second 15 1 226 -6 -7.68 0.39999794960022 -2 1 1 0
lala 20 9.6 first first 14 1 227 6 8.640001 0.219998121261597 2 0 1 1
lala 13 2.4 first second 9 1 228 -6 -1.98 0.459997892379761 -1 1 -1 0
lala 14 19.2 first first 1 1 229 -4 11.32 0.199998140335083 1 1 1 0
lala 18 2.4 second first 6 1 230 4 3.359999 0.139998197555542 1 0 -1 1
lala 12 4.8 second second 15 1 231 6 -12.48 0.199998140335083 2 1 1 1
lala 14 2.4 second first 9 1 232 -6 -4.380001 0.119998216629028 -1 1 -1 0
lala 16 0.6 first second 17 1 233 8 -4.34 0.179998159408569 2 1 -1 1
lala 15 4.8 first first 9 1 234 -6 -9.18 0.199998140335083 -1 1 1 0
lala 19 1.2 first first 10 1 235 -8 -5.130001 0.199998140335083 -1 0 1 0
lala 17 4.8 second first 0 1 236 4 -0.96 0.139998197555542 -1 0 -1 1
lala 16 2.4 second second 9 1 237 6 -11.58 0.23999810218811 1 1 1 1
lala 12 0.15 second second 4 1 238 -8 5.430001 0.23999810218811 1 0 1 0
lala 18 2.4 second second 0 1 239 -4 -3.36 0.339998006820679 1 0 1 0
lala 13 0.15 second first 4 1 240 -8 5.580001 0.23999810218811 1 0 -1 0
lala 11 153.6 first first 2 1 241 -6 309.96 0.199998140335083 1 0 1 0
lala 13 9.6 first first 15 1 242 6 -22.08 0.219998121261597 2 1 1 1
lala 20 0.6 second second 10 1 243 -8 -4.530001 0.23999810218811 -1 0 1 0
lala 11 1.2 first second 12 1 244 4 1.44 0.459997892379761 2 0 -1 1
lala 14 19.2 first second 15 1 245 -6 -2.879999 0.179998159408569 -2 1 -1 0
lala 17 1.2 first second 17 1 246 -8 -5.54 0.259998083114624 -2 1 -1 0
lala 14 4.8 second first 3 1 247 -6 -5.52 0.419997930526733 1 1 -1 0
lala 21 0.6 first first 10 1 248 8 -5.130001 0.159998178482056 1 0 1 1
lala 6 0.6 second second 16 1 249 -8 4.68 0.479997873306274 -2 0 1 0
lala 14 0.075 second second 4 1 250 -8 5.505002 0.23999810218811 1 0 1 0
lala 11 9.6 first first 11 1 251 -8 33.44 0.259998083114624 -1 1 1 0
lala 15 9.6 second second 3 1 252 -6 -15.12 0.319998025894165 1 1 1 0
lala 18 2.4 second first 17 1 253 8 -3.14 0.219998121261597 2 1 -1 1
lala 17 2.4 second first 9 1 254 6 -13.98 0.23999810218811 1 1 -1 1
lala 13 0.6 first first 8 1 255 6 -5.76 0.439997911453247 1 0 1 1
lala 21 4.8 first first 14 1 256 -6 13.44 0.199998140335083 -2 0 1 0
lala 16 2.4 second first 13 1 257 -4 -4.42 0.259998083114624 -2 1 -1 0
lala 11 0.0375 second second 7 1 258 -4 -4.645 0.879997491836548 -1 1 1 0
lala 15 9.6 first first 15 1 259 6 6.720001 0.319998025894165 2 1 1 1
lala 12 9.6 second second 11 1 260 8 23.84 0.279998064041138 1 1 1 1
lala 12 1.2 second first 12 1 261 4 2.64 0.259998083114624 2 0 -1 1
lala 13 2.4 second first 12 1 262 -4 0.24 0.23999810218811 -2 0 -1 0
lala 19 1.2 second second 0 1 263 -4 -2.16 0.439997911453247 1 0 1 0
lala 15 0.0375 second first 4 1 264 8 5.467502 0.559997797012329 -1 0 -1 1
lala 16 4.8 second second 15 1 265 -6 11.52 0.279998064041138 -2 1 1 0
lala 12 307.2 first second 2 1 266 6 2.76001 0.23999810218811 -1 0 -1 1
lala 13 9.6 second second 11 1 267 -8 33.44 0.259998083114624 -1 1 1 0
lala 22 4.8 second second 14 1 268 6 8.640001 0.139998197555542 2 0 1 1
lala 12 0.0375 second second 7 1 269 -4 -4.6075 0.23999810218811 -1 1 1 0
lala 13 153.6 second second 2 1 270 -6 -150.84 0.159998178482056 1 0 1 0
lala 22 0.6 second second 10 1 271 8 -5.730001 0.259998083114624 1 0 1 1
lala 14 4.8 second first 12 1 272 -4 -4.56 0.179998159408569 -2 0 -1 0
lala 17 1.2 second second 13 1 273 4 -3.22 0.339998006820679 2 1 1 1
lala 15 9.6 first first 12 1 274 4 5.04 0.259998083114624 2 0 1 1
lala 13 0.075 second first 7 1 275 -4 -4.5325 0.719997644424438 -1 1 -1 0
lala 18 1.2 second second 9 1 276 -6 -15.18 0.279998064041138 -1 1 1 0
lala 19 4.8 first second 6 1 277 -4 -1.440001 0.179998159408569 -1 0 -1 0
lala 14 0.0375 second second 7 1 278 4 -4.495 0.159998178482056 1 1 1 1
lala 20 9.6 second second 6 1 279 4 8.16 0.279998064041138 1 0 1 1
lala 18 0.6 second first 13 1 280 4 -3.82 0.259998083114624 2 1 -1 1
lala 14 76.8 second second 2 1 281 6 -227.64 0.179998159408569 -1 0 1 1
lala 23 4.8 first second 14 1 282 6 3.840001 0.199998140335083 2 0 -1 1
lala 16 4.8 first first 3 1 283 -6 -10.32 0.179998159408569 1 1 1 0
lala 24 2.4 first first 14 1 284 6 6.240001 0.139998197555542 2 0 1 1
lala 19 4.8 second first 17 1 285 8 1.66 0.219998121261597 2 1 -1 1
lala 15 0.01875 second second 7 1 286 -4 -4.47625 0.299998044967651 -1 1 1 0
lala 23 1.2 second second 10 1 287 -8 -4.530001 0.359997987747192 -1 0 1 0
lala 10 1.2 first first 5 1 288 -8 3.439999 0.39999794960022 1 1 1 0
lala 11 0.6 first second 5 1 289 8 2.839999 0.419997930526733 -1 1 -1 1
lala 15 76.8 first first 2 1 290 -6 -150.84 0.259998083114624 1 0 1 0
lala 16 0.01875 second second 7 1 291 -4 -4.4575 0.199998140335083 -1 1 1 0
lala 17 4.8 second second 15 1 292 6 6.720001 0.219998121261597 2 1 1 1
lala 7 0.3 first first 16 1 293 -8 4.98 0.199998140335083 -2 0 1 0
lala 12 0.3 second first 5 1 294 8 3.139999 0.139998197555542 -1 1 -1 1
lala 14 19.2 first first 11 1 295 8 14.24 0.159998178482056 1 1 1 1
lala 16 0.01875 first first 4 1 296 -8 5.448751 0.219998121261597 1 0 1 0
lala 8 0.3 first first 16 1 297 8 4.68 0.199998140335083 2 0 1 1
lala 19 0.3 first second 13 1 298 4 -3.52 0.159998178482056 2 1 -1 1
lala 13 0.3 first first 5 1 299 -8 2.839999 0.219998121261597 1 1 1 0
lala 24 2.4 second first 10 1 300 -8 -2.130001 0.279998064041138 -1 0 -1 0
lala 19 0.6 second second 9 1 301 -6 -14.58 0.259998083114624 -1 1 1 0
lala 16 76.8 first first 2 1 302 -6 -74.03999 0.119998216629028 1 0 1 0
lala 20 9.6 first first 17 1 303 -8 -7.94 0.119998216629028 -2 1 1 0
lala 14 0.15 second first 5 1 304 8 2.689999 0.179998159408569 -1 1 -1 1
lala 17 0.009375 first first 4 1 305 -8 5.458127 0.159998178482056 1 0 1 0
lala 15 0.075 second second 5 1 306 -8 2.614999 0.219998121261597 1 1 1 0
lala 21 4.8 first first 17 1 307 8 -12.74 0.119998216629028 2 1 1 1
lala 20 0.6 first first 9 1 308 6 -15.18 0.119998216629028 1 1 1 1
lala 17 4.8 first second 3 1 309 -6 -5.52 0.23999810218811 1 1 -1 0
lala 20 0.3 first first 13 1 310 4 -3.22 0.159998178482056 2 1 1 1
lala 21 4.8 first first 6 1 311 -4 12.96 0.159998178482056 -1 0 1 0
lala 21 0.6 first first 9 1 312 6 -15.78 0.179998159408569 1 1 1 1
lala 18 0.009375 second second 4 1 313 8 5.448751 0.259998083114624 -1 0 1 1
lala 25 1.2 second second 14 1 314 6 5.040001 0.159998178482056 2 0 1 1
lala 17 153.6 first first 2 1 315 -6 79.56001 0.199998140335083 1 0 1 0
lala 26 1.2 second second 14 1 316 -6 6.240001 0.259998083114624 -2 0 1 0
lala 22 1.2 first first 9 1 317 -6 -14.58 0.159998178482056 -1 1 1 0
lala 23 2.4 first first 9 1 318 6 -16.98 0.199998140335083 1 1 1 1
lala 15 38.4 second second 11 1 319 -8 52.64 0.61999773979187 -1 1 1 0
lala 24 4.8 second second 9 1 320 6 -21.78 0.639997720718384 1 1 1 1
lala 27 1.2 first first 14 1 321 6 5.040001 0.459997892379761 2 0 1 1
lala 16 0.0375 second first 5 1 322 8 2.577499 0.139998197555542 -1 1 -1 1
lala 21 0.15 first first 13 1 323 -4 -3.07 0.219998121261597 -2 1 1 0
lala 19 0.009375 first first 4 1 324 -8 5.458127 0.159998178482056 1 0 1 0
lala 15 38.4 first first 1 1 325 -4 49.72 0.159998178482056 1 1 1 0
lala 9 0.3 first second 16 1 326 8 4.38 0.339998006820679 2 0 -1 1
lala 18 4.8 second second 15 1 327 -6 11.52 0.23999810218811 -2 1 1 0
lala 16 76.8 second second 11 1 328 -8 129.44 0.579997777938843 -1 1 1 0
lala 16 4.8 first second 12 1 329 4 0.2399998 0.259998083114624 2 0 -1 1
lala 17 0.01875 second second 5 1 330 8 2.596249 0.279998064041138 -1 1 1 1
lala 25 9.6 second second 9 1 331 -6 -12.18 0.379997968673706 -1 1 1 0
lala 16 76.8 second second 1 1 332 -4 126.52 0.339998006820679 1 1 1 0
lala 17 0.01875 second second 7 1 333 4 -4.47625 0.339998006820679 1 1 1 1
lala 20 0.01875 first second 4 1 334 8 5.439376 0.299998044967651 -1 0 -1 1
lala 22 4.8 second second 17 1 335 -8 -7.94 0.219998121261597 -2 1 1 0
lala 10 0.15 second first 16 1 336 8 4.53 0.179998159408569 2 0 -1 1
lala 22 4.8 first first 6 1 337 4 8.16 0.219998121261597 1 0 1 1
lala 23 4.8 first second 6 1 338 4 3.36 0.259998083114624 1 0 -1 1
lala 19 9.6 second first 15 1 339 6 1.920001 0.139998197555542 2 1 -1 1
lala 20 4.8 second second 15 1 340 6 6.720001 0.199998140335083 2 1 1 1
lala 14 0.6 second second 8 1 341 6 -6.36 0.179998159408569 1 0 1 1
lala 18 0.009375 first second 5 1 342 8 2.586874 0.23999810218811 -1 1 -1 1
lala 25 1.2 second first 10 1 343 -8 -3.330001 0.139998197555542 -1 0 -1 0
lala 20 1.2 second first 0 1 344 -4 -0.96 0.179998159408569 1 0 -1 0
lala 26 19.2 first second 9 1 345 -6 7.020002 0.259998083114624 -1 1 -1 0
lala 18 2.4 first first 3 1 346 -6 -7.92 0.61999773979187 1 1 1 0
lala 15 0.6 second second 8 1 347 6 -6.96 0.199998140335083 1 0 1 1
lala 26 1.2 first second 10 1 348 8 -2.130001 0.23999810218811 1 0 -1 1
lala 17 153.6 first first 11 1 349 8 -24.16 0.139998197555542 1 1 1 1
lala 23 4.8 first second 17 1 350 -8 -3.139999 0.23999810218811 -2 1 -1 0
lala 11 0.15 second first 16 1 351 -8 4.38 1.61999702453613 -2 0 -1 0
lala 21 0.6 first second 0 1 352 4 -0.36 0.179998159408569 -1 0 -1 1
lala 18 307.2 first first 2 1 353 6 -227.64 0.219998121261597 -1 0 1 1
lala 18 307.2 second second 11 1 354 -8 283.04 0.199998140335083 -1 1 1 0
lala 27 1.2 second second 10 1 355 -8 -3.330001 0.479997873306274 -1 0 1 0
lala 19 614.4 first first 11 1 356 -8 897.4401 0.159998178482056 -1 1 1 0
lala 19 0.0046875 first second 5 1 357 -8 2.582186 0.0999982357025146 1 1 -1 0
lala 16 1.2 first first 8 1 358 -6 -5.759999 0.139998197555542 -1 0 1 0
lala 19 1.2 first first 3 1 359 -6 -6.719999 0.139998197555542 1 1 1 0
lala 27 9.6 second second 9 1 360 6 16.62 0.179998159408569 1 1 1 1
lala 21 2.4 second second 15 1 361 -6 9.120001 0.179998159408569 -2 1 1 0
lala 20 1.2 first first 3 1 362 -6 -5.52 0.159998178482056 1 1 1 0
lala 19 614.4 second second 2 1 363 -6 386.76 0.339998006820679 1 0 1 0
lala 18 0.0375 second second 7 1 364 -4 -4.43875 0.219998121261597 -1 1 1 0
lala 24 2.4 second first 17 1 365 8 -0.7399993 0.23999810218811 2 1 -1 1
lala 22 0.15 second first 13 1 366 4 -3.22 0.519997835159302 2 1 -1 1
lala 20 1228.8 first first 2 1 367 -6 1615.56 0.219998121261597 1 0 1 0
lala 21 1.2 second first 3 1 368 -6 -4.32 0.23999810218811 1 1 -1 0
lala 21 2457.6 first first 2 1 369 -6 4073.16 0.199998140335083 1 0 1 0
lala 22 4915.2 second second 2 1 370 -6 8988.36 0.899997472763062 1 0 1 0
lala 19 0.075 first first 7 1 371 -4 -4.36375 0.219998121261597 -1 1 1 0
lala 22 0.6 first second 3 1 372 6 -3.72 0.939997434616089 -1 1 -1 1
lala 25 2.4 first second 17 1 373 -8 -3.139999 0.139998197555542 -2 1 -1 0
lala 20 0.15 second first 7 1 374 -4 -4.21375 0.159998178482056 -1 1 -1 0
lala 26 2.4 second first 17 1 375 8 -0.7399993 0.119998216629028 2 1 -1 1
lala 21 0.009375 first first 4 1 376 -8 5.430001 0.199998140335083 1 0 1 0
lala 20 0.0046875 first second 5 1 377 8 2.586874 0.939997434616089 -1 1 -1 1
lala 23 0.075 second second 13 1 378 -4 -3.295 0.219998121261597 -2 1 1 0
lala 23 9830.4 first first 2 1 379 6 -842.04 0.219998121261597 -1 0 1 1
lala 21 0.0046875 first first 5 1 380 -8 2.582186 0.179998159408569 1 1 1 0
lala 21 0.075 second second 7 1 381 -4 -4.28875 0.139998197555542 -1 1 1 0
lala 24 0.0375 first first 13 1 382 -4 -3.2575 0.23999810218811 -2 1 1 0
lala 17 2.4 second second 12 1 383 4 2.64 0.279998064041138 2 0 1 1
lala 17 153.6 second second 1 1 384 -4 280.12 0.319998025894165 1 1 1 0
lala 22 0.0046875 first first 4 1 385 -8 5.434689 0.23999810218811 1 0 1 0
lala 20 1228.8 first first 11 1 386 -8 2126.24 0.159998178482056 -1 1 1 0
lala 22 2.4 second second 15 1 387 -6 11.52 0.219998121261597 -2 1 1 0
lala 12 0.15 first first 16 1 388 -8 4.23 0.319998025894165 -2 0 1 0
lala 23 0.0046875 first first 4 1 389 -8 5.439376 0.219998121261597 1 0 1 0
lala 22 0.0375 second second 7 1 390 4 -4.32625 0.259998083114624 1 1 1 1
lala 24 2.4 second first 6 1 391 -4 0.9599996 0.23999810218811 -1 0 -1 0
lala 17 2.4 second first 8 1 392 -6 -3.359999 0.119998216629028 -1 0 -1 0
lala 22 0.00234375 second first 5 1 393 8 2.579842 0.139998197555542 -1 1 -1 1
lala 25 0.0375 second second 13 1 394 4 -3.295 0.139998197555542 2 1 1 1
lala 21 2457.6 second second 11 1 395 8 -331.3599 0.279998064041138 1 1 1 1
lala 23 0.0375 second first 7 1 396 -4 -4.28875 0.159998178482056 -1 1 -1 0
lala 18 1.2 first first 8 1 397 -6 -4.559999 0.199998140335083 -1 0 1 0
lala 24 0.01875 second second 7 1 398 4 -4.27 0.199998140335083 1 1 1 1
lala 22 4915.2 first first 11 1 399 8 -5246.56 0.159998178482056 1 1 1 1
lala 22 0.6 first second 0 1 400 -4 -0.96 0.359997987747192 1 0 -1 0
lala 25 0.009375 second second 7 1 401 4 -4.279375 0.159998178482056 1 1 1 1
lala 23 0.6 second first 0 1 402 4 -0.36 0.23999810218811 -1 0 -1 1
lala 24 1.2 first second 0 1 403 -4 -1.56 0.179998159408569 1 0 -1 0
lala 19 0.6 second first 8 1 404 -6 -3.96 0.139998197555542 -1 0 -1 0
lala 18 307.2 first first 1 1 405 4 -27.08002 0.219998121261597 -1 1 1 1
lala 25 2.4 second first 0 1 406 -4 -3.96 0.199998140335083 1 0 -1 0
lala 25 2.4 first second 6 1 407 -4 -1.440001 0.159998178482056 -1 0 -1 0
lala 24 0.0046875 second second 4 1 408 8 5.434689 0.219998121261597 -1 0 1 1
lala 23 0.6 second second 3 1 409 -6 -4.32 0.23999810218811 1 1 1 0
lala 20 0.3 second first 8 1 410 6 -3.66 0.219998121261597 1 0 -1 1
lala 26 0.009375 first first 7 1 411 -4 -4.27 0.199998140335083 -1 1 1 0
lala 13 0.075 first second 16 1 412 8 4.155 0.159998178482056 2 0 -1 1
lala 27 4.8 first second 17 1 413 -8 -5.539999 0.119998216629028 -2 1 -1 0
lala 25 0.009375 first second 4 1 414 8 5.425313 0.299998044967651 -1 0 -1 1
lala 24 19660.8 second second 2 1 415 6 -20502.84 0.579997777938843 -1 0 1 1
lala 21 0.3 second first 8 1 417 6 -3.36 0.259998083114624 1 0 -1 1
lala 18 1.2 first second 12 1 418 4 1.44 0.23999810218811 2 0 -1 1
lala 23 2.4 second second 15 1 422 -6 13.92 0.199998140335083 -2 1 1 0
lala 24 4.8 second second 15 1 423 -6 18.72 0.179998159408569 -2 1 1 0
lala 24 0.3 first first 3 1 424 6 -4.62 0.119998216629028 -1 1 1 1
lala 14 0.0375 second first 16 1 425 8 4.1925 0.119998216629028 2 0 -1 1
lala 23 9830.4 second second 11 1 426 8 -15076.96 0.199998140335083 1 1 1 1
lala 26 4.8 second second 0 1 427 -4 -8.76 0.139998197555542 1 0 1 0
lala 25 39321.6 second second 2 1 428 -6 18818.76 0.559997797012329 1 0 1 0
lala 26 0.0375 second second 13 1 429 -4 -3.2575 0.459997892379761 -2 1 1 0
lala 24 19660.8 first first 11 1 430 -8 4583.84 0.479997873306274 -1 1 1 0
lala 26 2.4 second first 6 1 431 4 0.9599996 0.159998178482056 1 0 -1 1
lala 27 4.8 second first 6 1 432 -4 -3.840001 0.199998140335083 -1 0 -1 0
lala 27 0.009375 second second 7 1 433 4 -4.279375 0.319998025894165 1 1 1 1
lala 15 0.0375 second second 16 1 435 8 4.23 0.179998159408569 2 0 1 1
lala 27 2.4 second second 0 1 436 -4 -6.36 0.119998216629028 1 0 1 0
lala 26 78643.2 first first 2 1 437 6 -59824.44 0.179998159408569 -1 0 1 1
lala 22 0.3 second first 8 1 438 -6 -3.66 0.159998178482056 -1 0 -1 0
lala 25 9.6 second second 15 1 440 -6 28.32 0.219998121261597 -2 1 1 0
lala 26 19.2 first first 15 1 441 -6 47.52 0.0999982357025146 -2 1 1 0
lala 25 0.3 first first 3 1 443 6 -4.92 0.0999982357025146 -1 1 1 1
lala 25 39321.6 second second 11 1 444 8 -34737.76 0.279998064041138 1 1 1 1
lala 26 78643.2 second second 11 1 445 8 -113381 0.279998064041138 1 1 1 1
lala 23 0.6 second first 8 1 446 -6 -4.26 0.279998064041138 -1 0 -1 0
lala 27 38.4 second second 15 1 447 6 9.120003 0.219998121261597 2 1 1 1
lala 16 0.01875 second first 16 1 448 -8 4.24875 0.199998140335083 -2 0 -1 0
lala 26 0.3 second first 3 1 449 -6 -4.62 0.259998083114624 1 1 -1 0
lala 27 0.15 first second 3 1 450 -6 -4.77 0.259998083114624 1 1 -1 0
lala 24 1.2 second second 8 1 451 -6 -5.46 0.179998159408569 -1 0 1 0
lala 27 157286.4 first first 11 1 452 8 -270667.4 0.199998140335083 1 1 1 1
lala 17 0.009375 first first 16 1 453 -8 4.239375 0.359997987747192 -2 0 1 0
lala 18 0.0046875 second first 16 1 454 -8 4.244062 0.219998121261597 -2 0 -1 0
lala 27 157286.4 second second 2 1 455 6 -217110.8 0.23999810218811 -1 0 1 1
lala 19 614.4 second second 1 1 456 -4 587.32 0.219998121261597 1 1 1 0
lala 19 0.00234375 second first 16 1 457 -8 4.241718 0.279998064041138 -2 0 -1 0
lala 19 0.6 first second 12 1 458 -4 0.8399998 0.159998178482056 -2 0 -1 0
lala 27 0.075 first first 13 1 459 -4 -3.1825 0.219998121261597 -2 1 1 0
lala 20 1228.8 first first 1 1 460 4 -641.48 0.199998140335083 -1 1 1 1
lala 25 0.6 second second 8 1 461 6 -6.06 0.159998178482056 1 0 1 1
lala 20 0.6 second first 12 1 462 -4 0.2399998 0.219998121261597 -2 0 -1 0
lala 20 0.00234375 first first 16 1 463 -8 4.239375 0.159998178482056 -2 0 1 0
lala 21 2457.6 second second 1 1 464 4 -3099.08 0.199998140335083 -1 1 1 1
lala 21 0.001171875 second second 16 1 465 -8 4.240547 0.439997911453247 -2 0 1 0
lala 21 0.6 first second 12 1 466 -4 -0.3600003 0.259998083114624 -2 0 -1 0
lala 26 0.6 second second 8 1 467 6 -6.66 0.139998197555542 1 0 1 1
lala 22 1.2 second first 12 1 468 4 0.8399998 0.159998178482056 2 0 -1 1
lala 23 2.4 first second 12 1 469 -4 -1.56 0.299998044967651 -2 0 -1 0
lala 24 4.8 second second 12 1 470 4 3.24 0.23999810218811 2 0 1 1
lala 27 0.6 first first 8 1 472 6 -7.26 0.079998254776001 1 0 1 1
lala 22 4915.2 second second 1 1 473 -4 1816.12 0.199998140335083 1 1 1 0
lala 23 9830.4 first first 1 1 475 4 -8014.28 0.339998006820679 -1 1 1 1
lala 24 19660.8 first first 1 1 476 -4 11646.52 0.159998178482056 1 1 1 0
lala 25 39321.6 second second 1 1 477 -4 50968.12 0.439997911453247 1 1 1 0
lala 25 2.4 first second 12 1 478 4 0.8399997 0.439997911453247 2 0 -1 1
lala 26 78643.2 second second 1 1 479 4 -27675.08 0.819997549057007 -1 1 1 1
lala 26 1.2 second first 12 1 480 4 2.04 0.179998159408569 2 0 -1 1
lala 27 157286.4 first first 1 1 481 -4 129611.3 0.179998159408569 1 1 1 0
lala 27 1.2 second first 12 1 483 -4 0.8399997 0.139998197555542 -2 0 -1 0
