subject PestNr Step_Size_OnTrial Response_Interval Pest_Interval Condition block trial velH velH_Pest Reaction_Time velH_Subject Start_Above Response_MotionEstimation RightOrLeft
lala 1 1.2 second first 6 1 1 -4 -2.64 1.23999714851379 -1 0 -1 0
lala 1 1.2 first second 4 1 2 8 5.28 0.299998044967651 -1 0 -1 1
lala 1 1.2 first second 1 1 3 -4 -5.32 0.659997701644897 1 1 -1 0
lala 1 1.2 first first 5 1 4 -8 -10.64 1.01999735832214 1 1 1 0
lala 2 1.2 second second 5 1 5 -8 -9.440001 1.47999691963196 1 1 1 0
lala 2 1.2 first second 1 1 6 4 -4.12 0.739997625350952 -1 1 -1 1
lala 1 1.2 first first 11 1 7 -8 -10.64 0.699997663497925 -1 1 1 0
lala 1 1.2 first second 3 1 8 6 7.98 2.65999603271484 -1 1 -1 1
lala 1 1.2 second second 9 1 9 6 7.98 1.69999694824219 1 1 1 1
lala 1 1.2 first second 7 1 10 -4 -5.32 1.23999714851379 -1 1 -1 0
lala 2 1.2 first second 7 1 11 -4 -6.52 2.19999647140503 -1 1 -1 0
lala 1 1.2 second first 2 1 12 -6 -3.96 0.559997797012329 1 0 -1 0
lala 2 1.2 second first 11 1 13 -8 -9.440001 1.55999684333801 -1 1 -1 0
lala 2 1.2 first second 9 1 14 -6 9.18 26.4604697227478 -1 1 -1 0
lala 1 1.2 first second 0 1 15 4 2.64 1.87999677658081 -1 0 -1 1
lala 1 1.2 second first 12 1 16 -4 -2.64 1.37999701499939 -2 0 -1 0
lala 2 1.2 first first 2 1 17 -6 -5.16 1.55999684333801 1 0 1 0
lala 1 1.2 second first 17 1 18 -8 -10.64 1.15999722480774 -2 1 -1 0
lala 2 1.2 first second 4 1 19 -8 4.08 0.499997854232788 1 0 -1 0
lala 1 1.2 first first 15 1 20 -6 -7.98 1.7199969291687 -2 1 1 0
lala 1 1.2 first second 13 1 21 -4 -5.32 1.41999697685242 -2 1 -1 0
lala 2 1.2 second second 6 1 22 4 -1.44 1.33999705314636 1 0 1 1
lala 1 1.2 first first 10 1 23 -8 -5.28 2.47999620437622 -1 0 1 0
lala 2 1.2 first first 15 1 24 6 -9.18 1.01999735832214 2 1 1 1
lala 1 1.2 second first 16 1 25 8 5.28 0.639997720718384 2 0 -1 1
lala 3 1.2 second first 4 1 26 8 5.28 0.379997968673706 -1 0 -1 1
lala 2 1.2 first first 10 1 27 -8 -4.08 1.75999689102173 -1 0 1 0
lala 1 1.2 second second 8 1 28 6 3.96 0.599997758865356 1 0 1 1
lala 2 1.2 first second 13 1 29 -4 -6.52 0.419997930526733 -2 1 -1 0
lala 3 1.2 first first 6 1 30 4 -2.64 0.959997415542603 1 0 1 1
lala 1 1.2 first first 14 1 31 -6 -3.96 1.65999698638916 -2 0 1 0
lala 2 1.2 second first 17 1 32 8 -9.440001 0.939997434616089 2 1 -1 1
lala 2 1.2 first first 12 1 33 4 -1.44 0.979997396469116 2 0 1 1
lala 3 1.2 first first 7 1 34 4 -5.320001 1.47999691963196 1 1 1 1
lala 3 1.2 second second 13 1 35 4 -5.320001 1.77999687194824 2 1 1 1
lala 3 1.2 first second 12 1 36 -4 -0.24 3.25999546051025 -2 0 -1 0
lala 3 1.2 second second 17 1 37 -8 -10.64 0.539997816085815 -2 1 1 0
lala 3 1.2 second first 2 1 38 -6 -3.96 0.839997529983521 1 0 -1 0
lala 2 1.2 second second 16 1 39 -8 4.08 20.6203360557556 -2 0 1 0
lala 2 1.2 second second 3 1 40 -6 6.780001 2.61999607086182 1 1 1 0
lala 4 1.2 second first 4 1 41 8 6.48 0.739997625350952 -1 0 -1 1
lala 4 1.2 first first 6 1 42 4 -3.84 0.579997777938843 1 0 1 1
lala 4 1.2 second first 17 1 43 8 -11.84 0.359997987747192 2 1 -1 1
lala 3 1.2 second second 15 1 44 6 -10.38 1.01999735832214 2 1 1 1
lala 4 1.2 second second 7 1 45 4 -6.52 1.23999714851379 1 1 1 1
lala 4 1.2 second first 12 1 46 -4 -1.44 0.539997816085815 -2 0 -1 0
lala 5 1.2 second second 7 1 47 4 -7.72 1.57999682426453 1 1 1 1
lala 3 1.2 second first 1 1 48 4 -2.92 0.639997720718384 -1 1 -1 1
lala 3 1.2 first second 5 1 49 -8 -8.240001 1.25999712944031 1 1 -1 0
lala 3 1.2 first first 16 1 50 -8 5.28 0.61999773979187 -2 0 1 0
lala 4 1.2 second second 5 1 51 8 -7.040001 0.779997587203979 -1 1 1 1
lala 4 1.2 second second 15 1 52 6 -11.58 2.49999618530273 2 1 1 1
lala 5 2.4 second first 4 1 53 8 8.879999 0.61999773979187 -1 0 -1 1
lala 6 2.4 first first 7 1 54 -4 -5.32 0.899997472763062 -1 1 1 0
lala 6 4.8 second first 4 1 55 -8 4.079999 0.499997854232788 1 0 -1 0
lala 2 1.2 first second 0 1 56 4 3.84 1.57999682426453 -1 0 -1 1
lala 4 1.2 second second 2 1 57 -6 -5.16 1.61999702453613 1 0 1 0
lala 3 1.2 second first 3 1 58 6 5.580001 3.29999542236328 -1 1 -1 1
lala 7 4.8 first first 7 1 59 4 -10.12 0.779997587203979 1 1 1 1
lala 5 2.4 first first 6 1 60 -4 -1.44 3.67999505996704 -1 0 1 0
lala 4 1.2 second first 16 1 61 -8 6.48 1.35999703407288 -2 0 -1 0
lala 5 0.6 second first 16 1 62 8 7.079999 2.7399959564209 2 0 -1 1
lala 3 1.2 first first 0 1 63 -4 2.64 1.05999732017517 1 0 1 0
lala 4 1.2 second first 1 1 64 4 -1.72 1.3999969959259 -1 1 -1 1
lala 3 1.2 first first 11 1 65 -8 -10.64 1.29999709129334 -1 1 1 0
lala 4 1.2 first first 0 1 66 -4 3.84 1.51999688148499 1 0 1 0
lala 4 1.2 second first 13 1 67 -4 -4.120001 1.11999726295471 -2 1 -1 0
lala 5 2.4 second second 1 1 68 -4 -4.12 2.17999649047852 1 1 1 0
lala 5 1.2 second second 0 1 69 4 2.64 0.419997930526733 -1 0 1 1
lala 5 0.6 second first 2 1 70 6 -5.76 0.599997758865356 -1 0 -1 1
lala 6 0.6 first first 16 1 71 8 7.679999 1.77999687194824 2 0 1 1
lala 4 1.2 second second 11 1 72 -8 -9.440001 1.01999735832214 -1 1 1 0
lala 5 0.6 first first 13 1 73 -4 -4.720001 0.979997396469116 -2 1 1 0
lala 4 1.2 second first 3 1 74 6 6.780001 0.599997758865356 -1 1 -1 1
lala 8 9.6 first first 7 1 75 -4 -0.5200005 13.9001822471619 -1 1 1 0
lala 6 4.8 second second 6 1 76 4 -6.24 0.439997911453247 1 0 1 1
lala 5 0.6 first second 17 1 77 8 -11.24 0.439997911453247 2 1 -1 1
lala 3 1.2 first second 9 1 78 -6 7.98 0.979997396469116 -1 1 -1 0
lala 6 2.4 second first 0 1 79 4 0.24 0.579997777938843 -1 0 -1 1
lala 6 0.3 second second 2 1 80 6 -5.46 3.97999477386475 -1 0 1 1
lala 5 2.4 second second 15 1 81 6 -13.98 0.339998006820679 2 1 1 1
lala 7 0.15 second first 2 1 82 6 -5.61 3.09999561309814 -1 0 -1 1
lala 5 0.6 second second 5 1 83 8 -7.640001 0.299998044967651 -1 1 1 1
lala 6 1.2 first second 1 1 84 4 -5.32 0.759997606277466 -1 1 -1 1
lala 5 1.2 second first 3 1 85 6 7.98 0.579997777938843 -1 1 -1 1
lala 8 0.075 second second 2 1 86 6 -5.535 1.51999688148499 -1 0 1 1
lala 6 2.4 first second 3 1 87 -6 5.58 2.5999960899353 1 1 -1 0
lala 7 4.8 first second 3 1 88 -6 0.7800002 0.919997453689575 1 1 -1 0
lala 4 1.2 second second 9 1 89 6 9.18 0.459997892379761 1 1 1 1
lala 9 19.2 second second 7 1 90 4 -19.72 3.31999540328979 1 1 1 1
lala 6 0.6 first first 5 1 91 8 -8.240001 1.29999709129334 -1 1 1 1
lala 3 1.2 second first 10 1 92 -8 -2.88 4.61999416351318 -1 0 -1 0
lala 10 38.4 first first 7 1 93 -4 18.68 0.259998083114624 -1 1 1 0
lala 2 1.2 second second 14 1 94 6 -5.16 5.41999340057373 2 0 1 1
lala 4 1.2 first second 10 1 95 -8 -4.08 0.539997816085815 -1 0 -1 0
lala 7 9.6 first first 4 1 96 8 13.68 1.95999670028687 -1 0 1 1
lala 5 0.6 second second 9 1 97 -6 9.780001 0.499997854232788 -1 1 1 0
lala 7 9.6 second second 6 1 98 4 -15.84 3.59999513626099 1 0 1 1
lala 7 0.6 first second 5 1 99 -8 -7.640001 2.89999580383301 1 1 -1 0
lala 8 19.2 second second 6 1 100 -4 3.360001 0.479997873306274 -1 0 1 0
lala 5 1.2 second second 10 1 101 8 -2.88 0.139998197555542 1 0 1 1
lala 11 76.8 first first 7 1 102 4 -58.12 1.01999735832214 1 1 1 1
lala 8 4.8 first first 4 1 103 -8 18.48 0.839997529983521 1 0 1 0
lala 9 4.8 first first 4 1 104 8 13.68 0.499997854232788 -1 0 1 1
lala 8 9.6 first first 3 1 105 6 10.38 2.79999589920044 -1 1 1 1
lala 3 1.2 second first 14 1 106 -6 -3.96 0.799997568130493 -2 0 -1 0
lala 10 4.8 second second 4 1 107 -8 18.48 0.819997549057007 1 0 1 0
lala 7 0.3 second second 16 1 108 8 7.379999 1.21999716758728 2 0 1 1
lala 7 1.2 first second 0 1 109 4 1.44 0.739997625350952 -1 0 -1 1
lala 9 4.8 first second 3 1 110 6 5.580001 0.499997854232788 -1 1 -1 1
lala 7 0.6 first second 1 1 111 -4 -5.92 0.459997892379761 1 1 -1 0
lala 6 0.6 second second 17 1 112 -8 -11.84 0.379997968673706 -2 1 1 0
lala 7 0.3 second second 17 1 113 -8 -11.54 1.23999714851379 -2 1 1 0
lala 6 0.3 first second 13 1 114 -4 -4.420001 0.799997568130493 -2 1 -1 0
lala 10 2.4 second first 3 1 115 -6 3.180001 0.959997415542603 1 1 -1 0
lala 9 0.0375 second first 2 1 116 6 -5.5725 1.47999691963196 -1 0 -1 1
lala 6 0.6 first first 9 1 117 6 9.18 1.13999724388123 1 1 1 1
lala 7 0.15 first second 13 1 118 -4 -4.570001 0.779997587203979 -2 1 -1 0
lala 8 0.3 second first 5 1 119 8 -7.340001 1.61999702453613 -1 1 -1 1
lala 5 1.2 second second 11 1 120 -8 -8.240001 1.05999732017517 -1 1 1 0
lala 11 2.4 second second 3 1 121 6 5.580001 0.699997663497925 -1 1 1 1
lala 8 0.3 second second 17 1 122 -8 -11.24 0.819997549057007 -2 1 1 0
lala 2 1.2 first second 8 1 123 6 2.76 0.919997453689575 1 0 -1 1
lala 9 38.4 second second 6 1 124 4 -35.04 0.659997701644897 1 0 1 1
lala 10 76.8 first first 6 1 125 -4 41.76 0.179998159408569 -1 0 1 0
lala 4 1.2 first second 14 1 126 -6 -5.16 2.57999610900879 -2 0 -1 0
lala 3 1.2 first second 8 1 127 6 3.96 0.639997720718384 1 0 -1 1
lala 11 153.6 second second 6 1 128 -4 195.36 0.459997892379761 -1 0 1 0
lala 12 307.2 first first 6 1 129 -4 502.56 2.41999626159668 -1 0 1 0
lala 8 0.15 second second 13 1 130 -4 -4.720001 3.21999549865723 -2 1 1 0
lala 9 0.3 second second 17 1 131 -8 -10.94 0.61999773979187 -2 1 1 0
lala 5 1.2 first second 12 1 132 4 -0.24 0.699997663497925 2 0 -1 1
lala 10 0.01875 second first 2 1 133 -6 -5.59125 0.39999794960022 1 0 -1 0
lala 9 0.3 second second 5 1 134 8 -7.04 2.83999586105347 -1 1 1 1
lala 6 4.8 first first 15 1 135 -6 -9.179999 0.899997472763062 -2 1 1 0
lala 7 0.6 second first 9 1 136 -6 9.780001 1.95999670028687 -1 1 -1 0
lala 6 2.4 first second 11 1 137 8 -10.64 0.539997816085815 1 1 -1 1
lala 9 0.075 second first 13 1 138 -4 -4.645001 1.21999716758728 -2 1 -1 0
lala 8 0.6 first first 1 1 139 4 -5.32 1.45999693870544 -1 1 1 1
lala 12 153.6 second second 7 1 140 4 -211.72 0.339998006820679 1 1 1 1
lala 11 0.01875 first second 2 1 141 6 -5.5725 1.03999733924866 -1 0 -1 1
lala 13 614.4 first first 6 1 142 -4 1116.96 0.819997549057007 -1 0 1 0
lala 10 0.6 second second 17 1 143 8 -11.54 4.1999945640564 2 1 1 1
lala 11 1.2 first second 17 1 144 8 -12.74 3.01999568939209 2 1 -1 1
lala 9 0.3 second first 1 1 145 4 -5.62 0.739997625350952 -1 1 -1 1
lala 6 2.4 first second 12 1 146 -4 -2.64 1.59999680519104 -2 0 -1 0
lala 4 1.2 first second 8 1 147 -6 2.76 0.99999737739563 -1 0 -1 0
lala 8 0.3 second first 9 1 148 6 10.08 1.05999732017517 1 1 -1 1
lala 10 0.15 first second 1 1 149 -4 -5.77 0.439997911453247 1 1 -1 0
lala 13 307.2 second second 7 1 150 4 -518.92 0.99999737739563 1 1 1 1
lala 14 614.4 second second 7 1 151 4 -1133.32 0.599997758865356 1 1 1 1
lala 7 4.8 second first 12 1 152 4 2.16 1.35999703407288 2 0 -1 1
lala 7 9.6 first first 15 1 153 6 -18.78 0.639997720718384 2 1 1 1
lala 12 1.2 first second 3 1 154 6 4.380001 1.89999675750732 -1 1 -1 1
lala 15 1228.8 second second 7 1 155 4 -2362.12 0.479997873306274 1 1 1 1
lala 8 19.2 first second 15 1 156 -6 0.420002 3.37999534606934 -2 1 -1 0
lala 11 9.6 second second 4 1 157 -8 28.08 1.73999691009521 1 0 1 0
lala 9 0.3 first second 9 1 158 6 10.38 2.65999603271484 1 1 -1 1
lala 8 9.6 second second 12 1 159 -4 -7.440001 1.0999972820282 -2 0 1 0
lala 14 1228.8 first first 6 1 160 -4 2345.76 0.0399982929229736 -1 0 1 0
lala 7 1.2 second first 11 1 161 8 -9.440001 0.01999831199646 1 1 -1 1
lala 12 0.01875 first second 2 1 162 -6 -5.59125 4.27999448776245 1 0 -1 0
lala 16 2457.6 first first 7 1 163 -4 95.47998 0.01999831199646 -1 1 1 0
lala 11 0.15 first second 1 1 164 -4 -5.92 1.91999673843384 1 1 -1 0
lala 10 0.3 second second 9 1 165 -6 10.08 3.21999549865723 -1 1 1 0
lala 10 0.0375 first first 13 1 166 -4 -4.682501 1.77999687194824 -2 1 1 0
lala 12 0.6 second first 17 1 167 -8 -13.34 1.95999670028687 -2 1 -1 0
lala 13 0.6 second first 3 1 168 -6 3.780001 1.55999684333801 1 1 -1 0
lala 5 2.4 first first 8 1 169 6 5.16 0.779997587203979 1 0 1 1
lala 13 0.6 first first 17 1 170 8 -12.74 0.679997682571411 2 1 1 1
lala 17 4915.2 first first 7 1 171 -4 5010.68 0.359997987747192 -1 1 1 0
lala 14 0.6 second first 3 1 172 -6 3.180001 2.11999654769897 1 1 -1 0
lala 10 0.15 first second 5 1 173 -8 -6.89 0.439997911453247 1 1 -1 0
lala 6 0.6 second second 10 1 174 -8 -2.28 0.599997758865356 -1 0 1 0
lala 7 0.6 second first 10 1 175 -8 -1.68 1.3999969959259 -1 0 -1 0
lala 13 0.0375 first second 2 1 176 6 -5.55375 1.11999726295471 -1 0 -1 1
lala 12 19.2 first first 4 1 177 -8 47.28 1.81999683380127 1 0 1 0
lala 8 1.2 second first 0 1 178 -4 0.24 0.599997758865356 1 0 -1 0
lala 11 0.01875 first first 13 1 179 -4 -4.663751 1.41999697685242 -2 1 1 0
lala 18 9830.4 second second 7 1 180 4 -4819.72 0.859997510910034 1 1 1 1
lala 5 1.2 second first 14 1 181 -6 -6.36 1.3999969959259 -2 0 -1 0
lala 14 0.3 first second 17 1 182 -8 -12.44 1.67999696731567 -2 1 -1 0
lala 6 1.2 second first 8 1 183 -6 6.36 0.599997758865356 -1 0 -1 0
lala 14 0.075 second first 2 1 184 6 -5.47875 1.95999670028687 -1 0 -1 1
lala 9 1.2 first first 0 1 185 -4 -0.96 0.459997892379761 1 0 1 0
lala 10 0.6 first first 0 1 186 4 -1.56 0.979997396469116 -1 0 1 1
lala 11 0.075 second second 5 1 187 8 -6.815001 1.29999709129334 -1 1 1 1
lala 11 0.6 second first 0 1 188 -4 -0.96 1.63999700546265 1 0 -1 0
lala 15 0.6 second first 3 1 189 -6 2.580001 0.599997758865356 1 1 -1 0
lala 13 38.4 first second 4 1 190 8 8.879997 1.11999726295471 -1 0 -1 1
lala 11 0.15 first second 9 1 191 6 9.930001 0.779997587203979 1 1 -1 1
lala 15 0.15 first first 17 1 192 8 -12.29 0.759997606277466 2 1 1 1
lala 12 0.0375 second second 5 1 193 8 -6.8525 0.359997987747192 -1 1 1 1
lala 9 9.6 first second 15 1 194 -6 -9.179998 0.899997472763062 -2 1 -1 0
lala 8 1.2 first first 11 1 195 8 -8.240002 1.17999720573425 1 1 1 1
lala 6 2.4 second second 14 1 196 6 -3.96 0.659997701644897 2 0 1 1
lala 9 0.6 first first 11 1 197 8 -8.840002 1.91999673843384 1 1 1 1
lala 10 9.6 second first 15 1 198 6 0.420002 1.77999687194824 2 1 -1 1
lala 12 0.3 first second 0 1 199 -4 -1.26 1.07999730110168 1 0 -1 0
lala 15 0.15 first second 2 1 200 -6 -5.62875 0.61999773979187 1 0 -1 0
lala 11 9.6 first first 15 1 201 6 10.02 3.49999523162842 2 1 1 1
lala 10 0.6 first first 11 1 202 -8 -8.240002 2.47999620437622 -1 1 1 0
lala 12 0.01875 first second 13 1 203 4 -4.682501 0.639997720718384 2 1 -1 1
lala 13 0.0375 first second 5 1 204 8 -6.89 0.01999831199646 -1 1 -1 1
lala 11 0.6 first first 11 1 205 8 -8.840002 0.759997606277466 1 1 1 1
lala 7 0.6 second first 8 1 206 6 6.96 1.01999735832214 1 0 -1 1
lala 14 0.01875 first second 5 1 207 -8 -6.908751 1.57999682426453 1 1 -1 0
lala 16 0.075 first first 17 1 208 8 -12.365 0.699997663497925 2 1 1 1
lala 14 19.2 second first 4 1 209 -8 -10.32 0.979997396469116 1 0 -1 0
lala 8 0.3 first first 10 1 210 8 -1.38 0.279998064041138 1 0 1 1
lala 15 19.2 second second 4 1 211 8 8.879997 0.61999773979187 -1 0 1 1
lala 8 0.3 second second 16 1 212 8 7.079999 0.959997415542603 2 0 1 1
lala 12 4.8 first first 15 1 213 6 5.220002 1.25999712944031 2 1 1 1
lala 16 1.2 first second 3 1 214 -6 1.380001 1.7199969291687 1 1 -1 0
lala 12 1.2 first second 11 1 215 8 -10.04 0.99999737739563 1 1 -1 1
lala 13 0.6 first first 11 1 216 8 -9.440001 1.59999680519104 1 1 1 1
lala 17 0.075 second second 17 1 217 8 -12.44 0.379997968673706 2 1 1 1
lala 9 0.15 first second 10 1 218 8 -1.53 0.439997911453247 1 0 -1 1
lala 12 0.075 first first 9 1 219 -6 9.855001 3.15999555587769 -1 1 1 0
lala 9 0.3 second first 16 1 220 8 6.779999 1.75999689102173 2 0 -1 1
lala 7 1.2 first first 14 1 221 6 -5.16 0.759997606277466 2 0 1 1
lala 9 4.8 second first 12 1 222 4 -12.24 2.45999622344971 2 0 -1 1
lala 16 9.6 second second 4 1 223 -8 18.48 0.679997682571411 1 0 1 0
lala 10 0.075 first second 10 1 224 -8 -1.605 3.85999488830566 -1 0 -1 0
lala 13 0.0375 second second 9 1 225 -6 9.892502 0.259998083114624 -1 1 1 0
lala 12 0.15 first first 1 1 226 4 -5.77 0.499997854232788 -1 1 1 1
lala 14 0.0375 first second 9 1 227 -6 9.930002 0.959997415542603 -1 1 -1 0
lala 17 9.6 second second 4 1 228 8 8.879997 2.95999574661255 -1 0 1 1
lala 11 0.075 first second 10 1 229 8 -1.53 0.99999737739563 1 0 -1 1
lala 15 0.01875 first second 9 1 230 6 9.948752 0.699997663497925 1 1 -1 1
lala 15 0.01875 second first 5 1 231 8 -6.89 0.419997930526733 -1 1 -1 1
lala 10 0.15 second first 16 1 232 8 6.929999 1.11999726295471 2 0 -1 1
lala 17 2.4 first first 3 1 233 -6 -1.019999 0.119998216629028 1 1 1 0
lala 19 19660.8 second first 7 1 234 -4 14841.08 1.31999707221985 -1 1 -1 0
lala 15 2457.6 first first 6 1 235 4 -111.8398 2.07999658584595 1 0 1 1
lala 16 0.01875 second first 5 1 236 -8 -6.908751 0.759997606277466 1 1 -1 0
lala 8 1.2 second second 14 1 237 6 -6.36 2.35999631881714 2 0 1 1
lala 16 0.01875 first first 9 1 238 -6 9.930002 3.7599949836731 -1 1 1 0
lala 14 0.3 first second 11 1 239 -8 -9.140001 1.45999693870544 -1 1 -1 0
lala 10 2.4 first second 12 1 240 4 -9.84 1.25999712944031 2 0 -1 1
lala 12 0.075 first first 10 1 241 -8 -1.605 0.959997415542603 -1 0 1 0
lala 17 0.0375 first second 5 1 242 -8 -6.94625 0.679997682571411 1 1 -1 0
lala 15 0.15 second second 11 1 243 8 -8.990002 0.639997720718384 1 1 1 1
lala 13 0.3 first second 0 1 244 4 -0.96 1.8599967956543 -1 0 -1 1
lala 8 0.6 first first 8 1 245 -6 6.36 1.31999707221985 -1 0 1 0
lala 18 0.075 first second 5 1 246 8 -6.871251 0.519997835159302 -1 1 -1 1
lala 11 2.4 second second 12 1 247 4 -7.44 0.799997568130493 2 0 1 1
lala 14 0.3 second first 0 1 248 -4 -1.26 0.959997415542603 1 0 -1 0
lala 13 0.075 second first 1 1 249 -4 -5.695 0.61999773979187 1 1 -1 0
lala 20 9830.4 second second 7 1 250 4 24671.48 0.799997568130493 1 1 1 1
lala 19 0.15 second first 5 1 251 8 -6.721251 1.07999730110168 -1 1 -1 1
lala 9 0.3 second second 8 1 252 6 6.059999 1.35999703407288 1 0 1 1
lala 13 0.009375 first first 13 1 253 -4 -4.691876 1.51999688148499 -2 1 1 0
lala 16 4915.2 first first 6 1 254 4 -5027.04 0.639997720718384 1 0 1 1
lala 14 0.0046875 first first 13 1 255 -4 -4.687189 1.27999711036682 -2 1 1 0
lala 10 0.3 first second 8 1 256 6 5.759999 2.89999580383301 1 0 -1 1
lala 21 4915.2 second second 7 1 257 -4 29586.68 0.819997549057007 -1 1 1 0
lala 17 0.009375 first second 9 1 258 -6 9.939377 0.679997682571411 -1 1 -1 0
lala 11 0.15 first second 16 1 259 -8 6.779999 1.7199969291687 -2 0 -1 0
lala 13 4.8 first second 15 1 260 6 0.420002 0.699997663497925 2 1 -1 1
lala 14 0.0375 second first 1 1 261 4 -5.6575 2.47999620437622 -1 1 -1 1
lala 12 1.2 first first 12 1 262 4 -8.64 1.83999681472778 2 0 1 1
lala 16 0.3 second first 2 1 263 6 -5.32875 0.939997434616089 -1 0 -1 1
lala 18 0.0046875 first second 9 1 264 -6 9.93469 1.11999726295471 -1 1 -1 0
lala 18 9.6 first first 4 1 265 8 -0.7200031 2.79999589920044 -1 0 1 1
lala 12 0.15 second second 16 1 266 -8 6.629999 0.739997625350952 -2 0 1 0
lala 19 19.2 second second 4 1 267 -8 18.48 0.939997434616089 1 0 1 0
lala 22 4915.2 first first 7 1 268 4 24671.48 0.439997911453247 1 1 1 1
lala 20 0.3 first second 5 1 269 -8 -7.021251 0.519997835159302 1 1 -1 0
lala 17 0.6 first first 2 1 270 -6 -5.92875 0.699997663497925 1 0 1 0
lala 15 0.0375 first second 1 1 271 -4 -5.695 0.61999773979187 1 1 -1 0
lala 17 9830.4 second second 6 1 272 4 -14857.44 0.579997777938843 1 0 1 1
lala 9 1.2 first second 14 1 273 6 -7.559999 0.839997529983521 2 0 -1 1
lala 16 0.075 first first 11 1 274 -8 -8.915002 0.499997854232788 -1 1 1 0
lala 17 0.075 first first 11 1 275 8 -8.990002 0.759997606277466 1 1 1 1
lala 19 0.0046875 second second 9 1 276 -6 9.930002 0.879997491836548 -1 1 1 0
lala 18 0.075 second first 17 1 277 8 -12.515 1.15999722480774 2 1 -1 1
lala 13 0.075 second second 16 1 278 8 6.554999 1.31999707221985 2 0 1 1
lala 14 0.075 second second 16 1 279 8 6.479999 1.47999691963196 2 0 1 1
lala 13 0.0375 second first 10 1 280 -8 -1.5675 1.03999733924866 -1 0 -1 0
lala 16 0.0375 second second 1 1 281 -4 -5.7325 1.31999707221985 1 1 1 0
lala 13 1.2 second second 12 1 282 4 -9.84 1.27999711036682 2 0 1 1
lala 14 0.01875 first first 10 1 283 8 -1.54875 0.599997758865356 1 0 1 1
lala 15 0.009375 first first 10 1 284 -8 -1.539375 1.05999732017517 -1 0 1 0
lala 14 2.4 second second 15 1 285 6 2.820002 1.5399968624115 2 1 1 1
lala 10 0.6 second second 14 1 286 6 -6.96 0.899997472763062 2 0 1 1
lala 15 0.075 first second 16 1 287 8 6.404999 0.599997758865356 2 0 -1 1
lala 11 0.15 first second 8 1 288 -6 5.609999 1.29999709129334 -1 0 -1 0
lala 23 4915.2 second second 7 1 289 4 19756.28 1.29999709129334 1 1 1 1
lala 21 0.6 first second 5 1 290 -8 -7.621251 0.579997777938843 1 1 -1 0
lala 18 0.3 second first 2 1 291 -6 -5.62875 0.759997606277466 1 0 -1 0
lala 20 38.4 first first 4 1 292 -8 56.88 0.319998025894165 1 0 1 0
lala 16 0.0375 first second 16 1 293 8 6.442499 0.659997701644897 2 0 -1 1
lala 15 0.6 second first 0 1 294 4 -0.66 0.319998025894165 -1 0 -1 1
lala 17 0.0375 second first 16 1 295 8 6.479999 1.65999698638916 2 0 -1 1
lala 18 0.075 first first 11 1 296 -8 -8.915002 0.839997529983521 -1 1 1 0
lala 21 76.8 first first 4 1 297 -8 133.68 0.39999794960022 1 0 1 0
lala 18 0.0375 first second 16 1 298 -8 6.442499 1.29999709129334 -2 0 -1 0
lala 18 19660.8 first first 6 1 299 -4 4803.36 0.219998121261597 -1 0 1 0
lala 16 0.009375 first second 10 1 300 8 -1.54875 0.299998044967651 1 0 -1 1
lala 12 0.15 first second 8 1 301 -6 5.459999 0.579997777938843 -1 0 -1 0
lala 11 0.3 first first 14 1 302 -6 -6.659999 0.559997797012329 -2 0 1 0
lala 19 0.075 second second 16 1 303 8 6.517499 1.3999969959259 2 0 1 1
lala 22 153.6 second second 4 1 304 8 -19.92001 0.879997491836548 -1 0 1 1
lala 20 0.0375 first second 16 1 305 -8 6.554999 1.0999972820282 -2 0 -1 0
lala 17 0.01875 first second 1 1 306 4 -5.75125 0.639997720718384 -1 1 -1 1
lala 21 0.01875 first first 16 1 307 8 6.573749 0.279998064041138 2 0 1 1
lala 18 0.009375 first second 1 1 308 4 -5.741875 0.459997892379761 -1 1 -1 1
lala 18 1.2 first second 3 1 309 -6 0.1800013 0.599997758865356 1 1 -1 0
lala 19 0.15 second second 2 1 310 -6 -5.77875 0.679997682571411 1 0 1 0
lala 19 39321.6 second second 6 1 311 -4 44124.96 0.679997682571411 -1 0 1 0
lala 24 9830.4 first first 7 1 312 -4 29586.68 0.01999831199646 -1 1 1 0
lala 20 0.075 first second 2 1 313 6 -5.85375 0.499997854232788 -1 0 -1 1
lala 19 0.15 second second 11 1 314 8 -9.065001 1.23999714851379 1 1 1 1
lala 20 0.00234375 first first 9 1 315 -6 9.932346 0.879997491836548 -1 1 1 0
lala 23 307.2 second second 4 1 316 -8 287.28 0.599997758865356 1 0 1 0
lala 25 19660.8 first second 7 1 317 4 9925.881 0.739997625350952 1 1 -1 1
lala 20 78643.2 second second 6 1 318 -4 122768.2 1.49999690055847 -1 0 1 0
lala 19 0.6 first second 3 1 319 -6 -0.4199988 2.2999963760376 1 1 -1 0
lala 14 1.2 first second 12 1 320 -4 -8.64 1.35999703407288 -2 0 -1 0
lala 19 0.0375 first first 17 1 321 -8 -12.5525 2.41999626159668 -2 1 1 0
lala 20 0.01875 second second 17 1 322 -8 -12.53375 1.15999722480774 -2 1 1 0
lala 22 1.2 second first 5 1 323 -8 -8.821251 0.859997510910034 1 1 -1 0
lala 24 614.4 first first 4 1 324 -8 901.6801 0.499997854232788 1 0 1 0
lala 17 0.0046875 first second 10 1 325 -8 -1.553437 1.07999730110168 -1 0 -1 0
lala 13 0.15 second second 8 1 326 6 5.609999 0.359997987747192 1 0 1 1
lala 14 0.075 second first 8 1 327 6 5.534999 0.99999737739563 1 0 -1 1
lala 16 1.2 first second 0 1 328 4 0.5400001 0.739997625350952 -1 0 -1 1
lala 20 0.3 second first 11 1 329 -8 -8.765001 0.719997644424438 -1 1 -1 0
lala 26 9830.4 second second 7 1 330 4 19756.28 0.379997968673706 1 1 1 1
lala 21 0.01875 second first 17 1 331 8 -12.5525 1.73999691009521 2 1 -1 1
lala 15 0.0375 first second 8 1 332 -6 5.497499 1.17999720573425 -1 0 -1 0
lala 17 2.4 first first 0 1 333 -4 -1.86 0.99999737739563 1 0 1 0
lala 16 0.0375 second second 8 1 334 -6 5.46 0.519997835159302 -1 0 1 0
lala 21 157286.4 second second 6 1 335 4 -34518.24 0.439997911453247 1 0 1 1
lala 12 0.3 first first 14 1 336 -6 -6.359999 0.499997854232788 -2 0 1 0
lala 18 1.2 first second 0 1 337 -4 -0.66 0.379997968673706 1 0 -1 0
lala 20 0.6 first second 3 1 338 -6 -1.019999 1.25999712944031 1 1 -1 0
lala 21 0.00234375 first first 9 1 339 6 9.930002 0.319998025894165 1 1 1 1
lala 15 0.0046875 second second 13 1 340 4 -4.691876 1.27999711036682 2 1 1 1
lala 22 0.009375 second first 16 1 341 8 6.564374 0.679997682571411 2 0 -1 1
lala 15 1.2 first first 15 1 342 -6 4.020002 0.39999794960022 -2 1 1 0
lala 18 0.0046875 first second 10 1 343 8 -1.54875 0.759997606277466 1 0 -1 1
lala 23 0.0046875 first first 16 1 344 8 6.569061 1.27999711036682 2 0 1 1
lala 16 0.0046875 first first 13 1 345 4 -4.696563 0.379997968673706 2 1 1 1
lala 19 0.0046875 second first 10 1 346 8 -1.544062 1.15999722480774 1 0 -1 1
lala 13 0.3 first first 14 1 348 -6 -6.059999 0.899997472763062 -2 0 1 0
lala 16 1.2 first first 15 1 349 -6 5.220002 1.03999733924866 -2 1 1 0
lala 21 0.6 second second 3 1 350 6 -0.4199988 0.539997816085815 -1 1 1 1
lala 17 1.2 first first 15 1 351 6 4.020002 1.17999720573425 2 1 1 1
lala 22 314572.8 first first 6 1 352 4 -349091.1 0.359997987747192 1 0 1 1
lala 17 0.01875 first first 8 1 353 -6 5.47875 0.919997453689575 -1 0 1 0
lala 19 0.6 second first 0 1 354 -4 -1.26 0.779997587203979 1 0 -1 0
lala 23 2.4 first second 5 1 355 -8 -11.22125 0.739997625350952 1 1 -1 0
lala 24 4.8 first second 5 1 356 -8 -16.02125 1.37999701499939 1 1 -1 0
lala 22 0.3 first second 3 1 357 -6 -0.1199988 0.479997873306274 1 1 -1 0
lala 18 0.01875 first first 8 1 358 -6 5.4975 1.0999972820282 -1 0 1 0
lala 18 2.4 second first 15 1 359 6 1.620002 0.699997663497925 2 1 -1 1
lala 24 0.00234375 second first 16 1 361 8 6.566718 2.35999631881714 2 0 -1 1
lala 19 1.2 first first 15 1 362 6 2.820002 0.99999737739563 2 1 1 1
lala 23 0.15 first second 3 1 363 -6 -0.2699988 0.919997453689575 1 1 -1 0
lala 27 4915.2 first second 7 1 364 4 14841.08 4.23999452590942 1 1 -1 1
lala 25 9.6 second first 5 1 365 8 -6.421251 0.939997434616089 -1 1 -1 1
lala 23 629145.6 first first 6 1 366 4 -978236.7 0.159998178482056 1 0 1 1
lala 20 0.6 second first 0 1 368 4 -0.66 0.819997549057007 -1 0 -1 1
lala 21 0.15 first first 11 1 370 8 -8.615002 0.959997415542603 1 1 1 1
lala 17 0.009375 first first 13 1 371 -4 -4.687188 1.49999690055847 -2 1 1 0
lala 19 0.009375 second second 1 1 372 4 -5.7325 0.519997835159302 -1 1 1 1
lala 20 0.0046875 first first 1 1 373 -4 -5.727813 0.439997911453247 1 1 1 0
lala 25 0.001171875 second second 16 1 375 8 6.56789 0.659997701644897 2 0 1 1
lala 18 0.01875 second second 13 1 376 -4 -4.668438 1.05999732017517 -2 1 1 0
lala 24 0.15 first second 3 1 377 -6 -0.4199988 0.779997587203979 1 1 -1 0
lala 20 0.009375 second first 10 1 378 -8 -1.553437 1.15999722480774 -1 0 -1 0
lala 21 0.6 first second 0 1 379 4 -0.05999994 0.599997758865356 -1 0 -1 1
lala 14 0.6 first second 14 1 380 -6 -5.459999 1.61999702453613 -2 0 -1 0
lala 15 0.3 first second 14 1 381 6 -5.159999 0.339998006820679 2 0 -1 1
lala 15 0.6 second first 12 1 382 4 -8.04 1.15999722480774 2 0 -1 1
lala 21 0.0046875 first first 1 1 383 -4 -5.723125 1.21999716758728 1 1 1 0
lala 24 1258291 second second 6 1 384 -4 280054.6 0.699997663497925 -1 0 1 0
lala 22 0.009375 first first 17 1 385 -8 -12.56187 1.0999972820282 -2 1 1 0
lala 26 19.2 first first 5 1 386 8 12.77875 0.539997816085815 -1 1 1 1
lala 27 9.6 second second 5 1 387 -8 22.37875 2.19999647140503 1 1 1 0
lala 21 0.0375 first second 2 1 388 -6 -5.89125 0.599997758865356 1 0 -1 0
lala 20 0.6 second second 15 1 389 6 2.220002 2.33999633789063 2 1 1 1
lala 22 1.2 first first 0 1 390 -4 -1.26 2.55999612808228 1 0 1 0
lala 23 0.0046875 first second 17 1 391 -8 -12.55719 3.25999546051025 -2 1 -1 0
lala 25 1228.8 second second 4 1 392 -8 2130.48 1.03999733924866 1 0 1 0
lala 26 0.0005859375 first second 16 1 393 -8 6.568476 0.839997529983521 -2 0 -1 0
lala 21 0.6 second first 15 1 394 6 1.620002 1.27999711036682 2 1 -1 1
lala 16 0.6 first second 12 1 395 -4 -8.64 0.819997549057007 -2 0 -1 0
lala 17 0.6 second second 12 1 396 4 -8.04 0.779997587203979 2 0 1 1
lala 24 0.00234375 first first 17 1 397 -8 -12.55953 0.739997625350952 -2 1 1 0
lala 22 0.3 second second 15 1 398 -6 1.320002 1.13999724388123 -2 1 1 0
lala 25 0.15 first first 3 1 399 6 -0.2699988 0.679997682571411 -1 1 1 1
lala 26 0.075 first second 3 1 400 6 -0.3449988 1.7199969291687 -1 1 -1 1
lala 21 0.01875 first first 10 1 401 -8 -1.572187 0.61999773979187 -1 0 1 0
lala 23 0.15 first second 15 1 403 -6 1.470002 2.31999635696411 -2 1 -1 0
lala 25 0.001171875 second first 17 1 404 8 -12.5607 2.33999633789063 2 1 -1 1
lala 26 0.0005859375 first second 17 1 405 8 -12.56012 1.83999681472778 2 1 -1 1
lala 22 0.0046875 first first 1 1 407 -4 -5.718438 2.09999656677246 1 1 1 0
lala 16 0.3 second first 14 1 408 -6 -5.459999 1.3999969959259 -2 0 -1 0
lala 22 0.0375 first first 2 1 409 -6 -5.92875 1.37999701499939 1 0 1 0
lala 26 2457.6 first first 4 1 410 -8 4588.08 0.61999773979187 1 0 1 0
lala 24 0.075 second second 15 1 411 6 1.545002 2.159996509552 2 1 1 1
lala 19 0.01875 second second 8 1 412 -6 5.51625 1.43999695777893 -1 0 1 0
lala 23 0.6 second first 0 1 413 4 -1.86 0.659997701644897 -1 0 -1 1
lala 23 0.01875 first second 2 1 414 -6 -5.909999 0.839997529983521 1 0 -1 0
lala 27 4915.2 first first 4 1 415 -8 9503.28 0.799997568130493 1 0 1 0
lala 17 0.3 second first 14 1 417 6 -5.159999 2.17999649047852 2 0 -1 1
lala 18 0.6 first second 14 1 418 6 -4.559999 1.81999683380127 2 0 -1 1
lala 22 0.075 second second 11 1 419 -8 -8.540002 2.47999620437622 -1 1 1 0
lala 24 0.3 first second 0 1 420 -4 -2.16 0.599997758865356 1 0 -1 0
lala 25 2516583 second second 6 1 421 4 -2236528 0.61999773979187 1 0 1 1
lala 23 0.075 second second 11 1 422 8 -8.615002 1.75999689102173 1 1 1 1
lala 22 0.009375 first first 10 1 423 8 -1.581562 0.539997816085815 1 0 1 1
lala 24 0.075 first first 11 1 424 -8 -8.540002 1.31999707221985 -1 1 1 0
lala 23 0.009375 second first 10 1 425 8 -1.590937 1.17999720573425 1 0 -1 1
lala 24 0.0046875 first second 10 1 426 8 -1.586249 0.559997797012329 1 0 -1 1
lala 20 0.0375 second first 8 1 427 6 5.47875 0.699997663497925 1 0 -1 1
lala 19 1.2 first second 14 1 428 -6 -5.759999 1.31999707221985 -2 0 -1 0
lala 20 2.4 second second 14 1 430 6 -3.359999 0.61999773979187 2 0 1 1
lala 18 0.3 second first 12 1 431 4 -8.34 0.919997453689575 2 0 -1 1
lala 25 0.3 first first 0 1 432 4 -1.86 0.819997549057007 -1 0 1 1
lala 26 5033165 second second 6 1 433 4 -7269693 0.899997472763062 1 0 1 1
lala 21 0.01875 second second 8 1 434 6 5.4975 2.53999614715576 1 0 1 1
lala 25 0.15 second second 11 1 435 8 -8.690001 0.879997491836548 1 1 1 1
lala 24 0.009375 first second 2 1 436 6 -5.900624 1.19999718666077 -1 0 -1 1
lala 26 0.15 first second 0 1 437 -4 -1.71 1.47999691963196 1 0 -1 0
lala 27 0.075 second first 0 1 438 -4 -1.785 1.31999707221985 1 0 -1 0
lala 27 1.006633E+07 second second 6 1 439 4 -1.733602E+07 1.17999720573425 1 0 1 1
lala 25 0.009375 second first 2 1 440 6 -5.891249 1.03999733924866 -1 0 -1 1
lala 27 0.0375 second first 3 1 441 6 -0.3074988 1.51999688148499 -1 1 -1 1
lala 26 0.009375 second second 2 1 445 6 -5.881874 0.939997434616089 -1 0 1 1
lala 21 1.2 second first 14 1 446 6 -4.559999 1.45999693870544 2 0 -1 1
lala 25 0.0046875 second first 10 1 447 8 -1.581562 0.579997777938843 1 0 -1 1
lala 22 0.009375 second first 8 1 448 -6 5.506876 0.819997549057007 -1 0 -1 0
lala 23 0.0046875 second second 8 1 449 6 5.511563 1.13999724388123 1 0 1 1
lala 24 0.00234375 second first 8 1 451 6 5.509219 0.939997434616089 1 0 -1 1
lala 22 0.6 second first 14 1 452 6 -3.96 0.799997568130493 2 0 -1 1
lala 25 0.0375 first first 15 1 453 -6 1.582502 0.679997682571411 -2 1 1 0
lala 19 0.15 first first 12 1 454 -4 -8.49 1.0999972820282 -2 0 1 0
lala 26 0.3 second first 11 1 455 8 -8.990002 1.07999730110168 1 1 -1 1
lala 25 0.001171875 first first 8 1 456 6 5.510391 0.479997873306274 1 0 1 1
lala 19 0.0375 first first 13 1 457 4 -4.705938 0.839997529983521 2 1 1 1
lala 26 0.0375 first first 15 1 458 -6 1.620002 0.679997682571411 -2 1 1 0
lala 27 0.0046875 second second 2 1 459 -6 -5.877187 1.35999703407288 1 0 1 0
lala 20 0.075 first second 12 1 460 4 -8.565 0.559997797012329 2 0 -1 1
lala 26 0.0005859375 first first 8 1 461 6 5.509805 1.61999702453613 1 0 1 1
lala 27 0.15 first second 11 1 462 -8 -9.140001 2.65999603271484 -1 1 -1 0
lala 21 0.0375 second first 12 1 463 -4 -8.6025 0.599997758865356 -2 0 -1 0
lala 26 0.0046875 second first 10 1 464 8 -1.576874 0.259998083114624 1 0 -1 1
lala 23 0.6 first second 14 1 465 -6 -4.559999 0.559997797012329 -2 0 -1 0
lala 22 0.0375 first second 12 1 466 -4 -8.64 1.57999682426453 -2 0 -1 0
lala 27 0.0375 second first 15 1 467 6 1.582502 0.01999831199646 2 1 -1 1
lala 20 0.075 second first 13 1 469 -4 -4.630938 0.879997491836548 -2 1 -1 0
lala 23 0.0375 second first 12 1 471 4 -8.6025 0.279998064041138 2 0 -1 1
lala 24 0.075 first first 12 1 472 4 -8.5275 0.479997873306274 2 0 1 1
lala 24 0.6 first second 14 1 473 6 -3.96 0.499997854232788 2 0 -1 1
lala 25 1.2 second second 14 1 474 -6 -5.16 1.17999720573425 -2 0 1 0
lala 26 0.6 first second 14 1 475 -6 -4.56 0.39999794960022 -2 0 -1 0
lala 25 0.0375 first first 12 1 476 -4 -8.49 0.339998006820679 -2 0 1 0
lala 21 0.0375 first second 13 1 477 4 -4.593438 0.319998025894165 2 1 -1 1
lala 26 0.0375 first second 12 1 478 4 -8.5275 0.339998006820679 2 0 -1 1
lala 27 0.01875 first second 12 1 479 -4 -8.54625 0.439997911453247 -2 0 -1 0
lala 22 0.0375 first first 13 1 480 4 -4.555938 0.319998025894165 2 1 1 1
lala 27 0.3 first first 14 1 481 6 -4.26 0.23999810218811 2 0 1 1
lala 23 0.01875 second second 13 1 482 -4 -4.537188 0.519997835159302 -2 1 1 0
lala 24 0.01875 second second 13 1 483 4 -4.555938 0.299998044967651 2 1 1 1
lala 25 0.01875 first first 13 1 484 4 -4.574688 0.459997892379761 2 1 1 1
lala 26 0.0375 second first 13 1 485 -4 -4.537189 0.679997682571411 -2 1 -1 0
