subject PestNr Step_Size_OnTrial Pest_Faster Pest_Interval Condition block trial velH velH_Pest Reaction_Time velH_Subject Start_Above Response_MotionEstimation RightOrLeftxRotations_first0 xRotations_first1 xRotations_first2 xRotations_first3 xRotations_first4 xRotations_first5 yRotations_first0 yRotations_first1 yRotations_first2 yRotations_first3 yRotations_first4 yRotations_first5 xRotations_second0 xRotations_second1 xRotations_second2 xRotations_second3 xRotations_second4 xRotations_second5 yRotations_second0 yRotations_second1 yRotations_second2 yRotations_second3 yRotations_second4 yRotations_second5
lala 1 1.2 0 second 8 1 1 5 3.3 5.98000192642212 1 0 -1 1 -0.02272769 -0.02007259 -0.020276 -0.01962399 -0.0198517 1000 -0.02272769 -0.02007259 -0.020276 -0.01962399 -0.0198517 1000 -0.03640356 -0.0401075 -0.04003587 -0.0381618 -0.04032375 1000 -0.03640356 -0.0401075 -0.04003587 -0.0381618 -0.04032375 1000
lala 1 1.2 1 second 17 1 2 6 7.98 1.35999703407288 0 1 1 0 -0.02526521 -0.02526112 -0.02536198 -0.02521636 -0.02606534 1000 -0.02526521 -0.02526112 -0.02536198 -0.02521636 -0.02606534 1000 -0.02645289 -0.02630617 -0.02613497 -0.02628532 -0.02631922 1000 -0.02645289 -0.02630617 -0.02613497 -0.02628532 -0.02631922 1000
lala 1 1.2 0 first 12 1 3 4 2.64 0.61999773979187 0 0 -1 0 -0.02419247 -0.02372865 -0.02380847 1000 1000 1000 -0.02419247 -0.02372865 -0.02380847 1000 1000 1000 -0.02426257 -0.02439878 -0.02438281 -0.02375735 -0.02339761 1000 -0.02426257 -0.02439878 -0.02438281 -0.02375735 -0.02339761 1000
lala 1 1.2 1 first 7 1 4 4 5.32 1.7199969291687 1 1 1 0 -0.02256962 -0.02254932 -0.02249243 1000 1000 1000 -0.02256962 -0.02254932 -0.02249243 1000 1000 1000 -0.02334266 -0.02306043 -0.02250431 -0.02276422 -0.02245964 1000 -0.02334266 -0.02306043 -0.02250431 -0.02276422 -0.02245964 1000
lala 2 1.2 1 first 8 1 5 5 4.5 3.87999486923218 1 0 1 1 -0.006652827 -0.007314619 -0.007525245 1000 1000 1000 -0.006652827 -0.007314619 -0.007525245 1000 1000 1000 -0.01424166 -0.0142242 -0.01404936 -0.01352347 -0.01304735 1000 -0.01424166 -0.0142242 -0.01404936 -0.01352347 -0.01304735 1000
lala 1 1.2 1 first 1 1 6 4 5.32 2.27999639511108 -1 1 1 0 -0.01331038 -0.01299465 -0.01286783 1000 1000 1000 -0.01331038 -0.01299465 -0.01286783 1000 1000 1000 -0.01403251 -0.01396 -0.01346012 -0.01339642 -0.01284819 1000 -0.01403251 -0.01396 -0.01346012 -0.01339642 -0.01284819 1000
lala 2 1.2 1 second 17 1 7 6 6.780001 1.55999684333801 0 1 1 0 -0.01329012 -0.01302676 -0.01269116 -0.01250902 -0.01234694 1000 -0.01329012 -0.01302676 -0.01269116 -0.01250902 -0.01234694 1000 -0.01048206 -0.01065724 -0.01116267 -0.01170899 -0.01154909 1000 -0.01048206 -0.01065724 -0.01116267 -0.01170899 -0.01154909 1000
lala 1 1.2 0 first 14 1 8 5 3.3 2.67999601364136 0 0 -1 1 -0.009819778 -0.01045184 -0.010363 1000 1000 1000 -0.009819778 -0.01045184 -0.010363 1000 1000 1000 -0.01218769 -0.01160959 -0.0112449 -0.01098786 -0.01114674 1000 -0.01218769 -0.01160959 -0.0112449 -0.01098786 -0.01114674 1000
lala 1 1.2 0 first 2 1 9 5 3.3 1.75999689102173 -1 0 -1 1 -0.01237843 -0.01236755 -0.01204653 1000 1000 1000 -0.01237843 -0.01236755 -0.01204653 1000 1000 1000 -0.01165413 -0.01167942 -0.01166353 -0.01163611 -0.01145783 1000 -0.01165413 -0.01167942 -0.01166353 -0.01163611 -0.01145783 1000
lala 2 1.2 0 first 7 1 10 4 4.12 2.89999580383301 1 1 -1 1 0.004944552 0.005661115 0.004064527 1000 1000 1000 0.004944552 0.005661115 0.004064527 1000 1000 1000 -0.005036391 -0.004659926 -0.004437018 -0.003947778 -0.00362678 1000 -0.005036391 -0.004659926 -0.004437018 -0.003947778 -0.00362678 1000
lala 3 1.2 0 first 8 1 11 5 3.3 0.799997568130493 1 0 -1 0 -0.004072345 -0.002974349 -0.003189653 1000 1000 1000 -0.004072345 -0.002974349 -0.003189653 1000 1000 1000 -0.006737287 -0.007991522 -0.01467454 -0.01700533 -0.01659737 1000 -0.006737287 -0.007991522 -0.01467454 -0.01700533 -0.01659737 1000
lala 1 1.2 1 second 5 1 12 6 7.98 3.6199951171875 -1 1 1 0 -0.01190252 -0.01263757 -0.01460633 -0.01653172 -0.01963788 1000 -0.01190252 -0.01263757 -0.01460633 -0.01653172 -0.01963788 1000 -0.009498409 -0.01020047 -0.01108959 -0.01104566 -0.01171042 1000 -0.009498409 -0.01020047 -0.01108959 -0.01104566 -0.01171042 1000
lala 1 1.2 1 first 9 1 13 5 6.65 0.639997720718384 1 1 1 0 -0.001345404 -0.002877836 -0.004736755 1000 1000 1000 -0.001345404 -0.002877836 -0.004736755 1000 1000 1000 -0.003168503 -0.003040449 -0.002323374 -0.002840412 -0.003349511 1000 -0.003168503 -0.003040449 -0.002323374 -0.002840412 -0.003349511 1000
lala 2 1.2 0 first 14 1 14 5 4.5 0.819997549057007 0 0 -1 0 -0.002041205 -0.002273152 -0.002478877 1000 1000 1000 -0.002041205 -0.002273152 -0.002478877 1000 1000 1000 -0.002362757 -0.002045743 -0.001761171 -0.001773516 -0.001516102 1000 -0.002362757 -0.002045743 -0.001761171 -0.001773516 -0.001516102 1000
lala 2 1.2 1 second 2 1 15 5 4.5 3.4799952507019 -1 0 1 1 7.576634E-05 0.0003706109 0.000557274 0.0003391039 0.0003114394 1000 7.576634E-05 0.0003706109 0.000557274 0.0003391039 0.0003114394 1000 0.005220269 -0.01051864 -0.01608169 -0.01617949 -0.01355724 1000 0.005220269 -0.01051864 -0.01608169 -0.01617949 -0.01355724 1000
lala 2 1.2 0 first 5 1 16 6 6.780001 2.81999588012695 -1 1 -1 1 -0.01501933 -0.01495412 -0.01466911 1000 1000 1000 -0.01501933 -0.01495412 -0.01466911 1000 1000 1000 -0.01674012 -0.01686595 -0.0164951 -0.0164398 -0.01642585 1000 -0.01674012 -0.01686595 -0.0164951 -0.0164398 -0.01642585 1000
lala 1 1.2 1 second 15 1 17 5 6.65 0.599997758865356 0 1 1 0 -0.01476387 -0.01509861 -0.01503074 -0.01467236 -0.01442176 1000 -0.01476387 -0.01509861 -0.01503074 -0.01467236 -0.01442176 1000 -0.01400255 -0.01410685 -0.01403917 -0.01453057 -0.01468211 1000 -0.01400255 -0.01410685 -0.01403917 -0.01453057 -0.01468211 1000
lala 3 1.2 1 first 5 1 18 6 7.98 1.8599967956543 -1 1 1 1 -0.01450776 -0.01420118 -0.01459133 1000 1000 1000 -0.01450776 -0.01420118 -0.01459133 1000 1000 1000 -0.01556212 -0.01544342 -0.01499898 -0.01466555 -0.01463815 1000 -0.01556212 -0.01544342 -0.01499898 -0.01466555 -0.01463815 1000
lala 3 1.2 0 first 7 1 19 4 5.32 2.51999616622925 1 1 -1 0 -0.01445406 -0.01474293 -0.01461184 1000 1000 1000 -0.01445406 -0.01474293 -0.01461184 1000 1000 1000 -0.01570107 -0.01534528 -0.01504551 -0.01504515 -0.01499267 1000 -0.01570107 -0.01534528 -0.01504551 -0.01504515 -0.01499267 1000
lala 2 1.2 0 second 1 1 20 4 4.12 0.579997777938843 -1 1 -1 1 -0.01543561 -0.01572272 -0.01603995 -0.01603904 -0.01602468 1000 -0.01543561 -0.01572272 -0.01603995 -0.01603904 -0.01602468 1000 -0.0167132 -0.01666673 -0.01643776 -0.01668727 -0.01692474 1000 -0.0167132 -0.01666673 -0.01643776 -0.01668727 -0.01692474 1000
lala 2 1.2 1 first 12 1 21 4 3.84 1.31999707221985 0 0 1 0 -0.01620562 -0.01657979 -0.01697158 1000 1000 1000 -0.01620562 -0.01657979 -0.01697158 1000 1000 1000 -0.0179016 -0.01767211 -0.01725645 -0.0169731 -0.0167596 1000 -0.0179016 -0.01767211 -0.01725645 -0.0169731 -0.0167596 1000
lala 1 1.2 1 first 13 1 22 4 5.32 2.45999622344971 0 1 1 1 -0.01784601 -0.0179712 -0.01801809 1000 1000 1000 -0.01784601 -0.0179712 -0.01801809 1000 1000 1000 -0.0180686 -0.01797149 -0.01786012 -0.01832414 -0.01873033 1000 -0.0180686 -0.01797149 -0.01786012 -0.01832414 -0.01873033 1000
lala 4 1.2 1 second 8 1 23 5 4.5 2.37999629974365 1 0 1 1 -0.02142488 -0.02166984 -0.02145571 -0.02131187 -0.02126141 1000 -0.02142488 -0.02166984 -0.02145571 -0.02131187 -0.02126141 1000 -0.02144434 -0.02125639 -0.02128622 -0.02097041 -0.02081891 1000 -0.02144434 -0.02125639 -0.02128622 -0.02097041 -0.02081891 1000
lala 5 1.2 0 second 8 1 24 5 3.3 2.79999589920044 1 0 -1 1 -0.02198598 -0.02247261 -0.02267766 -0.02279788 -0.0230494 1000 -0.02198598 -0.02247261 -0.02267766 -0.02279788 -0.0230494 1000 -0.02334039 -0.02328238 -0.02347744 -0.02344588 -0.02311341 1000 -0.02334039 -0.02328238 -0.02347744 -0.02344588 -0.02311341 1000
lala 1 1.2 0 second 6 1 25 4 2.64 1.83999681472778 1 0 -1 0 -0.02450857 -0.02443871 -0.02452811 -0.02453601 -0.0252557 1000 -0.02450857 -0.02443871 -0.02452811 -0.02453601 -0.0252557 1000 -0.02579452 -0.02515761 -0.02452427 -0.02423448 -0.02412514 1000 -0.02579452 -0.02515761 -0.02452427 -0.02423448 -0.02412514 1000
lala 2 1.2 1 second 6 1 26 4 3.84 2.57999610900879 1 0 1 0 -0.02406953 -0.02420249 -0.02454891 -0.02498565 -0.02541037 1000 -0.02406953 -0.02420249 -0.02454891 -0.02498565 -0.02541037 1000 -0.02610184 -0.02630226 -0.02626667 -0.0261406 -0.02623175 1000 -0.02610184 -0.02630226 -0.02626667 -0.0261406 -0.02623175 1000
lala 3 1.2 0 first 2 1 27 5 3.3 0.579997777938843 -1 0 -1 1 -0.02496338 -0.02506392 -0.02521138 1000 1000 1000 -0.02496338 -0.02506392 -0.02521138 1000 1000 1000 -0.02573819 -0.02554009 -0.02525675 -0.02563709 -0.02566361 1000 -0.02573819 -0.02554009 -0.02525675 -0.02563709 -0.02566361 1000
lala 4 1.2 0 second 5 1 28 6 6.780001 4.25999450683594 -1 1 -1 0 -0.02466197 -0.02403469 -0.02370108 -0.0234723 -0.02418823 1000 -0.02466197 -0.02403469 -0.02370108 -0.0234723 -0.02418823 1000 -0.02563814 -0.02563201 -0.02541584 -0.02536285 -0.0251995 1000 -0.02563814 -0.02563201 -0.02541584 -0.02536285 -0.0251995 1000
lala 1 1.2 1 first 11 1 29 6 7.98 0.319998025894165 1 1 1 0 -0.02478005 -0.02482853 -0.02515728 1000 1000 1000 -0.02478005 -0.02482853 -0.02515728 1000 1000 1000 -0.0253547 -0.02542943 -0.02503472 -0.02480412 -0.02480783 1000 -0.0253547 -0.02542943 -0.02503472 -0.02480412 -0.02480783 1000
lala 3 1.2 0 first 12 1 30 4 2.64 2.79999589920044 0 0 -1 0 -0.02370419 -0.02389066 -0.02407987 1000 1000 1000 -0.02370419 -0.02389066 -0.02407987 1000 1000 1000 -0.02455813 -0.02496522 -0.02484482 -0.02474067 -0.02459876 1000 -0.02455813 -0.02496522 -0.02484482 -0.02474067 -0.02459876 1000
lala 6 1.2 1 first 8 1 31 5 4.5 2.95999574661255 1 0 1 1 -0.02389266 -0.02410003 -0.0252781 1000 1000 1000 -0.02389266 -0.02410003 -0.0252781 1000 1000 1000 -0.02686351 -0.02729382 -0.02684199 -0.02481384 -0.0257967 1000 -0.02686351 -0.02729382 -0.02684199 -0.02481384 -0.0257967 1000
lala 3 1.2 0 second 6 1 32 4 2.64 0.699997663497925 1 0 -1 0 -0.01641974 -0.01685699 -0.0172721 -0.0180305 -0.01871546 1000 -0.01641974 -0.01685699 -0.0172721 -0.0180305 -0.01871546 1000 -0.02115823 -0.02183016 -0.02201142 -0.02185209 -0.02150839 1000 -0.02115823 -0.02183016 -0.02201142 -0.02185209 -0.02150839 1000
lala 2 1.2 1 first 11 1 33 6 6.780001 0.519997835159302 1 1 1 1 -0.02254416 -0.02197172 -0.02010973 1000 1000 1000 -0.02254416 -0.02197172 -0.02010973 1000 1000 1000 -0.01705647 -0.01671734 -0.01727485 -0.01776218 -0.01856453 1000 -0.01705647 -0.01671734 -0.01727485 -0.01776218 -0.01856453 1000
lala 1 1.2 0 second 0 1 34 4 2.64 0.639997720718384 -1 0 -1 1 -0.01414947 -0.01365242 -0.01320812 -0.01274838 -0.01268392 1000 -0.01414947 -0.01365242 -0.01320812 -0.01274838 -0.01268392 1000 -0.01332914 -0.01298858 -0.01272185 -0.01289151 -0.01294479 1000 -0.01332914 -0.01298858 -0.01272185 -0.01289151 -0.01294479 1000
lala 2 1.2 1 second 13 1 35 4 4.12 0.839997529983521 0 1 1 0 -0.01171131 -0.01228165 -0.01222776 -0.0120525 -0.01191908 1000 -0.01171131 -0.01228165 -0.01222776 -0.0120525 -0.01191908 1000 -0.01143577 -0.01154311 -0.01140573 -0.0116972 -0.01171602 1000 -0.01143577 -0.01154311 -0.01140573 -0.0116972 -0.01171602 1000
lala 2 1.2 1 first 9 1 36 5 5.45 1.67999696731567 1 1 1 0 -0.01193444 -0.01198798 -0.01164659 1000 1000 1000 -0.01193444 -0.01198798 -0.01164659 1000 1000 1000 -0.01283813 -0.01267386 -0.01239167 -0.01222337 -0.01221173 1000 -0.01283813 -0.01267386 -0.01239167 -0.01222337 -0.01221173 1000
lala 5 1.2 1 second 5 1 37 6 7.98 0.819997549057007 -1 1 1 0 -0.01354933 -0.01374775 -0.01358869 -0.0137003 -0.01382084 1000 -0.01354933 -0.01374775 -0.01358869 -0.0137003 -0.01382084 1000 -0.01407265 -0.01400151 -0.01359746 -0.01343847 -0.0133218 1000 -0.01407265 -0.01400151 -0.01359746 -0.01343847 -0.0133218 1000
lala 1 1.2 0 second 16 1 38 6 3.96 0.479997873306274 0 0 -1 0 -0.01527866 -0.01526742 -0.01533006 -0.01527395 -0.01570099 1000 -0.01527866 -0.01526742 -0.01533006 -0.01527395 -0.01570099 1000 -0.01517052 -0.01474231 -0.01474078 -0.01461921 -0.01485103 1000 -0.01517052 -0.01474231 -0.01474078 -0.01461921 -0.01485103 1000
lala 3 1.2 0 first 13 1 39 4 2.92 0.779997587203979 0 1 -1 1 -0.01588198 -0.01572441 -0.0157102 1000 1000 1000 -0.01588198 -0.01572441 -0.0157102 1000 1000 1000 -0.01497442 -0.0147716 -0.0151858 -0.01524974 -0.01520723 1000 -0.01497442 -0.0147716 -0.0151858 -0.01524974 -0.01520723 1000
lala 3 1.2 1 second 14 1 40 5 5.7 0.779997587203979 0 0 1 0 -0.01471778 -0.01491276 -0.01481948 -0.01462028 -0.0144675 1000 -0.01471778 -0.01491276 -0.01481948 -0.01462028 -0.0144675 1000 -0.01502041 -0.01503403 -0.01516023 -0.01519575 -0.01517359 1000 -0.01502041 -0.01503403 -0.01516023 -0.01519575 -0.01517359 1000
lala 7 1.2 0 second 8 1 41 5 3.3 0.879997491836548 1 0 -1 0 -0.01413575 -0.01437019 -0.01417149 -0.01395573 -0.01407238 1000 -0.01413575 -0.01437019 -0.01417149 -0.01395573 -0.01407238 1000 -0.01510621 -0.01520989 -0.01594397 -0.0157739 -0.01550061 1000 -0.01510621 -0.01520989 -0.01594397 -0.0157739 -0.01550061 1000
lala 3 1.2 0 first 17 1 42 6 5.580001 0.759997606277466 0 1 -1 0 -0.01587999 -0.01589981 -0.01588464 1000 1000 1000 -0.01587999 -0.01589981 -0.01588464 1000 1000 1000 -0.01599516 -0.01619584 -0.01591839 -0.01564666 -0.01561165 1000 -0.01599516 -0.01619584 -0.01591839 -0.01564666 -0.01561165 1000
lala 6 1.2 1 first 5 1 43 6 6.780001 2.51999616622925 -1 1 1 1 -0.01627941 -0.01639308 -0.0162787 1000 1000 1000 -0.01627941 -0.01639308 -0.0162787 1000 1000 1000 -0.01685572 -0.01652507 -0.0165459 -0.01646005 -0.01656682 1000 -0.01685572 -0.01652507 -0.0165459 -0.01646005 -0.01656682 1000
lala 8 1.2 0 first 8 1 44 5 4.5 0.799997568130493 1 0 -1 1 -0.01775827 -0.01738125 -0.0170565 1000 1000 1000 -0.01775827 -0.01738125 -0.0170565 1000 1000 1000 -0.01802936 -0.01790984 -0.01785374 -0.01785896 -0.01815384 1000 -0.01802936 -0.01790984 -0.01785374 -0.01785896 -0.01815384 1000
lala 2 1.2 0 first 0 1 45 4 3.84 0.579997777938843 -1 0 -1 1 -0.01707849 -0.0167305 -0.01679491 1000 1000 1000 -0.01707849 -0.0167305 -0.01679491 1000 1000 1000 -0.01916566 -0.01915128 -0.01897563 -0.0189229 -0.01883036 1000 -0.01916566 -0.01915128 -0.01897563 -0.0189229 -0.01883036 1000
lala 2 1.2 0 first 16 1 46 6 5.16 1.01999735832214 0 0 -1 0 -0.01889664 -0.01825337 -0.01757631 1000 1000 1000 -0.01889664 -0.01825337 -0.01757631 1000 1000 1000 -0.01933098 -0.01917556 -0.01908662 -0.01904326 -0.01950148 1000 -0.01933098 -0.01917556 -0.01908662 -0.01904326 -0.01950148 1000
lala 1 1.2 1 second 10 1 47 6 3.96 3.39999532699585 1 0 1 1 -0.01904922 -0.01924457 -0.01912509 -0.01865391 -0.01865994 1000 -0.01904922 -0.01924457 -0.01912509 -0.01865391 -0.01865994 1000 -0.01857603 -0.01887814 -0.01888723 -0.01841289 -0.01810287 1000 -0.01857603 -0.01887814 -0.01888723 -0.01841289 -0.01810287 1000
lala 1 1.2 1 second 3 1 48 5 6.65 2.19999647140503 -1 1 1 1 -0.01996553 -0.01982708 -0.01962345 -0.01951802 -0.01946328 1000 -0.01996553 -0.01982708 -0.01962345 -0.01951802 -0.01946328 1000 -0.01955908 -0.01943653 -0.01951519 -0.01994676 -0.02042377 1000 -0.01955908 -0.01943653 -0.01951519 -0.01994676 -0.02042377 1000
lala 4 1.2 0 first 12 1 49 4 3.84 0.419997930526733 0 0 -1 1 -0.01941063 -0.01944012 -0.01983036 1000 1000 1000 -0.01941063 -0.01944012 -0.01983036 1000 1000 1000 -0.01932105 -0.0193829 -0.01935104 -0.01923559 -0.0191118 1000 -0.01932105 -0.0193829 -0.01935104 -0.01923559 -0.0191118 1000
lala 4 1.2 0 second 2 1 50 5 4.5 0.639997720718384 -1 0 -1 1 -0.02004343 -0.01612399 -0.017481 -0.01733757 -0.01990582 1000 -0.02004343 -0.01612399 -0.017481 -0.01733757 -0.01990582 1000 -0.02282645 -0.02283247 -0.02024652 -0.01775287 -0.0193367 1000 -0.02282645 -0.02283247 -0.02024652 -0.01775287 -0.0193367 1000
lala 2 1.2 1 first 15 1 51 5 5.45 0.719997644424438 0 1 1 0 -0.01534837 -0.01787747 -0.02125838 1000 1000 1000 -0.01534837 -0.01787747 -0.02125838 1000 1000 1000 -0.01870723 -0.01778853 -0.01718971 -0.0171924 -0.01700337 1000 -0.01870723 -0.01778853 -0.01718971 -0.0171924 -0.01700337 1000
lala 5 1.2 0 first 2 1 52 5 5.7 1.49999690055847 -1 0 -1 1 -0.01653028 -0.01616722 -0.01514318 1000 1000 1000 -0.01653028 -0.01616722 -0.01514318 1000 1000 1000 -0.01551287 -0.01797188 -0.01874137 -0.01964086 -0.02074325 1000 -0.01551287 -0.01797188 -0.01874137 -0.01964086 -0.02074325 1000
lala 4 1.2 0 second 14 1 53 5 4.5 0.61999773979187 0 0 -1 0 -0.01579066 -0.01501708 -0.0159504 -0.01735455 -0.0186982 1000 -0.01579066 -0.01501708 -0.0159504 -0.01735455 -0.0186982 1000 -0.01979685 -0.02002278 -0.0199949 -0.02034113 -0.02080256 1000 -0.01979685 -0.02002278 -0.0199949 -0.02034113 -0.02080256 1000
lala 4 1.2 1 first 17 1 54 6 6.780001 0.759997606277466 0 1 1 1 -0.02053409 -0.02034747 -0.0206996 1000 1000 1000 -0.02053409 -0.02034747 -0.0206996 1000 1000 1000 -0.02187531 -0.02124133 -0.02064282 -0.01988271 -0.01937565 1000 -0.02187531 -0.02124133 -0.02064282 -0.01988271 -0.01937565 1000
lala 3 1.2 0 second 15 1 55 5 4.25 1.03999733924866 0 1 -1 1 -0.02159926 -0.02159567 -0.02137096 -0.02121061 -0.02115988 1000 -0.02159926 -0.02159567 -0.02137096 -0.02121061 -0.02115988 1000 -0.01995797 -0.01997987 -0.02005951 -0.01955301 -0.01957233 1000 -0.01995797 -0.01997987 -0.02005951 -0.01955301 -0.01957233 1000
lala 3 1.2 0 first 0 1 56 4 5.04 0.639997720718384 -1 0 -1 1 -0.02189345 -0.02233162 -0.02251806 1000 1000 1000 -0.02189345 -0.02233162 -0.02251806 1000 1000 1000 -0.02155763 -0.02141594 -0.02179746 -0.02188398 -0.02211275 1000 -0.02155763 -0.02141594 -0.02179746 -0.02188398 -0.02211275 1000
lala 5 1.2 1 second 12 1 57 4 5.04 0.299998044967651 0 0 1 0 -0.02173243 -0.02179558 -0.02172647 -0.02123193 -0.02097859 1000 -0.02173243 -0.02179558 -0.02172647 -0.02123193 -0.02097859 1000 -0.02114839 -0.02128294 -0.02139112 -0.02122118 -0.0211005 1000 -0.02114839 -0.02128294 -0.02139112 -0.02122118 -0.0211005 1000
lala 2 1.2 1 second 3 1 58 5 5.45 0.959997415542603 -1 1 1 1 -0.02212701 -0.02200835 -0.02191998 -0.02159416 -0.02123164 1000 -0.02212701 -0.02200835 -0.02191998 -0.02159416 -0.02123164 1000 -0.02062175 -0.02106443 -0.02132241 -0.02165321 -0.02171521 1000 -0.02062175 -0.02106443 -0.02132241 -0.02165321 -0.02171521 1000
lala 6 1.2 0 second 2 1 59 5 6.9 2.07999658584595 -1 0 -1 1 -0.02163702 -0.02150963 -0.02125158 -0.02086433 -0.02076541 1000 -0.02163702 -0.02150963 -0.02125158 -0.02086433 -0.02076541 1000 -0.02171024 -0.02177759 -0.02206066 -0.02205876 -0.0218451 1000 -0.02171024 -0.02177759 -0.02206066 -0.02205876 -0.0218451 1000
lala 2 1.2 0 first 10 1 60 6 2.76 1.3999969959259 1 0 -1 1 -0.02263672 -0.02292185 -0.0232539 1000 1000 1000 -0.02263672 -0.02292185 -0.0232539 1000 1000 1000 -0.02316112 -0.02309738 -0.02284147 -0.02227534 -0.02170145 1000 -0.02316112 -0.02309738 -0.02284147 -0.02227534 -0.02170145 1000
lala 5 1.2 1 second 14 1 61 5 5.7 0.739997625350952 0 0 1 1 -0.022235 -0.02234058 -0.02280112 -0.02278782 -0.02252317 1000 -0.022235 -0.02234058 -0.02280112 -0.02278782 -0.02252317 1000 -0.02188416 -0.02180045 -0.02247145 -0.02296176 -0.02366975 1000 -0.02188416 -0.02180045 -0.02247145 -0.02296176 -0.02366975 1000
lala 4 1.2 1 first 6 1 62 4 3.84 1.73999691009521 1 0 1 1 -0.02319258 -0.02336596 -0.02381817 1000 1000 1000 -0.02319258 -0.02336596 -0.02381817 1000 1000 1000 -0.02318643 -0.02324178 -0.02310637 -0.02287457 -0.02282937 1000 -0.02318643 -0.02324178 -0.02310637 -0.02287457 -0.02282937 1000
lala 3 1.2 0 first 1 1 63 4 5.32 0.839997529983521 -1 1 -1 1 -0.02347617 -0.02396072 -0.02424339 1000 1000 1000 -0.02347617 -0.02396072 -0.02424339 1000 1000 1000 -0.02510695 -0.02498194 -0.02489077 -0.02497605 -0.02476664 1000 -0.02510695 -0.02498194 -0.02489077 -0.02497605 -0.02476664 1000
lala 7 1.2 1 first 2 1 64 5 8.099999 2.23999643325806 -1 0 1 1 -0.02442376 -0.02426913 -0.02393891 1000 1000 1000 -0.02442376 -0.02426913 -0.02393891 1000 1000 1000 -0.02343219 -0.02363257 -0.02342891 -0.02319996 -0.02316986 1000 -0.02343219 -0.02363257 -0.02342891 -0.02319996 -0.02316986 1000
lala 3 1.2 0 second 10 1 65 6 3.96 2.43999624252319 1 0 -1 1 -0.02354053 -0.02324123 -0.02326235 -0.02341934 -0.0237315 1000 -0.02354053 -0.02324123 -0.02326235 -0.02341934 -0.0237315 1000 -0.02464841 -0.02469648 -0.02488619 -0.02486768 -0.02509289 1000 -0.02464841 -0.02469648 -0.02488619 -0.02486768 -0.02509289 1000
lala 6 1.2 0 second 14 1 66 5 4.5 1.13999724388123 0 0 -1 1 -0.02463198 -0.02461984 -0.02452218 -0.02432816 -0.02369071 1000 -0.02463198 -0.02461984 -0.02452218 -0.02432816 -0.02369071 1000 -0.02438303 -0.02445043 -0.02455907 -0.02499658 -0.02499973 1000 -0.02438303 -0.02445043 -0.02455907 -0.02499658 -0.02499973 1000
lala 3 1.2 1 first 11 1 67 6 5.580001 1.41999697685242 1 1 1 1 -0.02369982 -0.02352272 -0.0232795 1000 1000 1000 -0.02369982 -0.02352272 -0.0232795 1000 1000 1000 -0.02451293 -0.02433422 -0.02456194 -0.02442877 -0.02458816 1000 -0.02451293 -0.02433422 -0.02456194 -0.02442877 -0.02458816 1000
lala 4 1.2 0 first 11 1 68 6 4.380001 3.21999549865723 1 1 -1 1 -0.02407375 -0.02436005 -0.02420652 1000 1000 1000 -0.02407375 -0.02436005 -0.02420652 1000 1000 1000 -0.02385138 -0.02422271 -0.02425008 -0.02405553 -0.02383782 1000 -0.02385138 -0.02422271 -0.02425008 -0.02405553 -0.02383782 1000
lala 9 1.2 1 first 8 1 69 5 5.7 0.559997797012329 1 0 1 0 -0.02480526 -0.02186014 -0.01968878 1000 1000 1000 -0.02480526 -0.02186014 -0.01968878 1000 1000 1000 -0.02006007 -0.02022922 -0.02016579 -0.0202359 -0.0199629 1000 -0.02006007 -0.02022922 -0.02016579 -0.0202359 -0.0199629 1000
lala 8 1.2 0 second 2 1 70 5 6.9 0.519997835159302 -1 0 -1 0 -0.02086714 -0.02119681 -0.02137749 -0.02141464 -0.02141623 1000 -0.02086714 -0.02119681 -0.02137749 -0.02141464 -0.02141623 1000 -0.02224606 -0.02231116 -0.02241139 -0.02222408 -0.02198216 1000 -0.02224606 -0.02231116 -0.02241139 -0.02222408 -0.02198216 1000
lala 10 0.6 1 first 8 1 71 5 5.1 1.21999716758728 1 0 1 0 -0.02177284 -0.02134624 -0.02168915 1000 1000 1000 -0.02177284 -0.02134624 -0.02168915 1000 1000 1000 -0.02275801 -0.02305169 -0.02298365 -0.02292724 -0.02268199 1000 -0.02275801 -0.02305169 -0.02298365 -0.02292724 -0.02268199 1000
lala 4 1.2 1 second 10 1 72 6 5.16 5.27999353408813 1 0 1 1 -0.0226489 -0.02270845 -0.02269288 -0.02264899 -0.0227955 1000 -0.0226489 -0.02270845 -0.02269288 -0.02264899 -0.0227955 1000 -0.02243758 -0.02209348 -0.02185127 -0.02190525 -0.02217396 1000 -0.02243758 -0.02209348 -0.02185127 -0.02190525 -0.02217396 1000
lala 11 0.6 1 second 8 1 73 5 4.5 1.83999681472778 1 0 1 1 -0.02402244 -0.02411499 -0.02393766 -0.02396853 -0.02379398 1000 -0.02402244 -0.02411499 -0.02393766 -0.02396853 -0.02379398 1000 -0.02464351 -0.02445272 -0.02443766 -0.02465519 -0.02467537 1000 -0.02464351 -0.02445272 -0.02443766 -0.02465519 -0.02467537 1000
lala 4 1.2 1 first 13 1 74 4 4.12 1.61999702453613 0 1 1 1 -0.02529193 -0.02520039 -0.02529236 1000 1000 1000 -0.02529193 -0.02520039 -0.02529236 1000 1000 1000 -0.02576843 -0.02550228 -0.02592855 -0.02593376 -0.02595372 1000 -0.02576843 -0.02550228 -0.02592855 -0.02593376 -0.02595372 1000
lala 4 1.2 0 second 1 1 75 4 6.52 7.54003763198853 -1 1 -1 1 -0.02479697 -0.02539631 -0.02585499 -0.0258625 -0.02582148 1000 -0.02479697 -0.02539631 -0.02585499 -0.0258625 -0.02582148 1000 -0.02654909 -0.02662882 -0.02667994 -0.02614683 -0.02613584 1000 -0.02654909 -0.02662882 -0.02667994 -0.02614683 -0.02613584 1000
lala 5 1.2 1 second 17 1 76 6 5.580001 2.5999960899353 0 1 1 1 -0.02803463 -0.0338031 -0.03731799 -0.03475289 -0.03400081 1000 -0.02803463 -0.0338031 -0.03731799 -0.03475289 -0.03400081 1000 -0.04377043 -0.04557437 -0.04343112 -0.04155989 -0.04152899 1000 -0.04377043 -0.04557437 -0.04343112 -0.04155989 -0.04152899 1000
lala 7 1.2 0 second 5 1 77 6 5.580001 1.55999684333801 -1 1 -1 1 0.000457326 -0.001120369 -0.001940025 -0.002565168 -0.002470655 1000 0.000457326 -0.001120369 -0.001940025 -0.002565168 -0.002470655 1000 -0.005834663 -0.006070808 -0.005408632 -0.00623227 -0.00641713 1000 -0.005834663 -0.006070808 -0.005408632 -0.00623227 -0.00641713 1000
lala 4 1.2 1 second 0 1 78 4 6.24 2.37999629974365 -1 0 1 0 -0.01533075 -0.01597074 -0.01397055 -0.01342653 -0.01314843 1000 -0.01533075 -0.01597074 -0.01397055 -0.01342653 -0.01314843 1000 -0.01389236 -0.01454502 -0.01510105 -0.01522799 -0.01507058 1000 -0.01389236 -0.01454502 -0.01510105 -0.01522799 -0.01507058 1000
lala 4 1.2 1 first 7 1 79 4 6.52 1.21999716758728 1 1 1 1 -0.009542909 -0.01052803 -0.01041526 1000 1000 1000 -0.009542909 -0.01052803 -0.01041526 1000 1000 1000 -0.00846914 -0.008454944 -0.01110511 -0.01266772 -0.01175265 1000 -0.00846914 -0.008454944 -0.01110511 -0.01266772 -0.01175265 1000
lala 6 1.2 0 second 17 1 80 6 4.380001 0.639997720718384 0 1 -1 1 0.03532179 0.03593723 0.01810896 -0.005807601 -0.01749402 1000 0.03532179 0.03593723 0.01810896 -0.005807601 -0.01749402 1000 -0.00913432 -0.007969038 -0.008874523 -0.007163131 -0.007628096 1000 -0.00913432 -0.007969038 -0.008874523 -0.007163131 -0.007628096 1000
lala 6 1.2 0 second 12 1 81 4 3.84 0.99999737739563 0 0 -1 0 0.002249919 -0.0004627631 -0.001588235 -0.004618404 -0.003359879 1000 0.002249919 -0.0004627631 -0.001588235 -0.004618404 -0.003359879 1000 -0.008139936 -0.00783168 -0.00770857 -0.009452588 -0.009240003 1000 -0.008139936 -0.00783168 -0.00770857 -0.009452588 -0.009240003 1000
lala 5 1.2 0 first 6 1 82 4 2.64 0.859997510910034 1 0 -1 1 -0.01037489 -0.01101929 -0.01144406 1000 1000 1000 -0.01037489 -0.01101929 -0.01144406 1000 1000 1000 -0.01139926 -0.01109831 -0.01090715 -0.0113155 -0.01140378 1000 -0.01139926 -0.01109831 -0.01090715 -0.0113155 -0.01140378 1000
lala 7 1.2 1 first 14 1 83 5 5.7 0.659997701644897 0 0 1 1 -0.01258794 -0.01263148 -0.01257952 1000 1000 1000 -0.01258794 -0.01263148 -0.01257952 1000 1000 1000 -0.01405196 -0.01345118 -0.01327251 -0.01282106 -0.01240618 1000 -0.01405196 -0.01345118 -0.01327251 -0.01282106 -0.01240618 1000
lala 6 1.2 0 first 6 1 84 4 3.84 0.99999737739563 1 0 -1 0 -0.0123562 -0.01187982 -0.01145515 1000 1000 1000 -0.0123562 -0.01187982 -0.01145515 1000 1000 1000 -0.01196654 -0.01127693 -0.01122763 -0.01188869 -0.01183176 1000 -0.01196654 -0.01127693 -0.01122763 -0.01188869 -0.01183176 1000
lala 7 1.2 0 first 17 1 85 6 5.580001 1.79999685287476 0 1 -1 0 -0.01099469 -0.0107945 -0.01156788 1000 1000 1000 -0.01099469 -0.0107945 -0.01156788 1000 1000 1000 -0.01205708 -0.01192213 -0.01184718 -0.01175173 -0.01183689 1000 -0.01205708 -0.01192213 -0.01184718 -0.01175173 -0.01183689 1000
lala 1 1.2 0 first 4 1 86 6 3.96 3.21999549865723 -1 0 -1 0 -0.01322331 -0.01307568 -0.01320954 1000 1000 1000 -0.01322331 -0.01307568 -0.01320954 1000 1000 1000 -0.0120899 -0.01190276 -0.01154264 -0.01145969 -0.01246461 1000 -0.0120899 -0.01190276 -0.01154264 -0.01145969 -0.01246461 1000
lala 5 1.2 1 first 1 1 87 4 7.719999 0.499997854232788 -1 1 1 0 -0.01234712 -0.01227765 -0.0123749 1000 1000 1000 -0.01234712 -0.01227765 -0.0123749 1000 1000 1000 -0.01120972 -0.01074909 -0.009785126 -0.009922497 -0.009940504 1000 -0.01120972 -0.01074909 -0.009785126 -0.009922497 -0.009940504 1000
lala 8 1.2 0 first 5 1 88 6 6.780001 2.47999620437622 -1 1 -1 1 -0.009982262 -0.01037088 -0.01100252 1000 1000 1000 -0.009982262 -0.01037088 -0.01100252 1000 1000 1000 -0.009861477 -0.009311751 -0.009291401 -0.009252504 -0.008836524 1000 -0.009861477 -0.009311751 -0.009291401 -0.009252504 -0.008836524 1000
lala 8 1.2 1 second 14 1 89 5 4.5 1.03999733924866 0 0 1 1 -0.0151436 -0.0108026 -0.007956821 -0.006010896 -0.006812569 1000 -0.0151436 -0.0108026 -0.007956821 -0.006010896 -0.006812569 1000 -0.01319488 -0.01204001 -0.01124592 -0.009829987 -0.01069704 1000 -0.01319488 -0.01204001 -0.01124592 -0.009829987 -0.01069704 1000
lala 5 1.2 0 first 11 1 90 6 5.580001 1.21999716758728 1 1 -1 1 -0.01259051 -0.01374151 -0.01390894 1000 1000 1000 -0.01259051 -0.01374151 -0.01390894 1000 1000 1000 -0.01718963 -0.01732205 -0.01647462 -0.01722794 -0.01693201 1000 -0.01718963 -0.01732205 -0.01647462 -0.01722794 -0.01693201 1000
lala 5 1.2 1 second 0 1 91 4 5.04 1.17999720573425 -1 0 1 1 -0.01685463 -0.01644006 -0.0155819 -0.01607685 -0.01613825 1000 -0.01685463 -0.01644006 -0.0155819 -0.01607685 -0.01613825 1000 -0.01782958 -0.01767508 -0.01726959 -0.01772168 -0.01783929 1000 -0.01782958 -0.01767508 -0.01726959 -0.01772168 -0.01783929 1000
lala 12 0.6 0 second 8 1 92 5 3.9 0.719997644424438 1 0 -1 1 -0.01970356 -0.01955183 -0.01988733 -0.01964129 -0.01939571 1000 -0.01970356 -0.01955183 -0.01988733 -0.01964129 -0.01939571 1000 -0.01968047 -0.02067789 -0.02094627 -0.02050433 -0.02083391 1000 -0.01968047 -0.02067789 -0.02094627 -0.02050433 -0.02083391 1000
lala 9 1.2 1 first 2 1 93 5 8.099999 0.279998064041138 -1 0 1 1 -0.02001359 -0.02079702 -0.02082228 1000 1000 1000 -0.02001359 -0.02079702 -0.02082228 1000 1000 1000 -0.02213235 -0.02192302 -0.02105513 -0.02114485 -0.02073361 1000 -0.02213235 -0.02192302 -0.02105513 -0.02114485 -0.02073361 1000
lala 6 1.2 1 second 1 1 94 4 6.52 3.25999546051025 -1 1 1 1 -0.01976619 -0.01991563 -0.02012738 -0.02017337 -0.02045583 1000 -0.01976619 -0.01991563 -0.02012738 -0.02017337 -0.02045583 1000 -0.02182262 -0.02102681 -0.02080576 -0.02060487 -0.02135051 1000 -0.02182262 -0.02102681 -0.02080576 -0.02060487 -0.02135051 1000
lala 9 1.2 0 first 5 1 95 6 7.98 0.539997816085815 -1 1 -1 1 -0.02151503 -0.02145877 -0.02116714 1000 1000 1000 -0.02151503 -0.02145877 -0.02116714 1000 1000 1000 -0.02114204 -0.02172932 -0.02198057 -0.02150816 -0.02120688 1000 -0.02114204 -0.02172932 -0.02198057 -0.02150816 -0.02120688 1000
lala 7 1.2 0 second 6 1 96 4 5.04 1.3999969959259 1 0 -1 1 -0.02244553 -0.02148464 -0.02096795 -0.02083298 -0.0199135 1000 -0.02244553 -0.02148464 -0.02096795 -0.02083298 -0.0199135 1000 -0.02075899 -0.02056848 -0.02067753 -0.0213169 -0.02129936 1000 -0.02075899 -0.02056848 -0.02067753 -0.0213169 -0.02129936 1000
lala 8 1.2 1 first 17 1 97 6 6.780001 1.77999687194824 0 1 1 1 -0.02113239 -0.02097869 -0.02130472 1000 1000 1000 -0.02113239 -0.02097869 -0.02130472 1000 1000 1000 -0.02255441 -0.02293269 -0.02302776 -0.02253642 -0.02230831 1000 -0.02255441 -0.02293269 -0.02302776 -0.02253642 -0.02230831 1000
lala 6 1.2 1 second 11 1 98 6 6.780001 1.61999702453613 1 1 1 1 -0.02266086 -0.02240693 -0.02220258 -0.02218786 -0.02215392 1000 -0.02266086 -0.02240693 -0.02220258 -0.02218786 -0.02215392 1000 -0.02112502 -0.0211586 -0.02086721 -0.02091063 -0.02127727 1000 -0.02112502 -0.0211586 -0.02086721 -0.02091063 -0.02127727 1000
lala 6 1.2 0 first 0 1 99 4 3.84 0.23999810218811 -1 0 -1 1 -0.02163934 -0.02227473 -0.02251954 1000 1000 1000 -0.02163934 -0.02227473 -0.02251954 1000 1000 1000 -0.02287119 -0.02276313 -0.0221825 -0.0222114 -0.02245776 1000 -0.02287119 -0.02276313 -0.0221825 -0.0222114 -0.02245776 1000
lala 3 1.2 1 second 9 1 100 5 4.25 2.19999647140503 1 1 1 1 -0.0215189 -0.02274081 -0.02074346 -0.01873555 -0.01689958 1000 -0.0215189 -0.02274081 -0.02074346 -0.01873555 -0.01689958 1000 -0.02744246 -0.02557883 -0.02355611 -0.0200516 -0.01812291 1000 -0.02744246 -0.02557883 -0.02355611 -0.0200516 -0.01812291 1000
lala 9 1.2 0 first 17 1 101 6 5.580001 0.479997873306274 0 1 -1 0 -0.01999787 -0.02084941 -0.02112998 1000 1000 1000 -0.01999787 -0.02084941 -0.02112998 1000 1000 1000 -0.0221948 -0.02211037 -0.02195447 -0.0218087 -0.02179753 1000 -0.0221948 -0.02211037 -0.02195447 -0.0218087 -0.02179753 1000
lala 10 0.6 0 first 2 1 102 5 7.5 0.639997720718384 -1 0 -1 0 -0.02244925 -0.02255333 -0.02245148 1000 1000 1000 -0.02244925 -0.02255333 -0.02245148 1000 1000 1000 -0.02231976 -0.02208045 -0.02156254 -0.02133618 -0.02164641 1000 -0.02231976 -0.02208045 -0.02156254 -0.02133618 -0.02164641 1000
lala 3 1.2 1 first 16 1 103 6 6.36 0.879997491836548 0 0 1 0 -0.02153057 -0.02159427 -0.02192809 1000 1000 1000 -0.02153057 -0.02159427 -0.02192809 1000 1000 1000 -0.02127038 -0.02104539 -0.0209331 -0.02099684 -0.02103881 1000 -0.02127038 -0.02104539 -0.0209331 -0.02099684 -0.02103881 1000
lala 7 1.2 0 first 0 1 104 4 5.04 0.319998025894165 -1 0 -1 0 -0.02210884 -0.02215277 -0.02220024 1000 1000 1000 -0.02210884 -0.02215277 -0.02220024 1000 1000 1000 -0.02168135 -0.02157659 -0.02122706 -0.02161339 -0.02205393 1000 -0.02168135 -0.02157659 -0.02122706 -0.02161339 -0.02205393 1000
lala 2 1.2 0 second 4 1 105 6 5.16 2.09999656677246 -1 0 -1 0 -0.0227067 -0.02268319 -0.02236333 -0.02202178 -0.02190033 1000 -0.0227067 -0.02268319 -0.02236333 -0.02202178 -0.02190033 1000 -0.02220349 -0.02267358 -0.02249056 -0.02257462 -0.02273939 1000 -0.02220349 -0.02267358 -0.02249056 -0.02257462 -0.02273939 1000
lala 7 1.2 1 second 12 1 106 4 5.04 0.61999773979187 0 0 1 1 -0.02329235 -0.02303754 -0.02285971 -0.02264114 -0.02270475 1000 -0.02329235 -0.02303754 -0.02285971 -0.02264114 -0.02270475 1000 -0.02388708 -0.02427373 -0.02410268 -0.02397923 -0.02374906 1000 -0.02388708 -0.02427373 -0.02410268 -0.02397923 -0.02374906 1000
lala 4 1.2 0 second 9 1 107 5 3.05 0.99999737739563 1 1 -1 0 -0.02299803 -0.02337209 -0.02341009 -0.02321133 -0.02299432 1000 -0.02299803 -0.02337209 -0.02341009 -0.02321133 -0.02299432 1000 -0.02335175 -0.02321284 -0.02364554 -0.02376597 -0.02368965 1000 -0.02335175 -0.02321284 -0.02364554 -0.02376597 -0.02368965 1000
lala 13 0.3 0 second 8 1 108 5 4.2 1.67999696731567 1 0 -1 0 -0.02357752 -0.02367007 -0.02359308 -0.02337194 -0.02294377 1000 -0.02357752 -0.02367007 -0.02359308 -0.02337194 -0.02294377 1000 -0.02389096 -0.02382417 -0.02371526 -0.02355981 -0.02330696 1000 -0.02389096 -0.02382417 -0.02371526 -0.02355981 -0.02330696 1000
lala 3 1.2 0 first 3 1 109 5 4.25 0.819997549057007 -1 1 -1 0 -0.02461909 -0.02394014 -0.02420927 1000 1000 1000 -0.02461909 -0.02394014 -0.02420927 1000 1000 1000 -0.02435951 -0.02429641 -0.02417076 -0.02393949 -0.02384643 1000 -0.02435951 -0.02429641 -0.02417076 -0.02393949 -0.02384643 1000
lala 9 1.2 1 first 14 1 110 5 3.3 2.39999628067017 0 0 1 0 -0.0235086 -0.02379442 -0.02405609 1000 1000 1000 -0.0235086 -0.02379442 -0.02405609 1000 1000 1000 -0.02592665 -0.02594435 -0.02557761 -0.02585844 -0.02602976 1000 -0.02592665 -0.02594435 -0.02557761 -0.02585844 -0.02602976 1000
lala 11 0.3 1 second 2 1 111 5 7.8 0.599997758865356 -1 0 1 0 -0.02541231 -0.0256583 -0.025602 -0.0253766 -0.0252286 1000 -0.02541231 -0.0256583 -0.025602 -0.0253766 -0.0252286 1000 -0.02631549 -0.02662263 -0.02623222 -0.02590914 -0.02567066 1000 -0.02631549 -0.02662263 -0.02623222 -0.02590914 -0.02567066 1000
lala 4 1.2 1 second 3 1 112 5 5.45 1.35999703407288 -1 1 1 0 -0.02462977 -0.02454535 -0.02454521 -0.02441476 -0.02441703 1000 -0.02462977 -0.02454535 -0.02454521 -0.02441476 -0.02441703 1000 -0.0243698 -0.02441448 -0.02411381 -0.02401935 -0.02405987 1000 -0.0243698 -0.02441448 -0.02411381 -0.02401935 -0.02405987 1000
lala 4 1.2 0 first 16 1 113 6 5.16 4.6399941444397 0 0 -1 0 -0.02397122 -0.02411882 -0.02441665 1000 1000 1000 -0.02397122 -0.02411882 -0.02441665 1000 1000 1000 -0.02529129 -0.02537678 -0.02487567 -0.02437819 -0.02419939 1000 -0.02529129 -0.02537678 -0.02487567 -0.02437819 -0.02419939 1000
lala 14 0.3 0 second 8 1 114 5 4.5 6.88002252578735 1 0 -1 0 -0.03525722 -0.03535981 -0.03311934 -0.03143883 -0.03333199 1000 -0.03525722 -0.03535981 -0.03311934 -0.03143883 -0.03333199 1000 0.04268754 0.05343402 0.05137451 0.05557477 0.05598288 1000 0.04268754 0.05343402 0.05137451 0.05557477 0.05598288 1000
lala 7 1.2 1 second 11 1 115 6 5.580001 1.83999681472778 1 1 1 0 -0.002464725 -0.0120839 -0.02147115 -0.02424222 -0.02615298 1000 -0.002464725 -0.0120839 -0.02147115 -0.02424222 -0.02615298 1000 -0.01962088 -0.02606158 -0.03136542 -0.03202668 -0.03472362 1000 -0.01962088 -0.02606158 -0.03136542 -0.03202668 -0.03472362 1000
lala 15 0.3 1 first 8 1 116 5 4.800001 0.939997434616089 1 0 1 1 -0.02062443 -0.01228511 -0.001907273 1000 1000 1000 -0.02062443 -0.01228511 -0.001907273 1000 1000 1000 -0.00630153 0.005663488 0.01402593 0.003994005 -0.006862352 1000 -0.00630153 0.005663488 0.01402593 0.003994005 -0.006862352 1000
lala 8 1.2 0 first 11 1 117 6 4.380001 1.19999718666077 1 1 -1 1 -0.0124987 0.00134212 0.003010205 1000 1000 1000 -0.0124987 0.00134212 0.003010205 1000 1000 1000 -0.0597731 -0.03368072 -0.03503493 -0.03955125 -0.03873134 1000 -0.0597731 -0.03368072 -0.03503493 -0.03955125 -0.03873134 1000
lala 7 1.2 0 first 1 1 118 4 5.32 0.719997644424438 -1 1 -1 0 0.01322051 0.006985676 0.004063942 1000 1000 1000 0.01322051 0.006985676 0.004063942 1000 1000 1000 -0.0202139 -0.02011757 -0.02043808 -0.02130586 -0.02101072 1000 -0.0202139 -0.02011757 -0.02043808 -0.02130586 -0.02101072 1000
lala 5 1.2 1 second 16 1 119 6 6.36 2.65999603271484 0 0 1 0 -0.01746837 -0.01651203 -0.01576665 -0.01457129 -0.01191973 1000 -0.01746837 -0.01651203 -0.01576665 -0.01457129 -0.01191973 1000 0.00985024 0.0112624 0.01262067 0.01312577 0.01256058 1000 0.00985024 0.0112624 0.01262067 0.01312577 0.01256058 1000
lala 8 1.2 1 second 6 1 120 4 6.24 0.979997396469116 1 0 1 0 0.01564088 0.01546077 0.01543033 0.01518114 0.01553735 1000 0.01564088 0.01546077 0.01543033 0.01518114 0.01553735 1000 0.01432422 0.01443486 0.01462683 0.01454174 0.01466281 1000 0.01432422 0.01443486 0.01462683 0.01454174 0.01466281 1000
lala 9 1.2 1 second 11 1 121 6 5.580001 0.279998064041138 1 1 1 0 0.0136855 0.01368229 0.01377227 0.01387559 0.01377417 1000 0.0136855 0.01368229 0.01377227 0.01387559 0.01377417 1000 0.01336954 0.01372472 0.01340466 0.01296642 0.01271661 1000 0.01336954 0.01372472 0.01340466 0.01296642 0.01271661 1000
lala 8 1.2 1 first 0 1 122 4 6.24 0.719997644424438 -1 0 1 0 0.01027896 0.009899864 0.009351815 1000 1000 1000 0.01027896 0.009899864 0.009351815 1000 1000 1000 0.008641027 0.008641393 0.008746821 0.00931767 0.008876144 1000 0.008641027 0.008641393 0.008746821 0.00931767 0.008876144 1000
lala 9 1.2 1 first 6 1 123 4 5.04 0.61999773979187 1 0 1 0 0.00758282 0.005150342 0.007749179 1000 1000 1000 0.00758282 0.005150342 0.007749179 1000 1000 1000 -0.00560461 -0.006180767 -0.009197683 -0.01080177 -0.01124466 1000 -0.00560461 -0.006180767 -0.009197683 -0.01080177 -0.01124466 1000
lala 6 1.2 0 first 16 1 124 6 5.16 0.339998006820679 0 0 -1 0 -0.01304208 -0.01470541 -0.01672912 1000 1000 1000 -0.01304208 -0.01470541 -0.01672912 1000 1000 1000 -0.01870716 -0.01880481 -0.01846437 -0.01847262 -0.01841069 1000 -0.01870716 -0.01880481 -0.01846437 -0.01847262 -0.01841069 1000
lala 10 2.4 1 first 5 1 125 6 10.38 1.13999724388123 -1 1 1 0 -0.01825002 -0.01832067 -0.01841306 1000 1000 1000 -0.01825002 -0.01832067 -0.01841306 1000 1000 1000 -0.02044313 -0.02019582 -0.0200001 -0.02017935 -0.02031663 1000 -0.02044313 -0.02019582 -0.0200001 -0.02017935 -0.02031663 1000
lala 10 2.4 0 first 14 1 126 5 1.65 0.279998064041138 0 0 -1 1 -0.02275454 -0.0233369 -0.02458574 1000 1000 1000 -0.02275454 -0.0233369 -0.02458574 1000 1000 1000 -0.04096128 -0.03971726 -0.03890084 -0.03865885 -0.03887503 1000 -0.04096128 -0.03971726 -0.03890084 -0.03865885 -0.03887503 1000
lala 16 0.15 0 second 8 1 127 5 4.650001 1.51999688148499 1 0 -1 0 0.00496234 0.008118252 0.008319448 0.007220635 0.005117284 1000 0.00496234 0.008118252 0.008319448 0.007220635 0.005117284 1000 -0.005709725 -0.00678877 -0.006916116 -0.007337434 -0.007276544 1000 -0.005709725 -0.00678877 -0.006916116 -0.007337434 -0.007276544 1000
lala 3 1.2 0 first 4 1 128 6 6.36 0.699997663497925 -1 0 -1 0 -0.006166207 -0.005876314 -0.006076471 1000 1000 1000 -0.006166207 -0.005876314 -0.006076471 1000 1000 1000 -0.00792227 -0.007828002 -0.008274592 -0.008321285 -0.00813647 1000 -0.00792227 -0.007828002 -0.008274592 -0.008321285 -0.00813647 1000
lala 11 1.2 0 second 14 1 129 5 2.85 1.11999726295471 0 0 -1 0 -0.007199854 -0.00706192 -0.007207913 -0.007266869 -0.007311955 1000 -0.007199854 -0.00706192 -0.007207913 -0.007266869 -0.007311955 1000 -0.008187788 -0.007983713 -0.008114837 -0.008253445 -0.008490588 1000 -0.008187788 -0.007983713 -0.008114837 -0.008253445 -0.008490588 1000
lala 5 1.2 0 first 13 1 130 4 2.92 0.499997854232788 0 1 -1 0 -0.007571435 -0.007612979 -0.008031037 1000 1000 1000 -0.007571435 -0.007612979 -0.008031037 1000 1000 1000 -0.008548204 -0.008837239 -0.008789544 -0.008647033 -0.008511557 1000 -0.008548204 -0.008837239 -0.008789544 -0.008647033 -0.008511557 1000
lala 10 1.2 1 second 6 1 131 4 3.84 0.559997797012329 1 0 1 1 -0.008010273 -0.007823624 -0.007621104 -0.007312801 -0.007506491 1000 -0.008010273 -0.007823624 -0.007621104 -0.007312801 -0.007506491 1000 -0.008115152 -0.008099077 -0.008184561 -0.008175422 -0.008245595 1000 -0.008115152 -0.008099077 -0.008184561 -0.008175422 -0.008245595 1000
lala 12 1.2 0 first 14 1 132 5 4.05 0.479997873306274 0 0 -1 1 -0.008227694 -0.007946507 -0.008163844 1000 1000 1000 -0.008227694 -0.007946507 -0.008163844 1000 1000 1000 -0.008547936 -0.00877465 -0.008854863 -0.008791939 -0.009167368 1000 -0.008547936 -0.00877465 -0.008854863 -0.008791939 -0.009167368 1000
lala 5 1.2 0 first 3 1 133 5 4.25 2.67999601364136 -1 1 -1 0 -0.009634865 -0.009266569 -0.008836792 1000 1000 1000 -0.009634865 -0.009266569 -0.008836792 1000 1000 1000 -0.007918336 -0.007788948 -0.008076654 -0.007991359 -0.008062941 1000 -0.007918336 -0.007788948 -0.008076654 -0.007991359 -0.008062941 1000
lala 8 1.2 1 first 1 1 134 4 6.52 0.379997968673706 -1 1 1 0 -0.007863552 -0.00760243 -0.007625244 1000 1000 1000 -0.007863552 -0.00760243 -0.007625244 1000 1000 1000 -0.007719364 -0.007501273 -0.006983479 -0.007009279 -0.007109299 1000 -0.007719364 -0.007501273 -0.006983479 -0.007009279 -0.007109299 1000
lala 11 1.2 1 second 5 1 135 6 9.180001 1.07999730110168 -1 1 1 1 -0.007646317 -0.008053089 -0.007664036 -0.006904881 -0.006853439 1000 -0.007646317 -0.008053089 -0.007664036 -0.006904881 -0.006853439 1000 -0.006622185 -0.006722387 -0.006735222 -0.007006561 -0.006947919 1000 -0.006622185 -0.006722387 -0.006735222 -0.007006561 -0.006947919 1000
lala 8 1.2 0 first 12 1 136 4 3.84 1.7199969291687 0 0 -1 1 -0.007221984 -0.006767049 -0.00662395 1000 1000 1000 -0.007221984 -0.006767049 -0.00662395 1000 1000 1000 -0.006142883 -0.005907555 -0.005949516 -0.00585195 -0.006282768 1000 -0.006142883 -0.005907555 -0.005949516 -0.00585195 -0.006282768 1000
lala 9 1.2 1 first 12 1 137 4 5.04 5.45999336242676 0 0 1 1 -0.005641685 -0.005722295 -0.005961441 1000 1000 1000 -0.005641685 -0.005722295 -0.005961441 1000 1000 1000 -0.007447621 -0.007429335 -0.007445754 -0.007320172 -0.006831686 1000 -0.007447621 -0.007429335 -0.007445754 -0.007320172 -0.006831686 1000
lala 10 0.6 0 second 11 1 138 6 4.980001 8.42005777359009 1 1 -1 0 -0.009039908 -0.008651737 -0.008684583 -0.009170386 -0.009075725 1000 -0.009039908 -0.008651737 -0.008684583 -0.009170386 -0.009075725 1000 -0.0077626 -0.007784517 -0.008029515 -0.008601543 -0.009109487 1000 -0.0077626 -0.007784517 -0.008029515 -0.008601543 -0.009109487 1000
lala 5 1.2 0 first 10 1 139 6 3.96 0.339998006820679 1 0 -1 1 -0.006737583 -0.006411418 -0.00694061 1000 1000 1000 -0.006737583 -0.006411418 -0.00694061 1000 1000 1000 -0.009901978 -0.009499036 -0.009451289 -0.009729053 -0.009842766 1000 -0.009901978 -0.009499036 -0.009451289 -0.009729053 -0.009842766 1000
lala 5 1.2 0 first 7 1 140 4 5.32 0.559997797012329 1 1 -1 0 -0.01313411 -0.01373613 -0.01373398 1000 1000 1000 -0.01313411 -0.01373613 -0.01373398 1000 1000 1000 -0.01189157 -0.01141541 -0.0111822 -0.01116526 -0.01078995 1000 -0.01189157 -0.01141541 -0.0111822 -0.01116526 -0.01078995 1000
lala 5 1.2 0 second 9 1 141 5 4.25 0.799997568130493 1 1 -1 1 -0.01086268 -0.01104022 -0.01126903 -0.01095162 -0.01068156 1000 -0.01086268 -0.01104022 -0.01126903 -0.01095162 -0.01068156 1000 -0.01068595 -0.01065295 -0.01050796 -0.01065785 -0.0107879 1000 -0.01068595 -0.01065295 -0.01050796 -0.01065785 -0.0107879 1000
lala 10 0.6 1 first 17 1 142 6 6.180001 0.839997529983521 0 1 1 0 -0.01080643 -0.01119377 -0.01134881 1000 1000 1000 -0.01080643 -0.01119377 -0.01134881 1000 1000 1000 -0.01118543 -0.01083738 -0.01047663 -0.01040058 -0.01054326 1000 -0.01118543 -0.01083738 -0.01047663 -0.01040058 -0.01054326 1000
lala 6 1.2 0 first 9 1 143 5 5.45 0.539997816085815 1 1 -1 0 -0.009833705 -0.009910586 -0.009949604 1000 1000 1000 -0.009833705 -0.009910586 -0.009949604 1000 1000 1000 -0.009296063 -0.009163737 -0.009366846 -0.009227929 -0.008751684 1000 -0.009296063 -0.009163737 -0.009366846 -0.009227929 -0.008751684 1000
lala 9 1.2 0 first 1 1 144 4 5.32 0.419997930526733 -1 1 -1 0 -0.009236619 -0.009427185 -0.009729289 1000 1000 1000 -0.009236619 -0.009427185 -0.009729289 1000 1000 1000 -0.008920557 -0.008828924 -0.008545626 -0.008358553 -0.008655358 1000 -0.008920557 -0.008828924 -0.008545626 -0.008358553 -0.008655358 1000
lala 6 1.2 1 second 13 1 145 4 4.12 0.559997797012329 0 1 1 0 -0.009244642 -0.009082798 -0.008619446 -0.008368004 -0.008402427 1000 -0.009244642 -0.009082798 -0.008619446 -0.008368004 -0.008402427 1000 -0.009681252 -0.01003403 -0.00979519 -0.009573809 -0.009696255 1000 -0.009681252 -0.01003403 -0.00979519 -0.009573809 -0.009696255 1000
lala 9 1.2 0 second 0 1 146 4 5.04 0.559997797012329 -1 0 -1 1 -0.00953214 -0.009338933 -0.008958517 -0.008664513 -0.008602763 1000 -0.00953214 -0.009338933 -0.008958517 -0.008664513 -0.008602763 1000 -0.01007688 -0.009823085 -0.009803144 -0.009708816 -0.009750349 1000 -0.01007688 -0.009823085 -0.009803144 -0.009708816 -0.009750349 1000
lala 6 1.2 0 first 10 1 147 6 5.16 0.459997892379761 1 0 -1 0 -0.01103089 -0.01050415 -0.01041352 1000 1000 1000 -0.01103089 -0.01050415 -0.01041352 1000 1000 1000 -0.01199577 -0.01175441 -0.01160016 -0.01157639 -0.01143896 1000 -0.01199577 -0.01175441 -0.01160016 -0.01157639 -0.01143896 1000
lala 7 1.2 0 second 13 1 148 4 2.92 1.03999733924866 0 1 -1 1 -0.01105682 -0.01115323 -0.01127108 -0.01132843 -0.01085526 1000 -0.01105682 -0.01115323 -0.01127108 -0.01132843 -0.01085526 1000 -0.01049826 -0.01061726 -0.01064868 -0.01064481 -0.01052069 1000 -0.01049826 -0.01061726 -0.01064868 -0.01064481 -0.01052069 1000
lala 11 0.3 1 second 17 1 149 6 5.880001 0.959997415542603 0 1 1 1 -0.01117765 -0.01105475 -0.0110547 -0.01109308 -0.01108069 1000 -0.01117765 -0.01105475 -0.0110547 -0.01109308 -0.01108069 1000 -0.0123754 -0.01173935 -0.01130261 -0.01116967 -0.01116445 1000 -0.0123754 -0.01173935 -0.01130261 -0.01116967 -0.01116445 1000
lala 13 1.2 1 second 14 1 150 5 5.25 1.41999697685242 0 0 1 1 -0.03181617 -0.03258153 -0.03206146 -0.02814884 -0.02328518 1000 -0.03181617 -0.03258153 -0.03206146 -0.02814884 -0.02328518 1000 -0.02014237 -0.01797098 -0.01677567 -0.01669071 -0.01656623 1000 -0.02014237 -0.01797098 -0.01677567 -0.01669071 -0.01656623 1000
lala 6 1.2 1 second 3 1 151 5 5.45 1.3999969959259 -1 1 1 0 -0.01591344 -0.0116762 -0.007676493 -0.009615966 -0.01445727 1000 -0.01591344 -0.0116762 -0.007676493 -0.009615966 -0.01445727 1000 -0.0257253 -0.02635249 -0.02628243 -0.02553754 -0.02546692 1000 -0.0257253 -0.02635249 -0.02628243 -0.02553754 -0.02546692 1000
lala 12 0.3 1 second 17 1 152 6 5.58 0.559997797012329 0 1 1 1 -0.02223044 -0.02176949 -0.02187726 -0.02234179 -0.0224337 1000 -0.02223044 -0.02176949 -0.02187726 -0.02234179 -0.0224337 1000 -0.02246532 -0.02222836 -0.02169148 -0.0213857 -0.02099607 1000 -0.02246532 -0.02222836 -0.02169148 -0.0213857 -0.02099607 1000
lala 10 0.6 0 first 0 1 153 4 5.64 1.0999972820282 -1 0 -1 1 -0.02309578 -0.02295259 -0.02275137 1000 1000 1000 -0.02309578 -0.02295259 -0.02275137 1000 1000 1000 -0.02233498 -0.02226193 -0.02216905 -0.0223081 -0.02239763 1000 -0.02233498 -0.02226193 -0.02216905 -0.0223081 -0.02239763 1000
lala 11 0.3 0 first 11 1 154 6 5.280001 0.339998006820679 1 1 -1 0 -0.0233142 -0.02284499 -0.0228595 1000 1000 1000 -0.0233142 -0.02284499 -0.0228595 1000 1000 1000 -0.02259938 -0.02235493 -0.02232219 -0.02205227 -0.02204597 1000 -0.02259938 -0.02235493 -0.02232219 -0.02205227 -0.02204597 1000
lala 13 0.3 0 first 17 1 155 6 5.28 0.459997892379761 0 1 -1 0 -0.02300105 -0.02272767 -0.02287726 1000 1000 1000 -0.02300105 -0.02272767 -0.02287726 1000 1000 1000 -0.0231013 -0.02314974 -0.02314181 -0.0230608 -0.02254778 1000 -0.0231013 -0.02314974 -0.02314181 -0.0230608 -0.02254778 1000
lala 11 2.4 0 second 6 1 156 4 1.44 0.459997892379761 1 0 -1 1 -0.02231302 -0.02230534 -0.02182089 -0.02165578 -0.02157039 1000 -0.02231302 -0.02230534 -0.02182089 -0.02165578 -0.02157039 1000 -0.02257363 -0.02242337 -0.02241684 -0.02265237 -0.02238787 1000 -0.02257363 -0.02242337 -0.02241684 -0.02265237 -0.02238787 1000
lala 14 0.6 1 first 14 1 157 5 4.65 0.439997911453247 0 0 1 1 -0.0224748 -0.02199717 -0.02196156 1000 1000 1000 -0.0224748 -0.02199717 -0.02196156 1000 1000 1000 -0.02021554 -0.01993087 -0.0201705 -0.02020575 -0.0199963 1000 -0.02021554 -0.01993087 -0.0201705 -0.02020575 -0.0199963 1000
lala 12 0.15 1 second 2 1 158 5 7.65 0.339998006820679 -1 0 1 1 -0.02124546 -0.02140035 -0.0211662 -0.02058672 -0.01915532 1000 -0.02124546 -0.02140035 -0.0211662 -0.02058672 -0.01915532 1000 -0.0197314 -0.01989181 -0.01950672 -0.01937093 -0.01957862 1000 -0.0197314 -0.01989181 -0.01950672 -0.01937093 -0.01957862 1000
lala 12 0.3 0 second 11 1 159 6 5.580001 0.699997663497925 1 1 -1 1 -0.02129687 -0.02118295 -0.0209272 -0.0208419 -0.02070757 1000 -0.02129687 -0.02118295 -0.0209272 -0.0208419 -0.02070757 1000 -0.0207849 -0.02086802 -0.020113 -0.01984736 -0.0201679 1000 -0.0207849 -0.02086802 -0.020113 -0.01984736 -0.0201679 1000
lala 4 1.2 1 second 4 1 160 6 7.559999 0.579997777938843 -1 0 1 0 -0.02068391 -0.0207983 -0.02078293 -0.02055461 -0.02024946 1000 -0.02068391 -0.0207983 -0.02078293 -0.02055461 -0.02024946 1000 -0.01990453 -0.01985796 -0.01998293 -0.02032951 -0.02036772 1000 -0.01990453 -0.01985796 -0.01998293 -0.02032951 -0.02036772 1000
lala 10 0.6 0 second 1 1 161 4 5.92 0.719997644424438 -1 1 -1 1 -0.02029612 -0.02000306 -0.01990825 -0.01982278 -0.01976532 1000 -0.02029612 -0.02000306 -0.01990825 -0.01982278 -0.01976532 1000 -0.01988935 -0.02011993 -0.02041254 -0.02007723 -0.02011964 1000 -0.01988935 -0.02011993 -0.02041254 -0.02007723 -0.02011964 1000
lala 7 1.2 1 first 16 1 162 6 6.36 1.15999722480774 0 0 1 0 -0.02242144 -0.02203293 -0.02183583 1000 1000 1000 -0.02242144 -0.02203293 -0.02183583 1000 1000 1000 -0.02014553 -0.02011972 -0.02021539 -0.0201185 -0.02018604 1000 -0.02014553 -0.02011972 -0.02021539 -0.0201185 -0.02018604 1000
lala 11 0.6 1 second 0 1 163 4 6.24 0.879997491836548 -1 0 1 0 -0.01993521 -0.01932129 -0.01964259 -0.01926329 -0.0192491 1000 -0.01993521 -0.01932129 -0.01964259 -0.01926329 -0.0192491 1000 -0.01913061 -0.01938461 -0.01935433 -0.01954794 -0.01925869 1000 -0.01913061 -0.01938461 -0.01935433 -0.01954794 -0.01925869 1000
lala 12 1.2 0 first 6 1 164 4 2.64 1.05999732017517 1 0 -1 1 -0.01883717 -0.01956635 -0.01939831 1000 1000 1000 -0.01883717 -0.01956635 -0.01939831 1000 1000 1000 -0.0186589 -0.01803622 -0.0178118 -0.0177478 -0.01790965 1000 -0.0186589 -0.01803622 -0.0178118 -0.0177478 -0.01790965 1000
lala 17 0.075 0 second 8 1 165 5 4.725 2.05999660491943 1 0 -1 1 -0.01737774 -0.01736861 -0.01738587 -0.01743028 -0.01736095 1000 -0.01737774 -0.01736861 -0.01738587 -0.01743028 -0.01736095 1000 -0.01803301 -0.01795153 -0.01775752 -0.01761099 -0.01777918 1000 -0.01803301 -0.01795153 -0.01775752 -0.01761099 -0.01777918 1000
lala 18 0.075 0 first 8 1 166 5 4.8 1.61999702453613 1 0 -1 0 -0.01873369 -0.01882854 -0.01893348 1000 1000 1000 -0.01873369 -0.01882854 -0.01893348 1000 1000 1000 -0.01760465 -0.01758481 -0.01741643 -0.01723718 -0.01743266 1000 -0.01760465 -0.01758481 -0.01741643 -0.01723718 -0.01743266 1000
lala 12 0.3 1 second 0 1 167 4 5.94 0.639997720718384 -1 0 1 1 -0.01802084 -0.01791896 -0.01816167 -0.01814379 -0.01790627 1000 -0.01802084 -0.01791896 -0.01816167 -0.01814379 -0.01790627 1000 -0.01883276 -0.01901202 -0.01898957 -0.01877177 -0.01887358 1000 -0.01883276 -0.01901202 -0.01898957 -0.01877177 -0.01887358 1000
lala 12 1.2 1 second 5 1 168 6 7.980001 0.61999773979187 -1 1 1 0 -0.01830643 -0.01818335 -0.01769322 -0.01756472 -0.01769106 1000 -0.01830643 -0.01818335 -0.01769322 -0.01756472 -0.01769106 1000 -0.01815904 -0.0181769 -0.0181328 -0.01779692 -0.01736023 1000 -0.01815904 -0.0181769 -0.0181328 -0.01779692 -0.01736023 1000
lala 13 1.2 0 first 6 1 169 4 3.84 0.519997835159302 1 0 -1 1 -0.01809894 -0.017768 -0.0175898 1000 1000 1000 -0.01809894 -0.017768 -0.0175898 1000 1000 1000 -0.0180764 -0.01833065 -0.01827962 -0.01850411 -0.0185328 1000 -0.0180764 -0.01833065 -0.01827962 -0.01850411 -0.0185328 1000
lala 8 1.2 0 second 16 1 170 6 5.16 1.21999716758728 0 0 -1 0 -0.01795347 -0.0176514 -0.01766139 -0.01792227 -0.01804166 1000 -0.01795347 -0.0176514 -0.01766139 -0.01792227 -0.01804166 1000 -0.01815869 -0.01790536 -0.01796868 -0.01773235 -0.01767036 1000 -0.01815869 -0.01790536 -0.01796868 -0.01773235 -0.01767036 1000
lala 13 0.3 0 second 0 1 171 4 5.639999 1.31999707221985 -1 0 -1 0 -0.01873779 -0.01881933 -0.019013 -0.01905569 -0.01893941 1000 -0.01873779 -0.01881933 -0.019013 -0.01905569 -0.01893941 1000 -0.01881618 -0.01897966 -0.01866898 -0.01856008 -0.01863711 1000 -0.01881618 -0.01897966 -0.01866898 -0.01856008 -0.01863711 1000
lala 7 1.2 1 first 10 1 172 6 6.36 0.159998178482056 1 0 1 1 -0.02021237 -0.02030954 -0.020118 1000 1000 1000 -0.02021237 -0.02030954 -0.020118 1000 1000 1000 -0.01891903 -0.01854915 -0.01829771 -0.01831602 -0.0183306 1000 -0.01891903 -0.01854915 -0.01829771 -0.01831602 -0.0183306 1000
lala 4 1.2 1 first 15 1 173 5 5.45 1.73999691009521 0 1 1 0 -0.01907711 -0.01879131 -0.01880392 1000 1000 1000 -0.01907711 -0.01879131 -0.01880392 1000 1000 1000 -0.01918533 -0.01913263 -0.01902906 -0.01927923 -0.01895585 1000 -0.01918533 -0.01913263 -0.01902906 -0.01927923 -0.01895585 1000
lala 11 0.6 0 first 1 1 174 4 6.52 1.19999718666077 -1 1 -1 1 -0.01921582 -0.01843396 -0.01834907 1000 1000 1000 -0.01921582 -0.01843396 -0.01834907 1000 1000 1000 -0.01755051 -0.01775029 -0.01751564 -0.01747308 -0.01785432 1000 -0.01755051 -0.01775029 -0.01751564 -0.01747308 -0.01785432 1000
lala 6 1.2 1 first 7 1 175 4 6.52 0.599997758865356 1 1 1 1 -0.01859724 -0.01871119 -0.01848212 1000 1000 1000 -0.01859724 -0.01871119 -0.01848212 1000 1000 1000 -0.01883626 -0.01894717 -0.01877023 -0.0188719 -0.01879129 1000 -0.01883626 -0.01894717 -0.01877023 -0.0188719 -0.01879129 1000
lala 7 1.2 1 second 9 1 176 5 6.65 0.599997758865356 1 1 1 0 -0.01899336 -0.01870995 -0.01853625 -0.01840912 -0.01850083 1000 -0.01899336 -0.01870995 -0.01853625 -0.01840912 -0.01850083 1000 -0.0188144 -0.01885585 -0.019089 -0.01909662 -0.01945454 1000 -0.0188144 -0.01885585 -0.019089 -0.01909662 -0.01945454 1000
lala 9 1.2 1 first 16 1 177 6 6.36 0.859997510910034 0 0 1 0 -0.01952299 -0.0197828 -0.02001079 1000 1000 1000 -0.01952299 -0.0197828 -0.02001079 1000 1000 1000 -0.01815576 -0.01876489 -0.01887305 -0.01878168 -0.01848898 1000 -0.01815576 -0.01876489 -0.01887305 -0.01878168 -0.01848898 1000
lala 10 0.6 1 second 16 1 178 6 5.76 1.57999682426453 0 0 1 0 -0.01941697 -0.01924277 -0.01918753 -0.01880185 -0.01844385 1000 -0.01941697 -0.01924277 -0.01918753 -0.01880185 -0.01844385 1000 -0.01849643 -0.01855376 -0.01861837 -0.01869954 -0.01898496 1000 -0.01849643 -0.01855376 -0.01861837 -0.01869954 -0.01898496 1000
lala 8 1.2 1 second 10 1 179 6 5.16 1.41999697685242 1 0 1 0 -0.01878713 -0.01883134 -0.01870645 -0.01859171 -0.01899425 1000 -0.01878713 -0.01883134 -0.01870645 -0.01859171 -0.01899425 1000 -0.01862112 -0.01866912 -0.01939007 -0.02026406 -0.0200146 1000 -0.01862112 -0.01866912 -0.01939007 -0.02026406 -0.0200146 1000
lala 14 0.15 1 second 17 1 180 6 5.43 0.659997701644897 0 1 1 1 -0.01797407 -0.01817636 -0.0178325 -0.01739068 -0.01738181 1000 -0.01797407 -0.01817636 -0.0178325 -0.01739068 -0.01738181 1000 -0.01797295 -0.01780962 -0.01820651 -0.01842842 -0.01886768 1000 -0.01797295 -0.01780962 -0.01820651 -0.01842842 -0.01886768 1000
lala 9 1.2 0 second 10 1 181 6 3.96 0.519997835159302 1 0 -1 0 -0.01910945 -0.01920414 -0.01944644 -0.01957442 -0.01958988 1000 -0.01910945 -0.01920414 -0.01944644 -0.01957442 -0.01958988 1000 -0.02013487 -0.02032128 -0.02053969 -0.0204106 -0.02005093 1000 -0.02013487 -0.02032128 -0.02053969 -0.0204106 -0.02005093 1000
lala 5 1.2 0 second 15 1 182 5 4.25 0.259998083114624 0 1 -1 0 -0.02050961 -0.02011617 -0.01972703 -0.0197832 -0.01987232 1000 -0.02050961 -0.02011617 -0.01972703 -0.0197832 -0.01987232 1000 -0.01956169 -0.01966285 -0.01938882 -0.01901463 -0.01890803 1000 -0.01956169 -0.01966285 -0.01938882 -0.01901463 -0.01890803 1000
lala 7 1.2 0 first 3 1 183 5 4.25 0.319998025894165 -1 1 -1 1 -0.02014802 -0.01987576 -0.01979954 1000 1000 1000 -0.02014802 -0.01987576 -0.01979954 1000 1000 1000 -0.01935005 -0.01905042 -0.01843949 -0.01834017 -0.01868477 1000 -0.01935005 -0.01905042 -0.01843949 -0.01834017 -0.01868477 1000
lala 11 0.6 0 first 16 1 184 6 5.16 0.61999773979187 0 0 -1 1 -0.0197678 -0.01997962 -0.01988166 1000 1000 1000 -0.0197678 -0.01997962 -0.01988166 1000 1000 1000 -0.01960834 -0.01912557 -0.01917409 -0.01930736 -0.01967296 1000 -0.01960834 -0.01912557 -0.01917409 -0.01930736 -0.01967296 1000
lala 10 0.6 1 second 10 1 185 6 4.56 0.579997777938843 1 0 1 0 -0.02067554 -0.02068754 -0.02038066 -0.02002472 -0.02033302 1000 -0.02067554 -0.02068754 -0.02038066 -0.02002472 -0.02033302 1000 -0.01949128 -0.01975518 -0.02000713 -0.02014274 -0.01992829 1000 -0.01949128 -0.01975518 -0.02000713 -0.02014274 -0.01992829 1000
lala 15 0.6 0 first 14 1 186 5 4.05 2.87999582290649 0 0 -1 0 -0.02046994 -0.02027702 -0.02029708 1000 1000 1000 -0.02046994 -0.02027702 -0.02029708 1000 1000 1000 -0.01845851 -0.01859043 -0.01893466 -0.01909388 -0.01902349 1000 -0.01845851 -0.01859043 -0.01893466 -0.01909388 -0.01902349 1000
lala 11 0.3 0 first 10 1 187 6 4.26 0.499997854232788 1 0 -1 0 -0.01418115 -0.01212661 -0.01101157 1000 1000 1000 -0.01418115 -0.01212661 -0.01101157 1000 1000 1000 -0.05996136 -0.04457532 -0.03421053 -0.03994714 -0.04625389 1000 -0.05996136 -0.04457532 -0.03421053 -0.03994714 -0.04625389 1000
lala 19 0.075 1 first 8 1 188 5 4.875 1.13999724388123 1 0 1 1 -0.01578658 -0.01124231 -0.01641626 1000 1000 1000 -0.01578658 -0.01124231 -0.01641626 1000 1000 1000 -0.03316052 -0.03456693 -0.03471284 -0.03523783 -0.03100835 1000 -0.03316052 -0.03456693 -0.03471284 -0.03523783 -0.03100835 1000
lala 7 1.2 1 first 7 1 189 4 5.32 1.45999693870544 1 1 1 0 -0.002229305 0.01348815 0.03394065 1000 1000 1000 -0.002229305 0.01348815 0.03394065 1000 1000 1000 -0.02403104 -0.03095072 -0.03873253 -0.04390377 -0.04601926 1000 -0.02403104 -0.03095072 -0.03873253 -0.04390377 -0.04601926 1000
lala 15 0.075 0 first 17 1 190 6 5.355 0.639997720718384 0 1 -1 1 -0.00299039 0.02180555 0.04180907 1000 1000 1000 -0.00299039 0.02180555 0.04180907 1000 1000 1000 0.01606019 0.01639569 0.01695432 0.01718171 0.01766852 1000 0.01606019 0.01639569 0.01695432 0.01718171 0.01766852 1000
lala 12 0.15 1 second 10 1 191 6 4.41 0.99999737739563 1 0 1 1 0.006611748 0.01565949 0.01186889 0.01316868 0.01612502 1000 0.006611748 0.01565949 0.01186889 0.01316868 0.01612502 1000 -0.0175145 -0.01967483 -0.01273636 -0.007992171 -0.0120908 1000 -0.0175145 -0.01967483 -0.01273636 -0.007992171 -0.0120908 1000
lala 8 1.2 1 second 3 1 192 5 5.45 1.73999691009521 -1 1 1 1 0.01065069 0.00608557 0.007204974 0.01169166 0.01108169 1000 0.01065069 0.00608557 0.007204974 0.01169166 0.01108169 1000 0.006706952 0.006330227 0.006627769 0.006163709 0.004755497 1000 0.006706952 0.006330227 0.006627769 0.006163709 0.004755497 1000
lala 6 1.2 1 first 15 1 193 5 5.45 2.13999652862549 0 1 1 0 0.001460112 0.001336805 0.0009243373 1000 1000 1000 0.001460112 0.001336805 0.0009243373 1000 1000 1000 -0.0009335538 0.0006674096 0.001721634 0.002375996 0.002207008 1000 -0.0009335538 0.0006674096 0.001721634 0.002375996 0.002207008 1000
lala 10 0.6 1 first 12 1 194 4 4.44 13.2601685523987 0 0 1 1 0.00261808 0.002470408 0.002341834 1000 1000 1000 0.00261808 0.002470408 0.002341834 1000 1000 1000 0.002687997 0.002893861 0.0033623 0.003066386 0.003011556 1000 0.002687997 0.002893861 0.0033623 0.003066386 0.003011556 1000
lala 7 1.2 0 first 15 1 195 5 4.25 6.04000329971313 0 1 -1 0 0.0007622375 -0.0001481322 -0.0007113257 1000 1000 1000 0.0007622375 -0.0001481322 -0.0007113257 1000 1000 1000 -0.006539113 -0.005734879 -0.004390333 -0.001651355 -0.000904136 1000 -0.006539113 -0.005734879 -0.004390333 -0.001651355 -0.000904136 1000
lala 16 0.0375 1 first 17 1 196 6 5.3925 2.05999660491943 0 1 1 1 -0.005376108 -0.004799853 -0.005116816 1000 1000 1000 -0.005376108 -0.004799853 -0.005116816 1000 1000 1000 -0.007811104 -0.007975723 -0.007985542 -0.008002982 -0.007845574 1000 -0.007811104 -0.007975723 -0.007985542 -0.008002982 -0.007845574 1000
lala 14 1.2 1 second 6 1 197 4 5.04 0.439997911453247 1 0 1 0 -0.007068593 -0.007377074 -0.009194734 -0.009168361 -0.01249491 1000 -0.007068593 -0.007377074 -0.009194734 -0.009168361 -0.01249491 1000 -0.01313343 -0.01148365 -0.009844862 -0.01012798 -0.01070238 1000 -0.01313343 -0.01148365 -0.009844862 -0.01012798 -0.01070238 1000
lala 8 1.2 1 first 15 1 198 5 5.45 0.319998025894165 0 1 1 0 -0.01053249 -0.01116015 -0.01206667 1000 1000 1000 -0.01053249 -0.01116015 -0.01206667 1000 1000 1000 -0.01673435 -0.01634891 -0.01586292 -0.01652787 -0.01623434 1000 -0.01673435 -0.01634891 -0.01586292 -0.01652787 -0.01623434 1000
lala 12 0.6 1 first 1 1 199 4 7.119999 0.759997606277466 -1 1 1 0 -0.0168421 -0.01691094 -0.01657349 1000 1000 1000 -0.0168421 -0.01691094 -0.01657349 1000 1000 1000 -0.01835887 -0.01879093 -0.01902978 -0.01846344 -0.01843527 1000 -0.01835887 -0.01879093 -0.01902978 -0.01846344 -0.01843527 1000
lala 9 1.2 0 first 3 1 200 5 4.25 0.299998044967651 -1 1 -1 1 -0.01449374 -0.0043457 -0.002875531 -0.001477686 0.004858871 0.006032245 -0.01449374 -0.0043457 -0.002875531 -0.001477686 0.004858871 0.006032245 -0.01280297 -0.01287288 -0.01294996 -0.01371551 -0.01453704 1000 -0.01280297 -0.01287288 -0.01294996 -0.01371551 -0.01453704 1000
lala 11 0.6 1 first 12 1 201 4 3.84 0.579997777938843 0 0 1 1 -0.01661264 -0.01690448 -0.01729736 1000 1000 1000 -0.01661264 -0.01690448 -0.01729736 1000 1000 1000 -0.0190314 -0.0186701 -0.01848146 -0.01882726 -0.01907329 1000 -0.0190314 -0.0186701 -0.01848146 -0.01882726 -0.01907329 1000
lala 13 1.2 1 second 5 1 202 6 6.780002 0.459997892379761 -1 1 1 1 -0.01969172 -0.01996801 -0.02030441 -0.02050562 -0.02108195 1000 -0.01969172 -0.01996801 -0.02030441 -0.02050562 -0.02108195 1000 -0.02038342 -0.02045518 -0.02042507 -0.02003665 -0.02042144 1000 -0.02038342 -0.02045518 -0.02042507 -0.02003665 -0.02042144 1000
lala 12 0.6 0 second 12 1 203 4 3.24 1.07999730110168 0 0 -1 1 -0.02051084 -0.02077991 -0.02083043 -0.02060627 -0.02032932 1000 -0.02051084 -0.02077991 -0.02083043 -0.02060627 -0.02032932 1000 -0.02016291 -0.02013141 -0.02003679 -0.02027233 -0.02046858 1000 -0.02016291 -0.02013141 -0.02003679 -0.02027233 -0.02046858 1000
lala 15 0.6 1 second 6 1 204 4 4.44 0.659997701644897 1 0 1 1 -0.02259965 -0.02266541 -0.02242424 -0.02250117 -0.02255844 1000 -0.02259965 -0.02266541 -0.02242424 -0.02250117 -0.02255844 1000 -0.02342174 -0.02335661 -0.02336347 -0.0240181 -0.02423324 1000 -0.02342174 -0.02335661 -0.02336347 -0.0240181 -0.02423324 1000
lala 8 1.2 1 first 9 1 205 5 5.45 0.439997911453247 1 1 1 1 -0.02480597 -0.02479108 -0.02472262 1000 1000 1000 -0.02480597 -0.02479108 -0.02472262 1000 1000 1000 -0.0258209 -0.02612739 -0.02595265 -0.0257884 -0.02554378 1000 -0.0258209 -0.02612739 -0.02595265 -0.0257884 -0.02554378 1000
lala 17 0.01875 1 second 17 1 206 6 5.37375 0.499997854232788 0 1 1 1 -0.02521695 -0.02557359 -0.02599731 -0.02605211 -0.02601609 1000 -0.02521695 -0.02557359 -0.02599731 -0.02605211 -0.02601609 1000 -0.02622689 -0.02631477 -0.02623719 -0.02590625 -0.02573662 1000 -0.02622689 -0.02631477 -0.02623719 -0.02590625 -0.02573662 1000
lala 9 1.2 1 first 9 1 207 5 4.25 0.859997510910034 1 1 1 1 -0.02129891 -0.01625073 -0.009489583 1000 1000 1000 -0.02129891 -0.01625073 -0.009489583 1000 1000 1000 0.02679157 0.02503082 0.02247556 0.01973801 0.02018792 1000 0.02679157 0.02503082 0.02247556 0.01973801 0.02018792 1000
lala 14 0.15 1 second 0 1 208 4 5.789999 0.279998064041138 -1 0 1 0 0.009488494 0.00934675 0.00878082 0.008584095 0.00844253 1000 0.009488494 0.00934675 0.00878082 0.008584095 0.00844253 1000 0.007353737 0.007430707 0.007555521 0.007221923 0.007197601 1000 0.007353737 0.007430707 0.007555521 0.007221923 0.007197601 1000
lala 14 2.4 0 second 5 1 209 6 4.380002 0.119998216629028 -1 1 -1 1 0.004403278 0.004621148 0.004591686 0.004754699 0.004985455 1000 0.004403278 0.004621148 0.004591686 0.004754699 0.004985455 1000 0.00279476 0.002766594 0.003119448 0.003198774 0.00349232 1000 0.00279476 0.002766594 0.003119448 0.003198774 0.00349232 1000
lala 12 0.3 1 second 16 1 210 6 5.46 0.319998025894165 0 0 1 1 0.002675687 0.002663623 0.002444107 0.002541258 0.002915921 1000 0.002675687 0.002663623 0.002444107 0.002541258 0.002915921 1000 0.002337765 0.002413959 0.00233977 0.00227358 0.001688033 1000 0.002337765 0.002413959 0.00233977 0.00227358 0.001688033 1000
lala 18 0.01875 1 first 17 1 211 6 5.355 0.659997701644897 0 1 1 1 0.00020471 0.0003104218 0.000344992 1000 1000 1000 0.00020471 0.0003104218 0.000344992 1000 1000 1000 0.0004893115 0.0009106444 0.001248162 0.001126853 0.0009225732 1000 0.0004893115 0.0009106444 0.001248162 0.001126853 0.0009225732 1000
lala 9 1.2 0 first 15 1 212 5 4.25 0.919997453689575 0 1 -1 1 0.0003301747 0.000473334 0.0004959778 1000 1000 1000 0.0003301747 0.000473334 0.0004959778 1000 1000 1000 -0.0001141058 3.341474E-05 0.0001967745 0.0003050376 0.0001030125 1000 -0.0001141058 3.341474E-05 0.0001967745 0.0003050376 0.0001030125 1000
lala 16 0.6 1 second 6 1 213 4 3.84 0.99999737739563 1 0 1 0 -0.0003717536 -0.0004288892 -0.0002987935 -0.0002111772 0.0004849125 1000 -0.0003717536 -0.0004288892 -0.0002987935 -0.0002111772 0.0004849125 1000 -0.0005863155 -0.0007652223 -0.0005960373 -0.0006041616 -0.000801728 1000 -0.0005863155 -0.0007652223 -0.0005960373 -0.0006041616 -0.000801728 1000
lala 13 0.3 1 first 1 1 214 4 6.819999 1.05999732017517 -1 1 1 0 -0.0007865877 -0.00125601 -0.001113643 1000 1000 1000 -0.0007865877 -0.00125601 -0.001113643 1000 1000 1000 -0.001041369 -0.0009129824 -0.0006070205 -0.0002243352 -0.0003100715 1000 -0.001041369 -0.0009129824 -0.0006070205 -0.0002243352 -0.0003100715 1000
lala 17 0.6 0 first 6 1 215 4 3.24 0.439997911453247 1 0 -1 0 -0.0005144501 -0.0006044778 -0.0009253555 1000 1000 1000 -0.0005144501 -0.0006044778 -0.0009253555 1000 1000 1000 0.0001182103 0.0001464905 0.0003322777 -0.0001106965 -0.0001881766 1000 0.0001182103 0.0001464905 0.0003322777 -0.0001106965 -0.0001881766 1000
lala 13 0.3 1 first 12 1 216 4 3.54 0.559997797012329 0 0 1 1 -0.0005281716 -0.0003647783 -0.00012774 1000 1000 1000 -0.0005281716 -0.0003647783 -0.00012774 1000 1000 1000 -0.0002628248 -6.049436E-05 0.0003264357 0.0002905341 -4.091057E-05 1000 -0.0002628248 -6.049436E-05 0.0003264357 0.0002905341 -4.091057E-05 1000
lala 10 0.6 0 first 3 1 217 5 4.85 0.799997568130493 -1 1 -1 1 -0.001020512 -0.0006954194 -0.000631145 1000 1000 1000 -0.001020512 -0.0006954194 -0.000631145 1000 1000 1000 -0.0005276573 -0.0005871844 -0.0003453491 -0.0003988387 -0.0004274052 1000 -0.0005276573 -0.0005871844 -0.0003453491 -0.0003988387 -0.0004274052 1000
lala 10 0.6 0 first 15 1 218 5 4.85 0.499997854232788 0 1 -1 1 -0.0004957268 -0.000543063 -0.001041087 1000 1000 1000 -0.0004957268 -0.000543063 -0.001041087 1000 1000 1000 -0.0006317104 -0.0006206474 -0.0004845779 -0.0006966233 -0.0005243826 1000 -0.0006317104 -0.0006206474 -0.0004845779 -0.0006966233 -0.0005243826 1000
lala 8 1.2 1 first 13 1 219 4 4.12 0.559997797012329 0 1 1 0 -0.0006921999 -0.0005705797 -0.000790204 1000 1000 1000 -0.0006921999 -0.0005705797 -0.000790204 1000 1000 1000 -0.001555076 -0.001612244 -0.001652926 -0.001343099 -0.001210058 1000 -0.001555076 -0.001612244 -0.001652926 -0.001343099 -0.001210058 1000
lala 14 0.15 1 second 12 1 220 4 3.39 1.03999733924866 0 0 1 0 -0.00185707 -0.001862272 -0.001738618 -0.001269703 -0.001338423 1000 -0.00185707 -0.001862272 -0.001738618 -0.001269703 -0.001338423 1000 -0.001848954 -0.001783311 -0.001458984 -0.001528199 -0.00155208 1000 -0.001848954 -0.001783311 -0.001458984 -0.001528199 -0.00155208 1000
lala 11 0.6 1 second 15 1 221 5 5.45 0.679997682571411 0 1 1 1 -0.002633768 -0.002672651 -0.002471068 -0.002438962 -0.002472651 1000 -0.002633768 -0.002672651 -0.002471068 -0.002438962 -0.002472651 1000 -0.003117722 -0.003137167 -0.003524801 -0.003282806 -0.003269436 1000 -0.003117722 -0.003137167 -0.003524801 -0.003282806 -0.003269436 1000
lala 9 1.2 0 second 13 1 222 4 2.92 0.759997606277466 0 1 -1 1 -0.003058104 -0.003181255 -0.00286199 -0.003083018 -0.002960856 1000 -0.003058104 -0.003181255 -0.00286199 -0.003083018 -0.002960856 1000 -0.003289548 -0.00347455 -0.003564215 -0.003651551 -0.003223503 1000 -0.003289548 -0.00347455 -0.003564215 -0.003651551 -0.003223503 1000
lala 14 0.3 1 second 1 1 223 4 6.519999 1.21999716758728 -1 1 1 0 -0.005772443 -0.005645733 -0.005434001 -0.005520559 -0.005374636 1000 -0.005772443 -0.005645733 -0.005434001 -0.005520559 -0.005374636 1000 -0.004598761 -0.004638779 -0.004027981 -0.003916556 -0.004126744 1000 -0.004598761 -0.004638779 -0.004027981 -0.003916556 -0.004126744 1000
lala 13 0.3 1 second 11 1 224 6 5.880002 1.05999732017517 1 1 1 1 -0.004330742 -0.00427265 -0.00415247 -0.004165503 -0.004474756 1000 -0.004330742 -0.00427265 -0.00415247 -0.004165503 -0.004474756 1000 -0.004119608 -0.00466326 -0.005014666 -0.005204806 -0.005401667 1000 -0.004119608 -0.00466326 -0.005014666 -0.005204806 -0.005401667 1000
lala 13 0.15 1 second 2 1 225 5 7.5 0.499997854232788 -1 0 1 0 -0.00476019 -0.004944795 -0.005240585 -0.004876798 -0.004843798 1000 -0.00476019 -0.004944795 -0.005240585 -0.004876798 -0.004843798 1000 -0.004640332 -0.004612051 -0.004792742 -0.005219127 -0.005531556 1000 -0.004640332 -0.004612051 -0.004792742 -0.005219127 -0.005531556 1000
lala 15 1.2 0 second 5 1 226 6 5.580002 0.679997682571411 -1 1 -1 1 -0.005241136 -0.005237556 -0.00531237 -0.005105209 -0.004823248 1000 -0.005241136 -0.005237556 -0.00531237 -0.005105209 -0.004823248 1000 -0.005013865 -0.005097772 -0.005483997 -0.005298261 -0.005700966 1000 -0.005013865 -0.005097772 -0.005483997 -0.005298261 -0.005700966 1000
lala 8 1.2 0 second 7 1 227 4 4.12 0.639997720718384 1 1 -1 0 -0.007860377 -0.007755155 -0.007495631 -0.007606995 -0.007681076 1000 -0.007860377 -0.007755155 -0.007495631 -0.007606995 -0.007681076 1000 -0.008062066 -0.007360806 -0.006825605 -0.006808114 -0.007260468 1000 -0.008062066 -0.007360806 -0.006825605 -0.006808114 -0.007260468 1000
lala 10 0.6 1 second 13 1 228 4 3.52 0.679997682571411 0 1 1 0 -0.007718676 -0.007372497 -0.007025819 -0.006921825 -0.007310934 1000 -0.007718676 -0.007372497 -0.007025819 -0.006921825 -0.007310934 1000 -0.007003592 -0.006625581 -0.006604043 -0.006658217 -0.006496904 1000 -0.007003592 -0.006625581 -0.006604043 -0.006658217 -0.006496904 1000
lala 13 0.15 0 first 16 1 229 6 5.31 0.279998064041138 0 0 -1 0 -0.007652827 -0.007309116 -0.007397337 1000 1000 1000 -0.007652827 -0.007309116 -0.007397337 1000 1000 1000 -0.006899217 -0.006743007 -0.006833014 -0.007015211 -0.007013986 1000 -0.006899217 -0.006743007 -0.006833014 -0.007015211 -0.007013986 1000
lala 13 0.075 1 second 10 1 230 6 4.335 1.31999707221985 1 0 1 0 -0.007484086 -0.007447548 -0.007529004 -0.007407317 -0.007409049 1000 -0.007484086 -0.007447548 -0.007529004 -0.007407317 -0.007409049 1000 -0.007452131 -0.007719508 -0.008126996 -0.008162246 -0.008443638 1000 -0.007452131 -0.007719508 -0.008126996 -0.008162246 -0.008443638 1000
lala 20 0.0375 1 second 8 1 231 5 4.8375 1.49999690055847 1 0 1 0 -0.008703028 -0.008598526 -0.008791772 -0.00938237 -0.00958969 1000 -0.008703028 -0.008598526 -0.008791772 -0.00938237 -0.00958969 1000 -0.01001076 -0.009286356 -0.009047426 -0.008735077 -0.008891303 1000 -0.01001076 -0.009286356 -0.009047426 -0.008735077 -0.008891303 1000
lala 14 0.15 0 first 2 1 232 5 7.349999 0.279998064041138 -1 0 -1 1 -0.009899654 -0.009877511 -0.009701605 1000 1000 1000 -0.009899654 -0.009877511 -0.009701605 1000 1000 1000 -0.009972094 -0.009932649 -0.009691621 -0.009398154 -0.009649578 1000 -0.009972094 -0.009932649 -0.009691621 -0.009398154 -0.009649578 1000
lala 11 0.6 0 second 3 1 233 5 5.45 0.279998064041138 -1 1 -1 1 -0.009757354 -0.009328045 -0.0093817 -0.009432117 -0.009720482 1000 -0.009757354 -0.009328045 -0.0093817 -0.009432117 -0.009720482 1000 -0.009443113 -0.009665415 -0.009495134 -0.009621934 -0.009600895 1000 -0.009443113 -0.009665415 -0.009495134 -0.009621934 -0.009600895 1000
lala 12 0.3 1 second 15 1 234 5 5.15 0.0599982738494873 0 1 1 1 -0.009347498 -0.009349218 -0.009312792 -0.00929314 -0.009338195 1000 -0.009347498 -0.009349218 -0.009312792 -0.00929314 -0.009338195 1000 -0.009075981 -0.008845882 -0.008662018 -0.008690257 -0.008729715 1000 -0.009075981 -0.008845882 -0.008662018 -0.008690257 -0.008729715 1000
lala 11 0.3 0 first 13 1 235 4 3.22 1.59999680519104 0 1 -1 0 -0.009150772 -0.008789454 -0.008958422 1000 1000 1000 -0.009150772 -0.008789454 -0.008958422 1000 1000 1000 -0.007854192 -0.007777886 -0.007813283 -0.007624108 -0.007746966 1000 -0.007854192 -0.007777886 -0.007813283 -0.007624108 -0.007746966 1000
lala 21 0.0375 0 first 8 1 236 5 4.8 0.39999794960022 1 0 -1 0 -0.009306674 -0.009297072 -0.009108387 1000 1000 1000 -0.009306674 -0.009297072 -0.009108387 1000 1000 1000 -0.008780367 -0.008569735 -0.008553206 -0.009174077 -0.009589957 1000 -0.008780367 -0.008569735 -0.008553206 -0.009174077 -0.009589957 1000
lala 10 2.4 0 first 9 1 237 5 1.85 0.219998121261597 1 1 -1 1 -0.009876573 -0.009797737 -0.009665234 1000 1000 1000 -0.009876573 -0.009797737 -0.009665234 1000 1000 1000 -0.00849067 -0.008813979 -0.008815504 -0.008941999 -0.008575025 1000 -0.00849067 -0.008813979 -0.008815504 -0.008941999 -0.008575025 1000
lala 11 1.2 0 first 9 1 238 5 3.05 0.39999794960022 1 1 -1 1 -0.009167485 -0.008786875 -0.008803522 1000 1000 1000 -0.009167485 -0.008786875 -0.008803522 1000 1000 1000 -0.009597889 -0.009577274 -0.009057752 -0.009196882 -0.009285145 1000 -0.009597889 -0.009577274 -0.009057752 -0.009196882 -0.009285145 1000
lala 15 0.3 0 first 1 1 239 4 6.219999 0.439997911453247 -1 1 -1 1 -0.01023418 -0.009874486 -0.00993243 1000 1000 1000 -0.01023418 -0.009874486 -0.00993243 1000 1000 1000 -0.008577911 -0.008257103 -0.008288017 -0.007580164 -0.007150177 1000 -0.008577911 -0.008257103 -0.008288017 -0.007580164 -0.007150177 1000
lala 12 0.6 1 second 3 1 240 5 6.05 0.439997911453247 -1 1 1 0 -0.007934424 -0.007980559 -0.007884638 -0.007317407 -0.007283026 1000 -0.007934424 -0.007980559 -0.007884638 -0.007317407 -0.007283026 1000 -0.008055519 -0.007756616 -0.007235082 -0.007236596 -0.007532172 1000 -0.008055519 -0.007756616 -0.007235082 -0.007236596 -0.007532172 1000
lala 16 0.3 1 second 14 1 241 5 4.35 0.599997758865356 0 0 1 1 -0.008251014 -0.008470706 -0.008481891 -0.008727359 -0.008545114 1000 -0.008251014 -0.008470706 -0.008481891 -0.008727359 -0.008545114 1000 -0.008474899 -0.008604902 -0.008423525 -0.007808347 -0.007748955 1000 -0.008474899 -0.008604902 -0.008423525 -0.007808347 -0.007748955 1000
lala 15 0.075 1 second 0 1 242 4 5.715 1.3999969959259 -1 0 1 1 -0.007940126 -0.007756303 -0.007673234 -0.007994865 -0.007682377 1000 -0.007940126 -0.007756303 -0.007673234 -0.007994865 -0.007682377 1000 -0.007236106 -0.006971483 -0.006650196 -0.006323751 -0.006378565 1000 -0.007236106 -0.006971483 -0.006650196 -0.006323751 -0.006378565 1000
lala 22 0.01875 0 first 8 1 243 5 4.81875 1.45999693870544 1 0 -1 1 -0.006982465 -0.007327285 -0.007571516 1000 1000 1000 -0.006982465 -0.007327285 -0.007571516 1000 1000 1000 -0.00802948 -0.00795478 -0.007633678 -0.007283745 -0.007683993 1000 -0.00802948 -0.00795478 -0.007633678 -0.007283745 -0.007683993 1000
lala 15 0.075 1 second 2 1 244 5 7.424999 0.579997777938843 -1 0 1 0 -0.007826868 -0.008195885 -0.008024933 -0.007563889 -0.007524318 1000 -0.007826868 -0.008195885 -0.008024933 -0.007563889 -0.007524318 1000 -0.008977937 -0.008397287 -0.008043556 -0.007684194 -0.007706618 1000 -0.008977937 -0.008397287 -0.008043556 -0.007684194 -0.007706618 1000
lala 16 0.075 1 first 0 1 245 4 5.64 1.19999718666077 -1 0 1 0 -0.008474962 -0.008814743 -0.008714058 1000 1000 1000 -0.008474962 -0.008814743 -0.008714058 1000 1000 1000 -0.006383585 -0.006432481 -0.006458346 -0.0068405 -0.007214923 1000 -0.006383585 -0.006432481 -0.006458346 -0.0068405 -0.007214923 1000
lala 14 0.075 0 first 16 1 246 6 5.385 1.81999683380127 0 0 -1 0 -0.00644091 -0.006270857 -0.006192399 1000 1000 1000 -0.00644091 -0.006270857 -0.006192399 1000 1000 1000 -0.006355464 -0.006809891 -0.006524933 -0.006539864 -0.00634799 1000 -0.006355464 -0.006809891 -0.006524933 -0.006539864 -0.00634799 1000
lala 15 0.075 0 first 16 1 247 6 5.46 0.879997491836548 0 0 -1 0 -0.005546152 -0.005540944 -0.005964681 1000 1000 1000 -0.005546152 -0.005540944 -0.005964681 1000 1000 1000 -0.006330064 -0.006038377 -0.006295383 -0.006197193 -0.00609464 1000 -0.006330064 -0.006038377 -0.006295383 -0.006197193 -0.00609464 1000
lala 16 0.15 0 second 1 1 248 4 6.369999 0.739997625350952 -1 1 -1 1 -0.00944143 -0.008908379 -0.008418082 -0.008508185 -0.009009044 1000 -0.00944143 -0.008908379 -0.008418082 -0.008508185 -0.009009044 1000 -0.008773312 -0.008319026 -0.008787206 -0.00905141 -0.009091276 1000 -0.008773312 -0.008319026 -0.008787206 -0.00905141 -0.009091276 1000
lala 5 1.2 0 first 4 1 249 6 6.36 0.439997911453247 -1 0 -1 1 -0.01219687 -0.01226185 -0.01204085 1000 1000 1000 -0.01219687 -0.01226185 -0.01204085 1000 1000 1000 -0.01060276 -0.01014091 -0.009808142 -0.009384335 -0.009265039 1000 -0.01060276 -0.01014091 -0.009808142 -0.009384335 -0.009265039 1000
lala 17 0.075 0 first 0 1 250 4 5.565 0.959997415542603 -1 0 -1 1 -0.009624179 -0.004760321 -0.01050415 -0.01370394 -0.01440185 -0.01395848 -0.009624179 -0.004760321 -0.01050415 -0.01370394 -0.01440185 -0.01395848 -0.02279057 -0.01904624 -0.01656948 -0.0150683 -0.01376376 1000 -0.02279057 -0.01904624 -0.01656948 -0.0150683 -0.01376376 1000
lala 17 0.15 0 second 14 1 251 5 4.2 2.7399959564209 0 0 -1 1 0.003873284 0.004011058 0.003176102 0.001839982 0.001391132 1000 0.003873284 0.004011058 0.003176102 0.001839982 0.001391132 1000 0.005244209 0.005589441 0.005494982 0.005522321 0.005527071 1000 0.005244209 0.005589441 0.005494982 0.005522321 0.005527071 1000
lala 12 1.2 0 first 9 1 252 5 4.25 1.3999969959259 1 1 -1 1 0.002775471 0.00312259 0.00393303 1000 1000 1000 0.002775471 0.00312259 0.00393303 1000 1000 1000 0.005941285 0.005725177 0.005534591 0.005594308 0.005386712 1000 0.005941285 0.005725177 0.005534591 0.005594308 0.005386712 1000
lala 18 0.0375 0 first 0 1 253 4 5.6025 0.61999773979187 -1 0 -1 1 0.002884411 0.003052551 0.003011049 1000 1000 1000 0.002884411 0.003052551 0.003011049 1000 1000 1000 0.001906998 0.00222499 0.002458689 0.002244954 0.001252942 1000 0.001906998 0.00222499 0.002458689 0.002244954 0.001252942 1000
lala 12 0.15 0 second 13 1 254 4 3.37 0.819997549057007 0 1 -1 0 -0.004435996 -0.004232694 -0.004511595 -0.004880475 -0.005128615 1000 -0.004435996 -0.004232694 -0.004511595 -0.004880475 -0.005128615 1000 -0.008262199 -0.008387771 -0.00842293 -0.0086373 -0.009097317 1000 -0.008262199 -0.008387771 -0.00842293 -0.0086373 -0.009097317 1000
lala 19 0.01875 0 first 17 1 255 6 5.33625 0.679997682571411 0 1 -1 1 -0.008351363 -0.006693705 -0.003473597 1000 1000 1000 -0.008351363 -0.006693705 -0.003473597 1000 1000 1000 0.003427468 0.003087267 0.003176494 0.003326186 0.003470156 1000 0.003427468 0.003087267 0.003176494 0.003326186 0.003470156 1000
lala 13 0.3 0 first 3 1 256 5 5.75 0.39999794960022 -1 1 -1 0 0.0005233998 3.591384E-05 -0.0005109207 1000 1000 1000 0.0005233998 3.591384E-05 -0.0005109207 1000 1000 1000 -0.002308152 -0.00271145 -0.002814799 -0.002862072 -0.002768202 1000 -0.002308152 -0.00271145 -0.002814799 -0.002862072 -0.002768202 1000
lala 6 1.2 0 first 4 1 257 6 7.559999 0.699997663497925 -1 0 -1 1 -0.009005285 -0.01284192 -0.01583627 1000 1000 1000 -0.009005285 -0.01284192 -0.01583627 1000 1000 1000 -0.003098426 -0.001327215 -0.0005030781 -0.0001331389 0.0005846538 1000 -0.003098426 -0.001327215 -0.0005030781 -0.0001331389 0.0005846538 1000
lala 16 1.2 0 first 5 1 258 6 6.780002 0.279998064041138 -1 1 -1 1 -0.01218859 -0.01135704 -0.01077072 1000 1000 1000 -0.01218859 -0.01135704 -0.01077072 1000 1000 1000 -0.009532151 -0.01009463 -0.0102363 -0.01033113 -0.01020673 1000 -0.009532151 -0.01009463 -0.0102363 -0.01033113 -0.01020673 1000
lala 16 0.0375 0 first 2 1 259 5 7.387499 0.559997797012329 -1 0 -1 0 -0.01083122 -0.01140685 -0.01170062 1000 1000 1000 -0.01083122 -0.01140685 -0.01170062 1000 1000 1000 -0.01362736 -0.013572 -0.0134236 -0.01342958 -0.01341829 1000 -0.01362736 -0.013572 -0.0134236 -0.01342958 -0.01341829 1000
lala 18 0.075 0 first 14 1 260 5 4.275 0.659997701644897 0 0 -1 1 -0.01412803 -0.01397152 -0.01418677 1000 1000 1000 -0.01412803 -0.01397152 -0.01418677 1000 1000 1000 -0.01552957 -0.01550241 -0.01570332 -0.01559445 -0.01530728 1000 -0.01552957 -0.01550241 -0.01570332 -0.01559445 -0.01530728 1000
lala 19 0.0375 0 first 0 1 261 4 5.64 0.439997911453247 -1 0 -1 0 -0.01628868 -0.01626399 -0.01601544 1000 1000 1000 -0.01628868 -0.01626399 -0.01601544 1000 1000 1000 -0.02157914 -0.02147773 -0.02156699 -0.02175524 -0.02181405 1000 -0.02157914 -0.02147773 -0.02156699 -0.02175524 -0.02181405 1000
lala 15 0.15 0 second 12 1 262 4 3.24 2.31999635696411 0 0 -1 1 -0.02036408 -0.02000049 -0.02004549 -0.02035183 -0.02060929 1000 -0.02036408 -0.02000049 -0.02004549 -0.02035183 -0.02060929 1000 -0.01990528 -0.01976526 -0.01969253 -0.01930879 -0.01917527 1000 -0.01990528 -0.01976526 -0.01969253 -0.01930879 -0.01917527 1000
lala 13 0.15 1 second 13 1 263 4 3.52 0.559997797012329 0 1 1 0 -0.01929072 -0.01937696 -0.01967441 -0.01946582 -0.01960654 1000 -0.01929072 -0.01937696 -0.01967441 -0.01946582 -0.01960654 1000 -0.01976331 -0.01922397 -0.01896139 -0.01909851 -0.01925845 1000 -0.01976331 -0.01922397 -0.01896139 -0.01909851 -0.01925845 1000
lala 20 0.0375 0 second 0 1 264 4 5.6775 1.15999722480774 -1 0 -1 0 -0.007763944 -0.01072164 -0.009355562 -0.005040713 -0.003004135 1000 -0.007763944 -0.01072164 -0.009355562 -0.005040713 -0.003004135 1000 0.009828057 0.0125934 0.01286168 0.01232757 0.01165034 1000 0.009828057 0.0125934 0.01286168 0.01232757 0.01165034 1000
lala 9 1.2 1 first 7 1 265 4 5.32 1.57999682426453 1 1 1 1 -0.01825109 -0.01694453 -0.01723711 1000 1000 1000 -0.01825109 -0.01694453 -0.01723711 1000 1000 1000 -0.07385784 -0.07711697 -0.07216149 -0.06334764 -0.0561456 1000 -0.07385784 -0.07711697 -0.07216149 -0.06334764 -0.0561456 1000
lala 17 0.15 1 second 1 1 266 4 6.519999 1.25999712944031 -1 1 1 0 -0.0102541 -0.01461134 -0.01841375 -0.02360474 -0.02573557 1000 -0.0102541 -0.01461134 -0.01841375 -0.02360474 -0.02573557 1000 -0.04229394 -0.05063682 -0.05308532 -0.04888854 -0.04509995 1000 -0.04229394 -0.05063682 -0.05308532 -0.04888854 -0.04509995 1000
lala 16 0.075 1 first 16 1 267 6 5.534999 2.95999574661255 0 0 1 1 -0.02372294 -0.03312591 -0.04226405 1000 1000 1000 -0.02372294 -0.03312591 -0.04226405 1000 1000 1000 -0.02978337 -0.02529555 -0.02508126 -0.02259052 -0.02265986 1000 -0.02978337 -0.02529555 -0.02508126 -0.02259052 -0.02265986 1000
lala 7 1.2 0 first 4 1 268 6 8.759999 0.499997854232788 -1 0 -1 0 0.003867477 0.004652297 0.004472244 1000 1000 1000 0.003867477 0.004652297 0.004472244 1000 1000 1000 -0.01038924 -0.008764291 -0.007032149 -0.006172294 -0.007163638 1000 -0.01038924 -0.008764291 -0.007032149 -0.006172294 -0.007163638 1000
lala 16 0.075 0 first 12 1 269 4 3.315 0.739997625350952 0 0 -1 0 -0.01356127 -0.01368959 -0.01225397 1000 1000 1000 -0.01356127 -0.01368959 -0.01225397 1000 1000 1000 -0.01482127 -0.01389176 -0.01303876 -0.01268924 -0.01301703 1000 -0.01482127 -0.01389176 -0.01303876 -0.01268924 -0.01301703 1000
lala 18 0.075 0 first 1 1 270 4 6.444999 0.379997968673706 -1 1 -1 0 -0.01676791 -0.01605283 -0.01603324 1000 1000 1000 -0.01676791 -0.01605283 -0.01603324 1000 1000 1000 -0.01654761 -0.01601874 -0.01535156 -0.01492536 -0.01485521 1000 -0.01654761 -0.01601874 -0.01535156 -0.01492536 -0.01485521 1000
lala 19 0.075 1 second 14 1 271 5 4.35 1.13999724388123 0 0 1 0 -0.01602471 -0.01492685 -0.01565218 -0.0160935 -0.01599373 1000 -0.01602471 -0.01492685 -0.01565218 -0.0160935 -0.01599373 1000 -0.01508022 -0.01476435 -0.01456185 -0.01440633 -0.01437412 1000 -0.01508022 -0.01476435 -0.01456185 -0.01440633 -0.01437412 1000
lala 10 0.6 1 second 7 1 272 4 4.72 1.01999735832214 1 1 1 0 -0.01137997 -0.01146007 -0.01108133 -0.0116025 -0.01174529 1000 -0.01137997 -0.01146007 -0.01108133 -0.0116025 -0.01174529 1000 -0.01378784 -0.01347923 -0.01286689 -0.01228255 -0.01236348 1000 -0.01378784 -0.01347923 -0.01286689 -0.01228255 -0.01236348 1000
lala 14 0.075 0 first 10 1 273 6 4.26 0.639997720718384 1 0 -1 1 -0.001053296 0.01181097 0.0152563 1000 1000 1000 -0.001053296 0.01181097 0.0152563 1000 1000 1000 -0.03893959 -0.03903933 -0.02099676 -0.001056398 0.006279362 1000 -0.03893959 -0.03903933 -0.02099676 -0.001056398 0.006279362 1000
lala 20 0.0375 0 first 14 1 274 5 4.3125 2.45999622344971 0 0 -1 1 0.01228774 0.01504566 0.01429498 1000 1000 1000 0.01228774 0.01504566 0.01429498 1000 1000 1000 0.005125757 -0.005213585 -0.007595686 -0.001701057 0.005278046 1000 0.005125757 -0.005213585 -0.007595686 -0.001701057 0.005278046 1000
lala 19 0.0375 1 second 1 1 275 4 6.482499 0.679997682571411 -1 1 1 1 0.0115017 0.01165584 0.01259814 0.01372673 0.0130439 1000 0.0115017 0.01165584 0.01259814 0.01372673 0.0130439 1000 0.01954609 0.0170611 0.01458227 0.01170744 0.01561589 1000 0.01954609 0.0170611 0.01458227 0.01170744 0.01561589 1000
lala 11 0.6 0 first 7 1 276 4 4.12 0.319998025894165 1 1 -1 1 -0.003039438 -0.00473709 -0.0008204576 1000 1000 1000 -0.003039438 -0.00473709 -0.0008204576 1000 1000 1000 -0.01790846 -0.01859034 -0.02079383 -0.02258079 -0.02472239 1000 -0.01790846 -0.01859034 -0.02079383 -0.02258079 -0.02472239 1000
lala 15 0.0375 1 second 10 1 277 6 4.2975 1.5399968624115 1 0 1 0 0.0141097 0.01297814 0.01504743 0.01854998 0.01704251 1000 0.0141097 0.01297814 0.01504743 0.01854998 0.01704251 1000 0.005381829 0.006492298 0.006389044 0.00552451 0.007837334 1000 0.005381829 0.006492298 0.006389044 0.00552451 0.007837334 1000
lala 13 1.2 0 first 9 1 278 5 5.45 0.99999737739563 1 1 -1 1 0.01985034 0.01548498 0.01266317 1000 1000 1000 0.01985034 0.01548498 0.01266317 1000 1000 1000 -0.05743283 -0.05622812 -0.05357194 -0.04884952 -0.0466757 1000 -0.05743283 -0.05622812 -0.05357194 -0.04884952 -0.0466757 1000
lala 8 1.2 1 first 4 1 279 6 9.959999 0.479997873306274 -1 0 1 1 -0.008736369 0.002749022 0.005243419 1000 1000 1000 -0.008736369 0.002749022 0.005243419 1000 1000 1000 -0.02094304 -0.02344211 -0.01893254 -0.01469051 -0.009045595 1000 -0.02094304 -0.02344211 -0.01893254 -0.01469051 -0.009045595 1000
lala 18 0.3 1 first 6 1 280 4 3.54 0.599997758865356 1 0 1 0 -0.01378958 -0.01223297 -0.01039959 1000 1000 1000 -0.01378958 -0.01223297 -0.01039959 1000 1000 1000 -0.01179714 -0.01205882 -0.01192694 -0.01183292 -0.01158189 1000 -0.01179714 -0.01205882 -0.01192694 -0.01183292 -0.01158189 1000
lala 9 1.2 1 second 4 1 281 6 8.759999 0.279998064041138 -1 0 1 0 -0.01368973 -0.01213145 -0.01177421 -0.01178035 -0.01115347 1000 -0.01368973 -0.01213145 -0.01177421 -0.01178035 -0.01115347 1000 -0.01220783 -0.0119788 -0.01157914 -0.01183483 -0.01223636 1000 -0.01220783 -0.0119788 -0.01157914 -0.01183483 -0.01223636 1000
lala 14 0.15 1 second 11 1 282 6 5.730001 0.339998006820679 1 1 1 0 -0.01485586 -0.01467048 -0.01456992 -0.01438693 -0.01438901 1000 -0.01485586 -0.01467048 -0.01456992 -0.01438693 -0.01438901 1000 -0.01052003 -0.01055952 -0.01052963 -0.01115203 -0.01163094 1000 -0.01052003 -0.01055952 -0.01052963 -0.01115203 -0.01163094 1000
lala 20 0.009375 0 second 17 1 283 6 5.345625 0.359997987747192 0 1 -1 0 -0.01148201 -0.0114077 -0.01085846 -0.01055051 -0.01041676 1000 -0.01148201 -0.0114077 -0.01085846 -0.01055051 -0.01041676 1000 -0.01020102 -0.009964611 -0.01009186 -0.009861952 -0.009606562 1000 -0.01020102 -0.009964611 -0.01009186 -0.009861952 -0.009606562 1000
lala 16 0.01875 0 second 10 1 284 6 4.27875 0.879997491836548 1 0 -1 1 -0.009871258 -0.009764812 -0.009435945 -0.009544133 -0.009306422 1000 -0.009871258 -0.009764812 -0.009435945 -0.009544133 -0.009306422 1000 -0.009234863 -0.009384224 -0.009112962 -0.008742349 -0.008699464 1000 -0.009234863 -0.009384224 -0.009112962 -0.008742349 -0.008699464 1000
lala 19 0.15 1 first 6 1 285 4 3.39 1.5399968624115 1 0 1 1 -0.008216641 -0.008455684 -0.008289463 1000 1000 1000 -0.008216641 -0.008455684 -0.008289463 1000 1000 1000 -0.007719103 -0.007611751 -0.00745992 -0.007460575 -0.00738346 1000 -0.007719103 -0.007611751 -0.00745992 -0.007460575 -0.00738346 1000
lala 21 0.075 0 first 0 1 286 4 5.7525 0.559997797012329 -1 0 -1 0 -0.007701335 -0.007599969 -0.007679578 1000 1000 1000 -0.007701335 -0.007599969 -0.007679578 1000 1000 1000 -0.007893202 -0.007901391 -0.008454687 -0.008456656 -0.008301095 1000 -0.007893202 -0.007901391 -0.008454687 -0.008456656 -0.008301095 1000
lala 14 2.4 1 first 9 1 287 5 7.85 0.159998178482056 1 1 1 1 -0.007796225 -0.00786176 -0.00773289 1000 1000 1000 -0.007796225 -0.00786176 -0.00773289 1000 1000 1000 -0.007049997 -0.007101444 -0.00670379 -0.006680171 -0.006367486 1000 -0.007049997 -0.007101444 -0.00670379 -0.006680171 -0.006367486 1000
lala 20 0.15 0 first 6 1 288 4 3.24 0.499997854232788 1 0 -1 1 -0.006529498 -0.007255373 -0.007454877 1000 1000 1000 -0.006529498 -0.007255373 -0.007454877 1000 1000 1000 -0.005261583 -0.005422274 -0.005679903 -0.005735388 -0.005741647 1000 -0.005261583 -0.005422274 -0.005679903 -0.005735388 -0.005741647 1000
lala 13 0.3 1 first 15 1 289 5 4.849999 0.979997396469116 0 1 1 0 -0.006485748 -0.006178926 -0.005961963 1000 1000 1000 -0.006485748 -0.006178926 -0.005961963 1000 1000 1000 -0.005625242 -0.005640703 -0.00518475 -0.005509691 -0.005664378 1000 -0.005625242 -0.005640703 -0.00518475 -0.005509691 -0.005664378 1000
lala 23 0.01875 0 first 8 1 290 5 4.837501 0.759997606277466 1 0 -1 0 -0.006695778 -0.006321481 -0.005955649 1000 1000 1000 -0.006695778 -0.006321481 -0.005955649 1000 1000 1000 -0.006318142 -0.006239615 -0.006208323 -0.005823935 -0.006287488 1000 -0.006318142 -0.006239615 -0.006208323 -0.005823935 -0.006287488 1000
lala 14 0.15 0 second 3 1 291 5 5.9 0.079998254776001 -1 1 -1 1 -0.00617889 -0.006070088 -0.00580497 -0.005697143 -0.005848852 1000 -0.00617889 -0.006070088 -0.00580497 -0.005697143 -0.005848852 1000 -0.005768103 -0.005754665 -0.005594816 -0.005365707 -0.005458187 1000 -0.005768103 -0.005754665 -0.005594816 -0.005365707 -0.005458187 1000
lala 24 0.01875 1 first 8 1 292 5 4.856251 0.519997835159302 1 0 1 1 -0.006846904 -0.006797811 -0.006445002 1000 1000 1000 -0.006846904 -0.006797811 -0.006445002 1000 1000 1000 -0.005092718 -0.005380489 -0.005565517 -0.005283424 -0.005008094 1000 -0.005092718 -0.005380489 -0.005565517 -0.005283424 -0.005008094 1000
lala 21 0.009375 0 first 17 1 293 6 5.355 0.819997549057007 0 1 -1 0 -0.005448794 -0.005866237 -0.006197288 1000 1000 1000 -0.005448794 -0.005866237 -0.006197288 1000 1000 1000 -0.003747382 -0.003581485 -0.003431939 -0.003294771 -0.003114369 1000 -0.003747382 -0.003581485 -0.003431939 -0.003294771 -0.003114369 1000
lala 22 0.15 1 second 0 1 294 4 5.9025 0.799997568130493 -1 0 1 1 -0.003169812 -0.003051877 -0.002468534 -0.002333504 -0.002223492 1000 -0.003169812 -0.003051877 -0.002468534 -0.002333504 -0.002223492 1000 -0.002001784 -0.002504766 -0.002075155 -0.001834195 -0.001551796 1000 -0.002001784 -0.002504766 -0.002075155 -0.001834195 -0.001551796 1000
lala 17 0.009375 0 first 10 1 295 6 4.288125 1.7199969291687 1 0 -1 0 -0.002962091 -0.003064822 -0.002801679 1000 1000 1000 -0.002962091 -0.003064822 -0.002801679 1000 1000 1000 -0.001451213 -0.001679595 -0.001636612 -0.001990788 -0.001770852 1000 -0.001451213 -0.001679595 -0.001636612 -0.001990788 -0.001770852 1000
lala 20 0.01875 0 second 1 1 296 4 6.463749 0.439997911453247 -1 1 -1 0 -0.005416039 -0.00568814 -0.005837326 -0.00567885 -0.005560319 1000 -0.005416039 -0.00568814 -0.005837326 -0.00567885 -0.005560319 1000 -0.004155485 -0.004262003 -0.003603935 -0.003884271 -0.003917505 1000 -0.004155485 -0.004262003 -0.003603935 -0.003884271 -0.003917505 1000
lala 21 0.01875 1 second 14 1 297 5 4.33125 0.379997968673706 0 0 1 1 -0.004998026 -0.004740596 -0.004443197 -0.004196003 -0.004052349 1000 -0.004998026 -0.004740596 -0.004443197 -0.004196003 -0.004052349 1000 -0.003145353 -0.003461549 -0.003281762 -0.002792929 -0.002572109 1000 -0.003145353 -0.003461549 -0.003281762 -0.002792929 -0.002572109 1000
lala 17 0.0375 0 first 16 1 298 6 5.497499 1.95999670028687 0 0 -1 0 -0.003938098 -0.003737469 -0.003986091 1000 1000 1000 -0.003938098 -0.003737469 -0.003986091 1000 1000 1000 -0.004206591 -0.004042862 -0.003810313 -0.003307369 -0.003008166 1000 -0.004206591 -0.004042862 -0.003810313 -0.003307369 -0.003008166 1000
lala 15 0.15 0 second 3 1 299 5 6.05 0.319998025894165 -1 1 -1 0 -0.00468862 -0.004578548 -0.003916754 -0.003416173 -0.002728271 1000 -0.00468862 -0.004578548 -0.003916754 -0.003416173 -0.002728271 1000 -0.00195364 -0.002208334 -0.002434779 -0.002318049 -0.001885533 1000 -0.00195364 -0.002208334 -0.002434779 -0.002318049 -0.001885533 1000
lala 16 0.15 0 second 3 1 300 5 6.2 0.519997835159302 -1 1 -1 0 -0.02517491 -0.02318789 -0.02326849 -0.02500683 -0.02585466 1000 -0.02517491 -0.02318789 -0.02326849 -0.02500683 -0.02585466 1000 -0.02754947 -0.02623868 -0.02551793 -0.02591339 -0.02704103 1000 -0.02754947 -0.02623868 -0.02551793 -0.02591339 -0.02704103 1000
lala 10 1.2 1 second 4 1 301 6 7.559999 1.03999733924866 -1 0 1 0 -0.01365632 -0.013482 -0.01379406 -0.01265663 -0.01180821 1000 -0.01365632 -0.013482 -0.01379406 -0.01265663 -0.01180821 1000 -0.01368391 -0.01358546 -0.01372061 -0.01424539 -0.01474711 1000 -0.01368391 -0.01358546 -0.01372061 -0.01424539 -0.01474711 1000
lala 22 0.009375 0 first 17 1 302 6 5.364375 0.319998025894165 0 1 -1 0 -0.01754394 -0.017208 -0.01592052 1000 1000 1000 -0.01754394 -0.017208 -0.01592052 1000 1000 1000 -0.01505101 -0.01492185 -0.01478351 -0.01524962 -0.01602971 1000 -0.01505101 -0.01492185 -0.01478351 -0.01524962 -0.01602971 1000
lala 23 0.01875 1 first 17 1 303 6 5.383125 0.779997587203979 0 1 1 1 -0.0193045 -0.01998057 -0.01965639 1000 1000 1000 -0.0193045 -0.01998057 -0.01965639 1000 1000 1000 -0.01428186 -0.01422834 -0.01413077 -0.01431752 -0.01445698 1000 -0.01428186 -0.01422834 -0.01413077 -0.01431752 -0.01445698 1000
lala 17 0.075 0 second 12 1 304 4 3.39 0.479997873306274 0 0 -1 0 -0.01870414 -0.01721198 -0.01557793 -0.01423247 -0.013057 1000 -0.01870414 -0.01721198 -0.01557793 -0.01423247 -0.013057 1000 -0.01473088 -0.01532467 -0.01560302 -0.01537409 -0.01498485 1000 -0.01473088 -0.01532467 -0.01560302 -0.01537409 -0.01498485 1000
lala 12 0.3 0 first 7 1 305 4 4.42 0.439997911453247 1 1 -1 0 -0.01556504 -0.01593297 -0.01600604 1000 1000 1000 -0.01556504 -0.01593297 -0.01600604 1000 1000 1000 -0.01319346 -0.01338657 -0.01338773 -0.0132231 -0.01307011 1000 -0.01319346 -0.01338657 -0.01338773 -0.0132231 -0.01307011 1000
lala 14 0.3 1 first 15 1 306 5 4.549999 1.43999695777893 0 1 1 1 -0.01544426 -0.01604861 -0.01572594 1000 1000 1000 -0.01544426 -0.01604861 -0.01572594 1000 1000 1000 -0.01384741 -0.01364654 -0.01279404 -0.01208871 -0.01136091 1000 -0.01384741 -0.01364654 -0.01279404 -0.01208871 -0.01136091 1000
lala 17 0.01875 0 first 2 1 307 5 7.40625 0.459997892379761 -1 0 -1 1 -0.01522429 -0.0148938 -0.01455269 1000 1000 1000 -0.01522429 -0.0148938 -0.01455269 1000 1000 1000 -0.01329028 -0.01340806 -0.01292731 -0.01184456 -0.01134713 1000 -0.01329028 -0.01340806 -0.01292731 -0.01184456 -0.01134713 1000
lala 21 0.009375 0 first 1 1 308 4 6.473124 1.05999732017517 -1 1 -1 1 -0.01995699 -0.02142285 -0.02170976 1000 1000 1000 -0.01995699 -0.02142285 -0.02170976 1000 1000 1000 -0.01291069 -0.01271523 -0.01246068 -0.01288646 -0.01283122 1000 -0.01291069 -0.01271523 -0.01246068 -0.01288646 -0.01283122 1000
lala 14 0.075 0 second 13 1 309 4 3.445 2.01999664306641 0 1 -1 0 -0.015488 -0.01532396 -0.01429901 -0.01366099 -0.01338458 1000 -0.015488 -0.01532396 -0.01429901 -0.01366099 -0.01338458 1000 -0.01478573 -0.01434701 -0.01386093 -0.01404878 -0.01398471 1000 -0.01478573 -0.01434701 -0.01386093 -0.01404878 -0.01398471 1000
lala 15 1.2 1 second 9 1 310 5 6.65 0.439997911453247 1 1 1 1 -0.01126611 -0.0115877 -0.01156331 -0.01165012 -0.01187645 1000 -0.01126611 -0.0115877 -0.01156331 -0.01165012 -0.01187645 1000 -0.0122718 -0.01309521 -0.01312344 -0.01367781 -0.01389896 1000 -0.0122718 -0.01309521 -0.01312344 -0.01367781 -0.01389896 1000
lala 18 0.01875 1 first 16 1 311 6 5.51625 0.579997777938843 0 0 1 1 -0.01310082 -0.01302264 -0.01281887 1000 1000 1000 -0.01310082 -0.01302264 -0.01281887 1000 1000 1000 -0.01578269 -0.016172 -0.01616582 -0.01607542 -0.01581097 1000 -0.01578269 -0.016172 -0.01616582 -0.01607542 -0.01581097 1000
lala 21 0.075 0 first 6 1 312 4 3.315 0.61999773979187 1 0 -1 1 -0.01627416 -0.01580151 -0.01561865 1000 1000 1000 -0.01627416 -0.01580151 -0.01561865 1000 1000 1000 -0.01619936 -0.01585688 -0.01550535 -0.01514976 -0.01609794 1000 -0.01619936 -0.01585688 -0.01550535 -0.01514976 -0.01609794 1000
lala 11 2.4 0 second 4 1 313 6 5.159999 3.37999534606934 -1 0 -1 0 -0.01405215 -0.01375987 -0.01398923 -0.0144096 -0.01497587 1000 -0.01405215 -0.01375987 -0.01398923 -0.0144096 -0.01497587 1000 -0.01447158 -0.01478351 -0.0148807 -0.01471115 -0.01458285 1000 -0.01447158 -0.01478351 -0.0148807 -0.01471115 -0.01458285 1000
lala 22 0.009375 0 first 1 1 314 4 6.482499 0.479997873306274 -1 1 -1 1 -0.01187948 -0.01153493 -0.01165249 1000 1000 1000 -0.01187948 -0.01153493 -0.01165249 1000 1000 1000 -0.01271926 -0.01280932 -0.01264924 -0.01265466 -0.01258029 1000 -0.01271926 -0.01280932 -0.01264924 -0.01265466 -0.01258029 1000
lala 25 0.009375 1 first 8 1 315 5 4.846876 0.61999773979187 1 0 1 1 -0.01627462 -0.01571607 -0.01501051 1000 1000 1000 -0.01627462 -0.01571607 -0.01501051 1000 1000 1000 -0.00764855 -0.007607208 -0.007982425 -0.007647466 -0.00721218 1000 -0.00764855 -0.007607208 -0.007982425 -0.007647466 -0.00721218 1000
lala 22 0.075 1 second 6 1 316 4 3.39 1.27999711036682 1 0 1 1 -0.009141834 -0.00928006 -0.008954093 -0.009156283 -0.009105831 1000 -0.009141834 -0.00928006 -0.008954093 -0.009156283 -0.009105831 1000 -0.008176608 -0.007898677 -0.007687504 -0.007895202 -0.007786037 1000 -0.008176608 -0.007898677 -0.007687504 -0.007895202 -0.007786037 1000
lala 12 1.2 0 first 4 1 317 6 6.36 0.339998006820679 -1 0 -1 0 -0.009761743 -0.009181313 -0.008794496 1000 1000 1000 -0.009761743 -0.009181313 -0.008794496 1000 1000 1000 -0.007951756 -0.007767867 -0.007722203 -0.007338349 -0.007553005 1000 -0.007951756 -0.007767867 -0.007722203 -0.007338349 -0.007553005 1000
lala 13 1.2 0 second 4 1 318 6 7.559999 1.33999705314636 -1 0 -1 1 -0.008293905 -0.007546162 -0.00739228 -0.007412207 -0.007508286 1000 -0.008293905 -0.007546162 -0.00739228 -0.007412207 -0.007508286 1000 -0.006184012 -0.007050121 -0.007385213 -0.007439281 -0.007737607 1000 -0.006184012 -0.007050121 -0.007385213 -0.007439281 -0.007737607 1000
lala 18 0.009375 0 first 10 1 319 6 4.2975 0.519997835159302 1 0 -1 0 -0.007703622 -0.007306273 -0.006825876 1000 1000 1000 -0.007703622 -0.007306273 -0.006825876 1000 1000 1000 -0.006657747 -0.006491985 -0.006443916 -0.005775961 -0.006184094 1000 -0.006657747 -0.006491985 -0.006443916 -0.005775961 -0.006184094 1000
