subject PestNr Step_Size_OnTrial Pest_Faster Pest_Interval Condition block trial velH velH_Pest Reaction_Time velH_Subject Start_Above Response_MotionEstimation RightOrLeftxRotations_first0 xRotations_first1 xRotations_first2 xRotations_first3 xRotations_first4 xRotations_first5 yRotations_first0 yRotations_first1 yRotations_first2 yRotations_first3 yRotations_first4 yRotations_first5 xRotations_second0 xRotations_second1 xRotations_second2 xRotations_second3 xRotations_second4 xRotations_second5 yRotations_second0 yRotations_second1 yRotations_second2 yRotations_second3 yRotations_second4 yRotations_second5
lala 1 1.2 1 first 11 1 1 6 7.98 0.839997529983521 1 1 1 1 -0.02109436 -0.01140388 -0.002498323 -0.0005448616 -0.002978361 -0.006021429 -0.02109436 -0.01140388 -0.002498323 -0.0005448616 -0.002978361 -0.006021429 -0.0109197 -0.01045695 -0.01008251 -0.01001167 -0.009948579 1000 -0.0109197 -0.01045695 -0.01008251 -0.01001167 -0.009948579 1000
lala 1 1.2 1 first 10 1 2 6 3.96 0.419997930526733 1 0 1 0 -0.008520874 -0.008729184 -0.008720326 1000 1000 1000 -0.008520874 -0.008729184 -0.008720326 1000 1000 1000 -0.008904515 -0.009026916 -0.009832823 -0.009468525 -0.008943074 1000 -0.008904515 -0.009026916 -0.009832823 -0.009468525 -0.008943074 1000
lala 2 1.2 0 second 10 1 3 6 2.76 0.379997968673706 1 0 -1 0 -0.007573298 -0.007519144 -0.007757292 -0.00767769 -0.008014093 1000 -0.007573298 -0.007519144 -0.007757292 -0.00767769 -0.008014093 1000 -0.007920801 -0.007788522 -0.007715297 -0.007117531 -0.007091835 1000 -0.007920801 -0.007788522 -0.007715297 -0.007117531 -0.007091835 1000
lala 1 1.2 0 first 14 1 4 5 3.3 0.719997644424438 0 0 -1 1 -0.006949644 -0.007180007 -0.007791767 1000 1000 1000 -0.006949644 -0.007180007 -0.007791767 1000 1000 1000 -0.007565348 -0.007683758 -0.007161021 -0.006856762 -0.007009855 1000 -0.007565348 -0.007683758 -0.007161021 -0.006856762 -0.007009855 1000
lala 1 1.2 1 second 3 1 5 5 6.65 0.379997968673706 -1 1 1 0 -0.01321682 -0.01358437 -0.01371888 -0.01374682 -0.01407672 1000 -0.01321682 -0.01358437 -0.01371888 -0.01374682 -0.01407672 1000 -0.03078726 -0.03656944 -0.03711917 -0.03677829 -0.03554076 1000 -0.03078726 -0.03656944 -0.03711917 -0.03677829 -0.03554076 1000
lala 1 1.2 0 second 13 1 6 4 5.32 0.99999737739563 0 1 -1 1 0.01168098 0.01463033 0.009892014 0.00743995 0.007307777 1000 0.01168098 0.01463033 0.009892014 0.00743995 0.007307777 1000 0.00533144 0.004252826 0.003085388 0.002340621 0.00151832 1000 0.00533144 0.004252826 0.003085388 0.002340621 0.00151832 1000
lala 1 1.2 1 second 5 1 7 6 7.98 0.339998006820679 -1 1 1 0 0.0008606463 0.001151411 0.001425756 0.001321412 0.001133232 1000 0.0008606463 0.001151411 0.001425756 0.001321412 0.001133232 1000 0.0002438182 0.0001521112 0.0003857582 0.0004125387 0.0003063409 1000 0.0002438182 0.0001521112 0.0003857582 0.0004125387 0.0003063409 1000
lala 3 1.2 1 second 10 1 8 6 3.96 1.41999697685242 1 0 1 0 -9.939425E-05 0.0001717148 0.0001312991 -2.485838E-05 -0.0001844958 1000 -9.939425E-05 0.0001717148 0.0001312991 -2.485838E-05 -0.0001844958 1000 0.0002774673 0.0004605219 0.0007124022 0.0007037015 0.0009710717 1000 0.0002774673 0.0004605219 0.0007124022 0.0007037015 0.0009710717 1000
lala 1 1.2 1 second 9 1 9 5 6.65 1.05999732017517 1 1 1 0 0.001140754 0.0009872986 0.0008154529 0.001052932 0.001131231 1000 0.001140754 0.0009872986 0.0008154529 0.001052932 0.001131231 1000 0.001553121 0.001821069 0.002670373 0.004283516 0.006531876 1000 0.001553121 0.001821069 0.002670373 0.004283516 0.006531876 1000
lala 1 1.2 1 first 15 1 10 5 6.65 0.01999831199646 0 1 1 0 0.00613729 0.005826179 0.006722342 1000 1000 1000 0.00613729 0.005826179 0.006722342 1000 1000 1000 0.00390807 0.003781245 0.003545534 0.003463023 0.003168227 1000 0.00390807 0.003781245 0.003545534 0.003463023 0.003168227 1000
lala 1 1.2 0 second 1 1 11 4 5.32 0.319998025894165 -1 1 -1 1 0.004592829 0.003943572 0.004276133 0.004566218 0.00435472 1000 0.004592829 0.003943572 0.004276133 0.004566218 0.00435472 1000 0.003838424 0.004442932 0.00469094 0.004694267 0.004337479 1000 0.003838424 0.004442932 0.00469094 0.004694267 0.004337479 1000
lala 2 1.2 0 second 3 1 12 5 5.45 0.279998064041138 -1 1 -1 1 0.00380469 0.003766979 0.003398545 0.003468099 0.003584721 1000 0.00380469 0.003766979 0.003398545 0.003468099 0.003584721 1000 0.002674282 0.002405019 0.002864724 0.003265682 0.00327154 1000 0.002674282 0.002405019 0.002864724 0.003265682 0.00327154 1000
lala 1 1.2 0 first 12 1 13 4 2.64 1.01999735832214 0 0 -1 0 0.001051716 0.0007358537 -0.003573145 1000 1000 1000 0.001051716 0.0007358537 -0.003573145 1000 1000 1000 -0.007640409 -0.007398602 -0.007001111 -0.006990177 -0.007175727 1000 -0.007640409 -0.007398602 -0.007001111 -0.006990177 -0.007175727 1000
lala 1 1.2 1 second 7 1 14 4 5.32 0.279998064041138 1 1 1 1 -0.00626621 -0.006202837 -0.005899622 -0.005631084 -0.005386013 1000 -0.00626621 -0.006202837 -0.005899622 -0.005631084 -0.005386013 1000 -0.004526416 -0.004720137 -0.004733854 -0.00466289 -0.004482903 1000 -0.004526416 -0.004720137 -0.004733854 -0.00466289 -0.004482903 1000
lala 3 1.2 1 first 3 1 15 5 6.65 3.25999546051025 -1 1 1 1 -0.004352548 -0.004207359 -0.003857603 1000 1000 1000 -0.004352548 -0.004207359 -0.003857603 1000 1000 1000 -0.003070532 -0.003276879 -0.002640302 -0.002485807 -0.003429914 1000 -0.003070532 -0.003276879 -0.002640302 -0.002485807 -0.003429914 1000
lala 1 1.2 0 first 4 1 16 6 3.96 0.379997968673706 -1 0 -1 1 -0.001561307 -0.001213876 -0.0009269111 1000 1000 1000 -0.001561307 -0.001213876 -0.0009269111 1000 1000 1000 -0.000901497 -0.0008917969 -0.0006984076 -0.0004805906 -0.0004683993 1000 -0.000901497 -0.0008917969 -0.0006984076 -0.0004805906 -0.0004683993 1000
lala 2 1.2 1 second 1 1 17 4 6.52 0.219998121261597 -1 1 1 0 -4.678573E-05 2.84891E-05 0.0002127851 -0.0002979638 -0.0009606996 1000 -4.678573E-05 2.84891E-05 0.0002127851 -0.0002979638 -0.0009606996 1000 -0.0005498503 -0.0005649157 -0.0003658322 -0.0005791431 -0.0002884965 1000 -0.0005498503 -0.0005649157 -0.0003658322 -0.0005791431 -0.0002884965 1000
lala 4 1.2 1 second 3 1 18 5 5.45 0.699997663497925 -1 1 1 0 -0.0003030507 -6.93469E-05 -4.252994E-05 -0.000169716 -0.0002649225 1000 -0.0003030507 -6.93469E-05 -4.252994E-05 -0.000169716 -0.0002649225 1000 5.726086E-05 0.0002937078 0.0003545032 -3.757411E-05 -0.0004261847 1000 5.726086E-05 0.0002937078 0.0003545032 -3.757411E-05 -0.0004261847 1000
lala 2 1.2 1 first 12 1 19 4 3.84 0.279998064041138 0 0 1 0 -0.000288799 -0.0002006449 -5.830633E-05 1000 1000 1000 -0.000288799 -0.0002006449 -5.830633E-05 1000 1000 1000 0.0004701981 0.0004940426 0.0008271332 0.0007832163 0.0005225331 1000 0.0004701981 0.0004940426 0.0008271332 0.0007832163 0.0005225331 1000
lala 2 1.2 1 first 11 1 20 6 6.780001 0.359997987747192 1 1 1 1 4.10584E-05 -0.0002615046 -0.0003476501 1000 1000 1000 4.10584E-05 -0.0002615046 -0.0003476501 1000 1000 1000 0.0005250596 0.0009157354 0.0007661998 0.0004086965 4.492086E-05 1000 0.0005250596 0.0009157354 0.0007661998 0.0004086965 4.492086E-05 1000
lala 1 1.2 0 second 6 1 21 4 2.64 0.259998083114624 1 0 -1 1 -0.003231012 -0.003399388 -0.003479635 -0.003275888 -0.002781025 1000 -0.003231012 -0.003399388 -0.003479635 -0.003275888 -0.002781025 1000 -0.002924247 -0.002740791 -0.002604495 -0.002503461 -0.002614017 1000 -0.002924247 -0.002740791 -0.002604495 -0.002503461 -0.002614017 1000
lala 3 1.2 1 second 1 1 22 4 5.320001 0.359997987747192 -1 1 1 1 -0.00255629 -0.002774962 -0.002851439 -0.002622044 -0.002480733 1000 -0.00255629 -0.002774962 -0.002851439 -0.002622044 -0.002480733 1000 -0.001715681 -0.0009947973 -0.001244135 -0.002349457 -0.002193236 1000 -0.001715681 -0.0009947973 -0.001244135 -0.002349457 -0.002193236 1000
lala 1 1.2 1 first 16 1 23 6 3.96 0.579997777938843 0 0 1 0 -0.002577764 -0.002219341 -0.001789872 1000 1000 1000 -0.002577764 -0.002219341 -0.001789872 1000 1000 1000 -0.002191517 -0.001725141 -0.001285475 -0.00131289 -0.001265267 1000 -0.002191517 -0.001725141 -0.001285475 -0.00131289 -0.001265267 1000
lala 3 1.2 0 first 12 1 24 4 2.64 0.479997873306274 0 0 -1 1 -0.002155103 -0.002246464 -0.002935591 1000 1000 1000 -0.002155103 -0.002246464 -0.002935591 1000 1000 1000 -0.004493331 -0.003710045 -0.003293138 -0.003363161 -0.003560171 1000 -0.004493331 -0.003710045 -0.003293138 -0.003363161 -0.003560171 1000
lala 5 1.2 0 first 3 1 25 5 4.25 2.21999645233154 -1 1 -1 0 -0.003194378 -0.00324121 -0.003208926 1000 1000 1000 -0.003194378 -0.00324121 -0.003208926 1000 1000 1000 -0.00346795 -0.003521615 -0.003821066 -0.003467424 -0.0030307 1000 -0.00346795 -0.003521615 -0.003821066 -0.003467424 -0.0030307 1000
lala 2 1.2 0 second 4 1 26 6 5.16 1.29999709129334 -1 0 -1 0 -0.003051853 -0.003518152 -0.004282881 -0.004718734 -0.005014433 1000 -0.003051853 -0.003518152 -0.004282881 -0.004718734 -0.005014433 1000 -0.0272782 -0.02394779 -0.01991599 -0.02061758 -0.02454234 1000 -0.0272782 -0.02394779 -0.01991599 -0.02061758 -0.02454234 1000
lala 2 1.2 1 first 9 1 27 5 5.45 0.199998140335083 1 1 1 1 -0.01800114 -0.01608712 -0.01572296 1000 1000 1000 -0.01800114 -0.01608712 -0.01572296 1000 1000 1000 -0.0129542 -0.01324618 -0.01305339 -0.01356057 -0.01401601 1000 -0.0129542 -0.01324618 -0.01305339 -0.01356057 -0.01401601 1000
lala 3 1.2 1 second 9 1 28 5 4.25 0.979997396469116 1 1 1 1 -0.01341155 -0.01313841 -0.01296679 -0.01304928 -0.01262125 1000 -0.01341155 -0.01313841 -0.01296679 -0.01304928 -0.01262125 1000 -0.01154923 -0.01246525 -0.01261168 -0.0125024 -0.01258003 1000 -0.01154923 -0.01246525 -0.01261168 -0.0125024 -0.01258003 1000
lala 4 1.2 0 second 12 1 29 4 3.84 0.719997644424438 0 0 -1 0 -0.01113174 -0.01088256 -0.01119576 -0.01117302 -0.01090489 1000 -0.01113174 -0.01088256 -0.01119576 -0.01117302 -0.01090489 1000 -0.009406283 -0.008957447 -0.009358242 -0.009306169 -0.008922339 1000 -0.009406283 -0.008957447 -0.009358242 -0.009306169 -0.008922339 1000
lala 3 1.2 1 second 4 1 30 6 6.36 0.719997644424438 -1 0 1 1 -0.009328383 -0.00928608 -0.009416701 -0.009838667 -0.009279867 1000 -0.009328383 -0.00928608 -0.009416701 -0.009838667 -0.009279867 1000 -0.009748898 -0.00963074 -0.00961189 -0.009319272 -0.009292555 1000 -0.009748898 -0.00963074 -0.00961189 -0.009319272 -0.009292555 1000
lala 2 1.2 0 first 5 1 31 6 6.780001 0.299998044967651 -1 1 -1 1 -0.00819459 -0.008727661 -0.008921535 1000 1000 1000 -0.00819459 -0.008727661 -0.008921535 1000 1000 1000 -0.008357015 -0.008447052 -0.008749796 -0.008209508 -0.007683473 1000 -0.008357015 -0.008447052 -0.008749796 -0.008209508 -0.007683473 1000
lala 4 1.2 0 first 1 1 32 4 4.120001 1.65999698638916 -1 1 -1 0 -0.008269447 -0.008087618 -0.007748416 1000 1000 1000 -0.008269447 -0.008087618 -0.007748416 1000 1000 1000 -0.007274758 -0.007563881 -0.007656802 -0.007595087 -0.007315962 1000 -0.007274758 -0.007563881 -0.007656802 -0.007595087 -0.007315962 1000
lala 5 1.2 1 first 1 1 33 4 5.320001 0.419997930526733 -1 1 1 1 -0.006937586 -0.006746043 -0.006663507 1000 1000 1000 -0.006937586 -0.006746043 -0.006663507 1000 1000 1000 -0.00498589 -0.004881505 -0.005315684 -0.005840258 -0.006184008 1000 -0.00498589 -0.004881505 -0.005315684 -0.005840258 -0.006184008 1000
lala 2 1.2 0 second 14 1 34 5 4.5 0.319998025894165 0 0 -1 0 -0.004099334 -0.004684391 -0.004008058 -0.004087449 -0.005315518 1000 -0.004099334 -0.004684391 -0.004008058 -0.004087449 -0.005315518 1000 -0.007112017 -0.007274498 -0.00715314 -0.007021427 -0.006908142 1000 -0.007112017 -0.007274498 -0.00715314 -0.007021427 -0.006908142 1000
lala 4 1.2 0 second 9 1 35 5 3.05 0.559997797012329 1 1 -1 1 -0.008899401 -0.008923331 -0.008497483 -0.00832017 -0.008549617 1000 -0.008899401 -0.008923331 -0.008497483 -0.00832017 -0.008549617 1000 -0.008887806 -0.00915057 -0.009338221 -0.008630724 -0.008127701 1000 -0.008887806 -0.00915057 -0.009338221 -0.008630724 -0.008127701 1000
lala 3 1.2 1 second 11 1 36 6 5.580001 0.0399982929229736 1 1 1 1 -0.00861041 -0.008305735 -0.008423374 -0.008719187 -0.008896032 1000 -0.00861041 -0.008305735 -0.008423374 -0.008719187 -0.008896032 1000 -0.008612183 -0.008402514 -0.008251096 -0.00836998 -0.00855622 1000 -0.008612183 -0.008402514 -0.008251096 -0.00836998 -0.00855622 1000
lala 4 1.2 0 first 11 1 37 6 4.380001 0.39999794960022 1 1 -1 0 -0.008259483 -0.008467196 -0.008609205 1000 1000 1000 -0.008259483 -0.008467196 -0.008609205 1000 1000 1000 -0.009426688 -0.009220307 -0.009176073 -0.009275748 -0.009438146 1000 -0.009426688 -0.009220307 -0.009176073 -0.009275748 -0.009438146 1000
lala 2 1.2 1 first 7 1 38 4 4.12 0.39999794960022 1 1 1 0 -0.009100768 -0.008811045 -0.009117623 1000 1000 1000 -0.009100768 -0.008811045 -0.009117623 1000 1000 1000 -0.01119327 -0.01076954 -0.01031183 -0.01058848 -0.01070391 1000 -0.01119327 -0.01076954 -0.01031183 -0.01058848 -0.01070391 1000
lala 5 1.2 1 second 9 1 39 5 4.25 0.379997968673706 1 1 1 0 -0.01037664 -0.01043087 -0.0106618 -0.01061235 -0.01050371 1000 -0.01037664 -0.01043087 -0.0106618 -0.01061235 -0.01050371 1000 -0.01015417 -0.0103331 -0.0104962 -0.01044557 -0.01034563 1000 -0.01015417 -0.0103331 -0.0104962 -0.01044557 -0.01034563 1000
lala 6 1.2 0 first 3 1 40 5 5.45 0.639997720718384 -1 1 -1 0 -0.01020866 -0.01020124 -0.01003535 1000 1000 1000 -0.01020866 -0.01020124 -0.01003535 1000 1000 1000 -0.009488482 -0.009614812 -0.009787539 -0.009958539 -0.01013009 1000 -0.009488482 -0.009614812 -0.009787539 -0.009958539 -0.01013009 1000
lala 1 1.2 0 second 8 1 41 5 3.3 0.439997911453247 1 0 -1 1 -0.009205368 -0.009460584 -0.009997426 -0.009247912 -0.008890678 1000 -0.009205368 -0.009460584 -0.009997426 -0.009247912 -0.008890678 1000 -0.009729201 -0.009031141 -0.009209225 -0.009461771 -0.009483974 1000 -0.009729201 -0.009031141 -0.009209225 -0.009461771 -0.009483974 1000
lala 2 1.2 1 first 13 1 42 4 6.52 0.119998216629028 0 1 1 0 -0.009877746 -0.009441624 -0.009241461 1000 1000 1000 -0.009877746 -0.009441624 -0.009241461 1000 1000 1000 -0.009461562 -0.009683249 -0.009564281 -0.009169717 -0.009373441 1000 -0.009461562 -0.009683249 -0.009564281 -0.009169717 -0.009373441 1000
lala 5 1.2 1 second 11 1 43 6 5.580001 0.319998025894165 1 1 1 0 -0.009040029 -0.00835786 -0.008298636 -0.009122339 -0.009161367 1000 -0.009040029 -0.00835786 -0.008298636 -0.009122339 -0.009161367 1000 -0.009460209 -0.009246879 -0.009332621 -0.009700527 -0.009431644 1000 -0.009460209 -0.009246879 -0.009332621 -0.009700527 -0.009431644 1000
lala 2 1.2 1 first 6 1 44 4 3.84 0.419997930526733 1 0 1 1 -0.009501955 -0.009970637 -0.009547595 1000 1000 1000 -0.009501955 -0.009970637 -0.009547595 1000 1000 1000 -0.007866669 -0.008370896 -0.008346081 -0.008346009 -0.008194936 1000 -0.007866669 -0.008370896 -0.008346081 -0.008346009 -0.008194936 1000
lala 3 1.2 1 first 5 1 45 6 7.98 0.339998006820679 -1 1 1 1 -0.008362716 -0.007795795 -0.007534989 1000 1000 1000 -0.008362716 -0.007795795 -0.007534989 1000 1000 1000 -0.007410788 -0.007143506 -0.006349251 -0.006185882 -0.006229202 1000 -0.007410788 -0.007143506 -0.006349251 -0.006185882 -0.006229202 1000
lala 2 1.2 0 first 16 1 46 6 2.76 0.359997987747192 0 0 -1 1 -0.007546382 -0.00739274 -0.007332381 1000 1000 1000 -0.007546382 -0.00739274 -0.007332381 1000 1000 1000 -0.007541379 -0.007588557 -0.007371699 -0.0071099 -0.0071416 1000 -0.007541379 -0.007588557 -0.007371699 -0.0071099 -0.0071416 1000
lala 2 1.2 1 second 15 1 47 5 5.45 0.359997987747192 0 1 1 1 -0.006374871 -0.006584074 -0.006313698 -0.005910526 -0.006533997 1000 -0.006374871 -0.006584074 -0.006313698 -0.005910526 -0.006533997 1000 -0.006622917 -0.006709718 -0.006801639 -0.006851284 -0.006985666 1000 -0.006622917 -0.006709718 -0.006801639 -0.006851284 -0.006985666 1000
lala 4 1.2 0 first 4 1 48 6 5.16 0.859997510910034 -1 0 -1 1 -0.006850321 -0.006665087 -0.006829298 1000 1000 1000 -0.006850321 -0.006665087 -0.006829298 1000 1000 1000 -0.006299297 -0.006396676 -0.006563765 -0.006609936 -0.006448982 1000 -0.006299297 -0.006396676 -0.006563765 -0.006609936 -0.006448982 1000
lala 6 1.2 1 first 1 1 49 4 4.120001 1.13999724388123 -1 1 1 1 -0.006647259 -0.006670659 -0.006676993 1000 1000 1000 -0.006647259 -0.006670659 -0.006676993 1000 1000 1000 -0.006048564 -0.005986428 -0.006177804 -0.006403405 -0.006497869 1000 -0.006048564 -0.005986428 -0.006177804 -0.006403405 -0.006497869 1000
lala 7 1.2 0 first 1 1 50 4 2.920001 0.919997453689575 -1 1 -1 1 -0.00978603 0.00423044 0.00567709 0.00385435 0.002243448 0.00405947 -0.00978603 0.00423044 0.00567709 0.00385435 0.002243448 0.00405947 -0.002661129 -0.003210794 -0.005735173 -0.004720064 -0.005645187 1000 -0.002661129 -0.003210794 -0.005735173 -0.004720064 -0.005645187 1000
lala 8 1.2 0 second 1 1 51 4 4.120001 0.519997835159302 -1 1 -1 1 -0.01653167 -0.01537912 -0.01454093 -0.0147373 -0.01484021 1000 -0.01653167 -0.01537912 -0.01454093 -0.0147373 -0.01484021 1000 -0.01310421 -0.01335149 -0.01319394 -0.01317823 -0.01322013 1000 -0.01310421 -0.01335149 -0.01319394 -0.01317823 -0.01322013 1000
lala 3 1.2 0 second 15 1 52 5 4.25 0.439997911453247 0 1 -1 1 -0.01296448 -0.01305253 -0.01351264 -0.0137377 -0.01364217 1000 -0.01296448 -0.01305253 -0.01351264 -0.0137377 -0.01364217 1000 -0.01360899 -0.01345986 -0.01316668 -0.01278835 -0.01289064 1000 -0.01360899 -0.01345986 -0.01316668 -0.01278835 -0.01289064 1000
lala 1 1.2 1 second 17 1 53 6 7.98 0.279998064041138 0 1 1 0 -0.01257744 -0.01265268 -0.01298628 -0.01297356 -0.01288925 1000 -0.01257744 -0.01265268 -0.01298628 -0.01297356 -0.01288925 1000 -0.01300574 -0.01265923 -0.01276956 -0.01305005 -0.01317177 1000 -0.01300574 -0.01265923 -0.01276956 -0.01305005 -0.01317177 1000
lala 5 1.2 1 second 4 1 54 6 6.36 0.279998064041138 -1 0 1 1 -0.0126782 -0.01254025 -0.01286382 -0.01302069 -0.01275721 1000 -0.0126782 -0.01254025 -0.01286382 -0.01302069 -0.01275721 1000 -0.01243352 -0.01263455 -0.01253045 -0.01294168 -0.01339775 1000 -0.01243352 -0.01263455 -0.01253045 -0.01294168 -0.01339775 1000
lala 4 1.2 0 first 5 1 55 6 6.780001 0.359997987747192 -1 1 -1 1 -0.01285334 -0.01269908 -0.01283229 1000 1000 1000 -0.01285334 -0.01269908 -0.01283229 1000 1000 1000 -0.01259996 -0.01220573 -0.01238879 -0.01272324 -0.01287185 1000 -0.01259996 -0.01220573 -0.01238879 -0.01272324 -0.01287185 1000
lala 4 1.2 1 second 15 1 56 5 5.45 0.39999794960022 0 1 1 0 -0.01292526 -0.01267013 -0.01287044 -0.01278821 -0.01306569 1000 -0.01292526 -0.01267013 -0.01287044 -0.01278821 -0.01306569 1000 -0.01305548 -0.01302264 -0.0134349 -0.01326092 -0.01292887 1000 -0.01305548 -0.01302264 -0.0134349 -0.01326092 -0.01292887 1000
lala 9 1.2 1 second 1 1 57 4 5.320001 0.379997968673706 -1 1 1 0 -0.01218059 -0.01206986 -0.01253534 -0.01278887 -0.01269715 1000 -0.01218059 -0.01206986 -0.01253534 -0.01278887 -0.01269715 1000 -0.01201419 -0.01201786 -0.01237991 -0.01254293 -0.01228565 1000 -0.01201419 -0.01201786 -0.01237991 -0.01254293 -0.01228565 1000
lala 2 1.2 1 first 8 1 58 5 4.5 0.259998083114624 1 0 1 1 -0.01287135 -0.0127555 -0.0126464 1000 1000 1000 -0.01287135 -0.0127555 -0.0126464 1000 1000 1000 -0.01248522 -0.01183829 -0.0119226 -0.01212017 -0.0124161 1000 -0.01248522 -0.01183829 -0.0119226 -0.01212017 -0.0124161 1000
lala 3 1.2 1 second 16 1 59 6 3.96 0.39999794960022 0 0 1 0 -0.01219489 -0.01152834 -0.01188199 -0.01217705 -0.0121649 1000 -0.01219489 -0.01152834 -0.01188199 -0.01217705 -0.0121649 1000 -0.01171792 -0.01244209 -0.01256982 -0.01235613 -0.01228758 1000 -0.01171792 -0.01244209 -0.01256982 -0.01235613 -0.01228758 1000
lala 3 1.2 0 second 7 1 60 4 2.92 0.459997892379761 1 1 -1 1 -0.01248816 -0.01262422 -0.0129046 -0.01301391 -0.01296693 1000 -0.01248816 -0.01262422 -0.0129046 -0.01301391 -0.01296693 1000 -0.01370357 -0.01346105 -0.01367748 -0.01403908 -0.0138815 1000 -0.01370357 -0.01346105 -0.01367748 -0.01403908 -0.0138815 1000
lala 4 1.2 0 second 10 1 61 6 2.76 0.159998178482056 1 0 -1 1 -0.0120058 -0.012244 -0.01256485 -0.01199941 -0.01178463 1000 -0.0120058 -0.012244 -0.01256485 -0.01199941 -0.01178463 1000 -0.01263718 -0.01287245 -0.01320971 -0.01361685 -0.01322484 1000 -0.01263718 -0.01287245 -0.01320971 -0.01361685 -0.01322484 1000
lala 6 1.2 0 second 9 1 62 5 3.05 0.359997987747192 1 1 -1 1 -0.01371072 -0.01352091 -0.01397704 -0.01457846 -0.01441745 1000 -0.01371072 -0.01352091 -0.01397704 -0.01457846 -0.01441745 1000 -0.01342464 -0.01288867 -0.01245764 -0.01259328 -0.01301325 1000 -0.01342464 -0.01288867 -0.01245764 -0.01259328 -0.01301325 1000
lala 10 0.6 0 first 1 1 63 4 4.720001 0.679997682571411 -1 1 -1 0 -0.0141538 -0.01360426 -0.01283303 1000 1000 1000 -0.0141538 -0.01360426 -0.01283303 1000 1000 1000 -0.01300216 -0.0128175 -0.0133926 -0.01406674 -0.01381284 1000 -0.01300216 -0.0128175 -0.0133926 -0.01406674 -0.01381284 1000
lala 5 1.2 0 second 10 1 64 6 3.96 0.23999810218811 1 0 -1 0 -0.01306301 -0.01294389 -0.01320635 -0.01326304 -0.01337831 1000 -0.01306301 -0.01294389 -0.01320635 -0.01326304 -0.01337831 1000 -0.01327168 -0.01340399 -0.01347205 -0.01390055 -0.01360222 1000 -0.01327168 -0.01340399 -0.01347205 -0.01390055 -0.01360222 1000
lala 5 1.2 1 first 5 1 65 6 7.98 0.01999831199646 -1 1 1 1 -0.01385413 -0.01359632 -0.01284107 1000 1000 1000 -0.01385413 -0.01359632 -0.01284107 1000 1000 1000 -0.01332833 -0.01375852 -0.01327735 -0.01284941 -0.01297073 1000 -0.01332833 -0.01375852 -0.01327735 -0.01284941 -0.01297073 1000
lala 11 0.3 1 second 1 1 66 4 5.020001 1.57999682426453 -1 1 1 0 -0.01308217 -0.01307024 -0.01338529 -0.01293596 -0.01301849 1000 -0.01308217 -0.01307024 -0.01338529 -0.01293596 -0.01301849 1000 -0.01145883 -0.02529344 -0.02919752 -0.02897374 -0.02755745 1000 -0.01145883 -0.02529344 -0.02919752 -0.02897374 -0.02755745 1000
lala 2 1.2 1 second 17 1 67 6 6.780001 0.319998025894165 0 1 1 1 -0.003000911 -0.002775753 -0.002617422 -0.002969352 -0.004397023 1000 -0.003000911 -0.002775753 -0.002617422 -0.002969352 -0.004397023 1000 -0.003523505 -0.003059809 -0.002769241 -0.002841691 -0.003213273 1000 -0.003523505 -0.003059809 -0.002769241 -0.002841691 -0.003213273 1000
lala 5 1.2 1 first 12 1 68 4 5.04 21.6003584861755 0 0 1 0 -0.005741298 -0.005320779 -0.005669647 1000 1000 1000 -0.005741298 -0.005320779 -0.005669647 1000 1000 1000 -0.011873 -0.01141398 -0.01228678 -0.01297084 -0.01183569 1000 -0.011873 -0.01141398 -0.01228678 -0.01297084 -0.01183569 1000
lala 1 1.2 1 first 0 1 69 4 2.64 0.859997510910034 -1 0 1 0 -0.0205362 -0.01576558 -0.0117137 1000 1000 1000 -0.0205362 -0.01576558 -0.0117137 1000 1000 1000 0.005375993 0.006192203 0.007334316 0.008205233 0.008476279 1000 0.005375993 0.006192203 0.007334316 0.008205233 0.008476279 1000
lala 3 1.2 1 first 6 1 70 4 2.64 0.01999831199646 1 0 1 1 0.006951701 0.00747548 0.007482823 1000 1000 1000 0.006951701 0.00747548 0.007482823 1000 1000 1000 0.006450015 0.006442025 0.006489095 0.006297107 0.006078275 1000 0.006450015 0.006442025 0.006489095 0.006297107 0.006078275 1000
lala 3 1.2 1 second 17 1 71 6 5.580001 1.25999712944031 0 1 1 1 0.004039611 0.003977134 0.003925302 0.004221865 0.00435342 1000 0.004039611 0.003977134 0.003925302 0.004221865 0.00435342 1000 0.004592579 0.00311256 0.002170204 0.001533656 0.0002766066 1000 0.004592579 0.00311256 0.002170204 0.001533656 0.0002766066 1000
lala 6 1.2 0 second 5 1 72 6 6.780001 0.39999794960022 -1 1 -1 1 -0.001749447 -0.001291645 -0.00113499 -0.001018578 -0.001032365 1000 -0.001749447 -0.001291645 -0.00113499 -0.001018578 -0.001032365 1000 -0.001775112 -0.005309298 -0.008147892 -0.008893119 -0.009417608 1000 -0.001775112 -0.005309298 -0.008147892 -0.008893119 -0.009417608 1000
lala 7 1.2 1 second 3 1 73 5 6.65 3.83999490737915 -1 1 1 1 0.02049761 0.02501555 0.02147702 0.007462191 -0.007779559 1000 0.02049761 0.02501555 0.02147702 0.007462191 -0.007779559 1000 -0.04796991 -0.04519235 -0.03968768 -0.02480854 -0.00363841 1000 -0.04796991 -0.04519235 -0.03968768 -0.02480854 -0.00363841 1000
lala 2 1.2 0 first 0 1 74 4 1.44 0.719997644424438 -1 0 -1 1 -0.01451667 -0.01375791 -0.01194555 1000 1000 1000 -0.01451667 -0.01375791 -0.01194555 1000 1000 1000 -0.01023044 -0.01365119 -0.01439938 -0.0132432 -0.01077857 1000 -0.01023044 -0.01365119 -0.01439938 -0.0132432 -0.01077857 1000
lala 1 1.2 0 first 2 1 75 5 3.3 0.259998083114624 -1 0 -1 0 -0.005957716 -0.005478057 -0.005119833 1000 1000 1000 -0.005957716 -0.005478057 -0.005119833 1000 1000 1000 -0.006453176 -0.007298885 -0.007429286 -0.007503541 -0.007580467 1000 -0.006453176 -0.007298885 -0.007429286 -0.007503541 -0.007580467 1000
lala 4 1.2 1 first 16 1 76 6 2.76 0.419997930526733 0 0 1 0 -0.0105643 -0.01102389 -0.0143367 1000 1000 1000 -0.0105643 -0.01102389 -0.0143367 1000 1000 1000 -0.01638171 -0.01714738 -0.01267173 -0.009302223 -0.007093125 1000 -0.01638171 -0.01714738 -0.01267173 -0.009302223 -0.007093125 1000
lala 5 1.2 0 second 16 1 77 6 1.98 0.23999810218811 0 0 -1 0 -0.007913597 -0.007744942 -0.007395184 -0.007416106 -0.007624879 1000 -0.007913597 -0.007744942 -0.007395184 -0.007416106 -0.007624879 1000 -0.007694208 -0.007379532 -0.007226258 -0.006757739 -0.006857286 1000 -0.007694208 -0.007379532 -0.007226258 -0.006757739 -0.006857286 1000
lala 3 1.2 0 first 8 1 78 5 3.3 0.699997663497925 1 0 -1 0 -0.006639641 -0.006850822 -0.006596386 1000 1000 1000 -0.006639641 -0.006850822 -0.006596386 1000 1000 1000 -0.007772406 -0.007824368 -0.008206851 -0.007745765 -0.007117221 1000 -0.007772406 -0.007824368 -0.008206851 -0.007745765 -0.007117221 1000
lala 5 1.2 1 second 15 1 79 5 4.25 0.23999810218811 0 1 1 0 -0.006879828 -0.006740848 -0.006395734 -0.006331927 -0.006316679 1000 -0.006879828 -0.006740848 -0.006395734 -0.006331927 -0.006316679 1000 -0.006603296 -0.006826794 -0.007188757 -0.007167661 -0.006564409 1000 -0.006603296 -0.006826794 -0.007188757 -0.007167661 -0.006564409 1000
lala 3 1.2 0 second 0 1 80 4 2.64 0.299998044967651 -1 0 -1 1 -0.004071449 -0.004471382 -0.004697185 -0.004531218 -0.003746382 1000 -0.004071449 -0.004471382 -0.004697185 -0.004531218 -0.003746382 1000 -0.003536518 -0.002771824 -0.00300122 -0.003401544 -0.001901215 1000 -0.003536518 -0.002771824 -0.00300122 -0.003401544 -0.001901215 1000
lala 2 1.2 0 second 2 1 81 5 4.5 0.299998044967651 -1 0 -1 1 -0.004065308 -0.004382999 -0.004838756 -0.005024042 -0.00492585 1000 -0.004065308 -0.004382999 -0.004838756 -0.005024042 -0.00492585 1000 -0.004852368 -0.005239682 -0.004583538 -0.004193923 -0.004486366 1000 -0.004852368 -0.005239682 -0.004583538 -0.004193923 -0.004486366 1000
lala 8 1.2 1 second 3 1 82 5 5.45 0.179998159408569 -1 1 1 0 -0.004778323 -0.004163641 -0.004003266 -0.004298407 -0.004390216 1000 -0.004778323 -0.004163641 -0.004003266 -0.004298407 -0.004390216 1000 -0.00556269 -0.005967434 -0.005248967 -0.00492126 -0.004958768 1000 -0.00556269 -0.005967434 -0.005248967 -0.00492126 -0.004958768 1000
lala 6 1.2 1 second 4 1 83 6 5.16 0.419997930526733 -1 0 1 0 -0.003903714 -0.003779098 -0.003955849 -0.004464648 -0.003717304 1000 -0.003903714 -0.003779098 -0.003955849 -0.004464648 -0.003717304 1000 -0.003177643 -0.003679315 -0.00358271 -0.002907214 -0.002959182 1000 -0.003177643 -0.003679315 -0.00358271 -0.002907214 -0.002959182 1000
lala 4 1.2 1 first 6 1 84 4 1.44 0.439997911453247 1 0 1 1 -0.004299345 -0.003036622 -0.00263786 1000 1000 1000 -0.004299345 -0.003036622 -0.00263786 1000 1000 1000 -0.002701579 -0.002806177 -0.002795015 -0.002723647 -0.002655785 1000 -0.002701579 -0.002806177 -0.002795015 -0.002723647 -0.002655785 1000
lala 5 1.2 0 first 6 1 85 4 1.32 0.279998064041138 1 0 -1 0 -0.001869134 -0.001875021 -0.001916221 1000 1000 1000 -0.001869134 -0.001875021 -0.001916221 1000 1000 1000 -0.002055966 -0.002263297 -0.001886037 -0.001720006 -0.001641458 1000 -0.002055966 -0.002263297 -0.001886037 -0.001720006 -0.001641458 1000
lala 6 1.2 1 first 12 1 86 4 3.84 0.639997720718384 0 0 1 0 -0.001492983 -0.001326726 -0.001958485 1000 1000 1000 -0.001492983 -0.001326726 -0.001958485 1000 1000 1000 -0.002349432 -0.002413705 -0.00178704 -0.001843795 -0.002662403 1000 -0.002349432 -0.002413705 -0.00178704 -0.001843795 -0.002662403 1000
lala 4 1.2 0 first 0 1 87 4 3.84 0.159998178482056 -1 0 -1 1 -0.004105991 -0.005023102 -0.007912729 1000 1000 1000 -0.004105991 -0.005023102 -0.007912729 1000 1000 1000 -0.006117143 -0.004760957 -0.006776608 -0.008124396 -0.008067703 1000 -0.006117143 -0.004760957 -0.006776608 -0.008124396 -0.008067703 1000
lala 6 1.2 0 first 6 1 88 4 2.52 0.279998064041138 1 0 -1 1 -0.007525243 -0.00696516 -0.00849646 1000 1000 1000 -0.007525243 -0.00696516 -0.00849646 1000 1000 1000 -0.006681855 -0.006964557 -0.00598516 -0.005479617 -0.007584043 1000 -0.006681855 -0.006964557 -0.00598516 -0.005479617 -0.007584043 1000
lala 3 1.2 1 second 14 1 89 5 5.7 0.139998197555542 0 0 1 1 -0.006302651 -0.006226565 -0.006257567 -0.00561782 -0.005275019 1000 -0.006302651 -0.006226565 -0.006257567 -0.00561782 -0.005275019 1000 -0.004848162 -0.005161996 -0.005149993 -0.005325246 -0.005513649 1000 -0.004848162 -0.005161996 -0.005149993 -0.005325246 -0.005513649 1000
lala 6 1.2 1 first 10 1 90 6 5.16 0.179998159408569 1 0 1 0 -0.005987948 -0.005847732 -0.005487137 1000 1000 1000 -0.005987948 -0.005847732 -0.005487137 1000 1000 1000 -0.005082751 -0.005293554 -0.005106702 -0.004700509 -0.004538096 1000 -0.005082751 -0.005293554 -0.005106702 -0.004700509 -0.004538096 1000
lala 5 1.2 0 first 0 1 91 4 5.04 0.459997892379761 -1 0 -1 1 -0.004765792 -0.003828207 -0.003688029 1000 1000 1000 -0.004765792 -0.003828207 -0.003688029 1000 1000 1000 -0.003946202 -0.003966617 -0.004032362 -0.003958054 -0.003723532 1000 -0.003946202 -0.003966617 -0.004032362 -0.003958054 -0.003723532 1000
lala 7 1.2 0 first 4 1 92 6 3.96 0.439997911453247 -1 0 -1 0 -0.002726045 -0.002479839 -0.002673275 1000 1000 1000 -0.002726045 -0.002479839 -0.002673275 1000 1000 1000 -0.002921533 -0.00284523 -0.003275371 -0.003523175 -0.003322391 1000 -0.002921533 -0.00284523 -0.003275371 -0.003523175 -0.003322391 1000
lala 6 1.2 0 second 15 1 93 5 3.05 0.259998083114624 0 1 -1 0 -0.003328944 -0.002704437 -0.002374945 -0.002558221 -0.002812179 1000 -0.003328944 -0.002704437 -0.002374945 -0.002558221 -0.002812179 1000 -0.003155608 -0.002755057 -0.002098841 -0.001791802 -0.00184688 1000 -0.003155608 -0.002755057 -0.002098841 -0.001791802 -0.00184688 1000
lala 4 1.2 1 second 14 1 94 5 4.5 0.23999810218811 0 0 1 0 -0.003786063 -0.003282298 -0.003194771 -0.003290039 -0.002436166 1000 -0.003786063 -0.003282298 -0.003194771 -0.003290039 -0.002436166 1000 -0.001911124 -0.001987369 -0.002354403 -0.002650632 -0.00268607 1000 -0.001911124 -0.001987369 -0.002354403 -0.002650632 -0.00268607 1000
lala 9 1.2 1 second 3 1 95 5 4.25 0.319998025894165 -1 1 1 0 -0.00197369 -0.001089218 -0.002100362 -0.002420523 -0.002174446 1000 -0.00197369 -0.001089218 -0.002100362 -0.002420523 -0.002174446 1000 -0.003135858 -0.003596835 -0.003378166 -0.003799964 -0.003941854 1000 -0.003135858 -0.003596835 -0.003378166 -0.003799964 -0.003941854 1000
lala 3 1.2 0 second 13 1 96 4 5.320001 0.319998025894165 0 1 -1 0 -0.003734633 -0.003912529 -0.003559382 -0.002994402 -0.002797154 1000 -0.003734633 -0.003912529 -0.003559382 -0.002994402 -0.002797154 1000 -0.00406186 -0.004064253 -0.004835186 -0.005039898 -0.005013636 1000 -0.00406186 -0.004064253 -0.004835186 -0.005039898 -0.005013636 1000
lala 7 1.2 1 first 5 1 97 6 7.98 1.13999724388123 -1 1 1 1 -0.006482941 -0.007098239 -0.008410174 1000 1000 1000 -0.006482941 -0.007098239 -0.008410174 1000 1000 1000 -0.005252171 -0.006368474 -0.006126067 -0.005985149 -0.006637415 1000 -0.005252171 -0.006368474 -0.006126067 -0.005985149 -0.006637415 1000
lala 12 0.15 1 first 1 1 98 4 4.870001 0.139998197555542 -1 1 1 0 -0.007206419 -0.007663733 -0.007681857 1000 1000 1000 -0.007206419 -0.007663733 -0.007681857 1000 1000 1000 -0.007668533 -0.007133775 -0.007164969 -0.007458685 -0.00786067 1000 -0.007668533 -0.007133775 -0.007164969 -0.007458685 -0.00786067 1000
lala 4 1.2 1 first 17 1 99 6 4.380001 0.179998159408569 0 1 1 1 -0.007954597 -0.007994147 -0.007502004 1000 1000 1000 -0.007954597 -0.007994147 -0.007502004 1000 1000 1000 -0.006641381 -0.007667657 -0.007130202 -0.006849743 -0.007185876 1000 -0.006641381 -0.007667657 -0.007130202 -0.006849743 -0.007185876 1000
lala 4 1.2 1 second 7 1 100 4 4.12 0.23999810218811 1 1 1 1 0.0009669834 -0.004425168 -0.007419765 -0.006184503 -0.004062457 1000 0.0009669834 -0.004425168 -0.007419765 -0.006184503 -0.004062457 1000 -0.003099685 -0.002297682 -0.001797076 -0.001531918 -0.001734907 1000 -0.003099685 -0.002297682 -0.001797076 -0.001531918 -0.001734907 1000
lala 13 0.15 1 second 1 1 101 4 4.720001 0.359997987747192 -1 1 1 1 -0.001852621 -0.0008343214 -0.0008073058 -0.0008953374 -0.001165087 1000 -0.001852621 -0.0008343214 -0.0008073058 -0.0008953374 -0.001165087 1000 -0.002640195 -0.00257248 -0.002166282 -0.001792018 -0.001568808 1000 -0.002640195 -0.00257248 -0.002166282 -0.001792018 -0.001568808 1000
lala 7 1.2 0 first 15 1 102 5 4.25 0.579997777938843 0 1 -1 0 -0.001902803 -0.002191782 -0.002101261 1000 1000 1000 -0.001902803 -0.002191782 -0.002101261 1000 1000 1000 -0.00118961 -0.001152381 -0.001141935 -0.001168368 -0.001529854 1000 -0.00118961 -0.001152381 -0.001141935 -0.001168368 -0.001529854 1000
lala 8 1.2 1 first 15 1 103 5 5.45 0.179998159408569 0 1 1 0 -0.0021196 -0.001793417 -0.001356485 1000 1000 1000 -0.0021196 -0.001793417 -0.001356485 1000 1000 1000 -0.001473347 -0.001034504 -0.0006842378 -0.000685508 -0.0007269508 1000 -0.001473347 -0.001034504 -0.0006842378 -0.000685508 -0.0007269508 1000
lala 6 1.2 1 first 16 1 104 6 3.18 0.39999794960022 0 0 1 0 -0.003457285 -0.003934614 -0.004384646 1000 1000 1000 -0.003457285 -0.003934614 -0.004384646 1000 1000 1000 -0.006260714 -0.0067468 -0.005338725 -0.004345662 -0.00376673 1000 -0.006260714 -0.0067468 -0.005338725 -0.004345662 -0.00376673 1000
lala 10 2.4 0 second 3 1 105 5 1.85 0.259998083114624 -1 1 -1 0 -0.01718523 -0.01281841 -0.0118581 -0.01232718 -0.01232392 1000 -0.01718523 -0.01281841 -0.0118581 -0.01232718 -0.01232392 1000 -0.01068661 -0.01048126 -0.009959197 -0.009250488 -0.008447167 1000 -0.01068661 -0.01048126 -0.009959197 -0.009250488 -0.008447167 1000
lala 6 1.2 1 second 0 1 106 4 6.24 0.259998083114624 -1 0 1 1 -0.006312263 -0.006544308 -0.006423799 -0.006095678 -0.006363952 1000 -0.006312263 -0.006544308 -0.006423799 -0.006095678 -0.006363952 1000 -0.006843886 -0.006185128 -0.006317397 -0.006449938 -0.006568552 1000 -0.006843886 -0.006185128 -0.006317397 -0.006449938 -0.006568552 1000
lala 6 1.2 1 second 11 1 107 6 4.380001 0.299998044967651 1 1 1 0 -0.006817574 -0.006537449 -0.006562458 -0.006586471 -0.006605484 1000 -0.006817574 -0.006537449 -0.006562458 -0.006586471 -0.006605484 1000 -0.006255892 -0.006067914 -0.005596669 -0.005822777 -0.006007489 1000 -0.006255892 -0.006067914 -0.005596669 -0.005822777 -0.006007489 1000
lala 5 1.2 0 second 17 1 108 6 3.180001 0.459997892379761 0 1 -1 1 -0.005482786 -0.005417512 -0.006190265 -0.006522911 -0.006343744 1000 -0.005482786 -0.005417512 -0.006190265 -0.006522911 -0.006343744 1000 -0.007602112 -0.007832597 -0.007868472 -0.007643406 -0.007593757 1000 -0.007602112 -0.007832597 -0.007868472 -0.007643406 -0.007593757 1000
lala 7 1.2 1 first 0 1 109 4 5.04 0.159998178482056 -1 0 1 1 -0.006703768 -0.006442013 -0.006051573 1000 1000 1000 -0.006703768 -0.006442013 -0.006051573 1000 1000 1000 -0.006001391 -0.006111862 -0.006261074 -0.006183235 -0.005943852 1000 -0.006001391 -0.006111862 -0.006261074 -0.006183235 -0.005943852 1000
lala 4 1.2 1 first 8 1 110 5 4.5 0.219998121261597 1 0 1 0 -0.005632435 -0.005553036 -0.005346014 1000 1000 1000 -0.005632435 -0.005553036 -0.005346014 1000 1000 1000 -0.005916763 -0.006228102 -0.006435177 -0.006228546 -0.005790219 1000 -0.005916763 -0.006228102 -0.006435177 -0.006228546 -0.005790219 1000
lala 7 1.2 0 second 16 1 111 6 1.98 0.01999831199646 0 0 -1 0 -0.006404664 -0.006363562 -0.006571071 -0.006488095 -0.00659219 1000 -0.006404664 -0.006363562 -0.006571071 -0.006488095 -0.00659219 1000 -0.006014804 -0.006271174 -0.005859486 -0.005831567 -0.006261617 1000 -0.006014804 -0.006271174 -0.005859486 -0.005831567 -0.006261617 1000
lala 5 1.2 0 first 7 1 112 4 2.92 0.0599982738494873 1 1 -1 1 -0.006885266 -0.006202727 -0.006363174 1000 1000 1000 -0.006885266 -0.006202727 -0.006363174 1000 1000 1000 -0.005549455 -0.005342752 -0.004467655 -0.00516921 -0.00585209 1000 -0.005549455 -0.005342752 -0.004467655 -0.00516921 -0.00585209 1000
lala 8 1.2 0 second 16 1 113 6 3.18 0.379997968673706 0 0 -1 1 -0.009390648 -0.008935468 -0.008381736 -0.00749947 -0.007109994 1000 -0.009390648 -0.008935468 -0.008381736 -0.00749947 -0.007109994 1000 -0.01117278 -0.00970052 -0.01020085 -0.01074303 -0.009895909 1000 -0.01117278 -0.00970052 -0.01020085 -0.01074303 -0.009895909 1000
lala 7 1.2 0 first 12 1 114 4 2.64 0.119998216629028 0 0 -1 1 -0.009894263 -0.009389725 -0.009057309 1000 1000 1000 -0.009894263 -0.009389725 -0.009057309 1000 1000 1000 -0.008667423 -0.008927421 -0.00924762 -0.009202732 -0.009169558 1000 -0.008667423 -0.008927421 -0.00924762 -0.009202732 -0.009169558 1000
lala 11 1.2 1 second 3 1 115 5 3.05 0.319998025894165 -1 1 1 0 -0.009237906 -0.008829982 -0.009149221 -0.009787061 -0.009610585 1000 -0.009237906 -0.008829982 -0.009149221 -0.009787061 -0.009610585 1000 -0.009327784 -0.009921653 -0.009709294 -0.00925584 -0.009235539 1000 -0.009327784 -0.009921653 -0.009709294 -0.00925584 -0.009235539 1000
lala 7 1.2 1 second 10 1 116 6 3.96 0.459997892379761 1 0 1 1 -0.00948114 -0.009296391 -0.009721998 -0.01056266 -0.01101717 1000 -0.00948114 -0.009296391 -0.009721998 -0.01056266 -0.01101717 1000 -0.009823547 -0.009775379 -0.009624314 -0.009446043 -0.00944911 1000 -0.009823547 -0.009775379 -0.009624314 -0.009446043 -0.00944911 1000
lala 7 1.2 1 first 11 1 117 6 3.180001 0.499997854232788 1 1 1 0 -0.009693407 -0.009306407 -0.008786132 1000 1000 1000 -0.009693407 -0.009306407 -0.008786132 1000 1000 1000 -0.009053112 -0.008720595 -0.008937639 -0.009060332 -0.008435345 1000 -0.009053112 -0.008720595 -0.008937639 -0.009060332 -0.008435345 1000
lala 7 1.2 0 first 6 1 118 4 3.72 0.519997835159302 1 0 -1 1 -0.01205219 -0.01185986 -0.01166822 1000 1000 1000 -0.01205219 -0.01185986 -0.01166822 1000 1000 1000 -0.01168312 -0.01224717 -0.01265095 -0.01280256 -0.01294499 1000 -0.01168312 -0.01224717 -0.01265095 -0.01280256 -0.01294499 1000
lala 12 0.6 0 second 3 1 119 5 2.45 0.01999831199646 -1 1 -1 1 -0.01270982 -0.01234496 -0.01244548 -0.01298771 -0.01285209 1000 -0.01270982 -0.01234496 -0.01244548 -0.01298771 -0.01285209 1000 -0.01365966 -0.01433071 -0.01416713 -0.01368554 -0.01370405 1000 -0.01365966 -0.01433071 -0.01416713 -0.01368554 -0.01370405 1000
lala 13 0.3 0 first 3 1 120 5 2.75 0.299998044967651 -1 1 -1 0 -0.01434932 -0.01392183 -0.01393881 1000 1000 1000 -0.01434932 -0.01392183 -0.01393881 1000 1000 1000 -0.01454138 -0.01422463 -0.01399465 -0.01415843 -0.01444123 1000 -0.01454138 -0.01422463 -0.01399465 -0.01415843 -0.01444123 1000
lala 3 1.2 0 first 2 1 121 5 5.7 0.439997911453247 -1 0 -1 0 -0.01415467 -0.01424653 -0.01547888 1000 1000 1000 -0.01415467 -0.01424653 -0.01547888 1000 1000 1000 -0.01453307 -0.01474985 -0.01477014 -0.01463475 -0.01450219 1000 -0.01453307 -0.01474985 -0.01477014 -0.01463475 -0.01450219 1000
lala 8 1.2 1 second 0 1 122 4 3.84 0.219998121261597 -1 0 1 1 -0.01449404 -0.01455678 -0.01481611 -0.01484835 -0.01478442 1000 -0.01449404 -0.01455678 -0.01481611 -0.01484835 -0.01478442 1000 -0.01499583 -0.01484529 -0.01489284 -0.01531705 -0.0154295 1000 -0.01499583 -0.01484529 -0.01489284 -0.01531705 -0.0154295 1000
lala 6 1.2 1 second 17 1 123 6 4.380001 0.299998044967651 0 1 1 1 -0.01555335 -0.01555122 -0.01569213 -0.0157803 -0.01557958 1000 -0.01555335 -0.01555122 -0.01569213 -0.0157803 -0.01557958 1000 -0.01443416 -0.01485672 -0.01519576 -0.01537369 -0.01527951 1000 -0.01443416 -0.01485672 -0.01519576 -0.01537369 -0.01527951 1000
lala 7 1.2 0 first 17 1 124 6 3.180001 0.39999794960022 0 1 -1 1 -0.01500609 -0.01537528 -0.01520884 1000 1000 1000 -0.01500609 -0.01537528 -0.01520884 1000 1000 1000 -0.01651634 -0.01618116 -0.01595568 -0.01606146 -0.01622403 1000 -0.01651634 -0.01618116 -0.01595568 -0.01606146 -0.01622403 1000
lala 14 0.15 1 first 1 1 125 4 4.570001 0.339998006820679 -1 1 1 1 -0.01708971 -0.0168007 -0.01636012 1000 1000 1000 -0.01708971 -0.0168007 -0.01636012 1000 1000 1000 -0.01629396 -0.01608997 -0.01612253 -0.01609405 -0.01605601 1000 -0.01629396 -0.01608997 -0.01612253 -0.01609405 -0.01605601 1000
lala 9 1.2 0 first 0 1 126 4 2.64 0.299998044967651 -1 0 -1 1 -0.01677207 -0.01684708 -0.01668056 1000 1000 1000 -0.01677207 -0.01684708 -0.01668056 1000 1000 1000 -0.01621206 -0.01670133 -0.01644642 -0.01614953 -0.01639952 1000 -0.01621206 -0.01670133 -0.01644642 -0.01614953 -0.01639952 1000
lala 9 1.2 1 second 16 1 127 6 4.38 0.419997930526733 0 0 1 1 -0.01622964 -0.01572817 -0.01607461 -0.01553982 -0.01525394 1000 -0.01622964 -0.01572817 -0.01607461 -0.01553982 -0.01525394 1000 -0.01624845 -0.0159311 -0.01586672 -0.01558058 -0.01496851 1000 -0.01624845 -0.0159311 -0.01586672 -0.01558058 -0.01496851 1000
lala 10 0.6 0 first 16 1 128 6 3.78 0.23999810218811 0 0 -1 0 -0.01849913 -0.01973765 -0.01960876 1000 1000 1000 -0.01849913 -0.01973765 -0.01960876 1000 1000 1000 -0.02140412 -0.02086744 -0.01995233 -0.02049001 -0.02083815 1000 -0.02140412 -0.02086744 -0.01995233 -0.02049001 -0.02083815 1000
lala 8 1.2 1 second 6 1 129 4 4.92 0.319998025894165 1 0 1 0 -0.0216792 -0.02188857 -0.02121322 -0.02044233 -0.02031384 1000 -0.0216792 -0.02188857 -0.02121322 -0.02044233 -0.02031384 1000 -0.02062388 -0.02109648 -0.02090907 -0.02071253 -0.02092619 1000 -0.02062388 -0.02109648 -0.02090907 -0.02071253 -0.02092619 1000
lala 9 1.2 1 first 15 1 130 5 4.25 0.379997968673706 0 1 1 1 -0.02200298 -0.02217457 -0.02237144 1000 1000 1000 -0.02200298 -0.02217457 -0.02237144 1000 1000 1000 -0.02231259 -0.022428 -0.02244878 -0.02229028 -0.02216192 1000 -0.02231259 -0.022428 -0.02244878 -0.02229028 -0.02216192 1000
lala 7 1.2 0 second 9 1 131 5 4.25 0.379997968673706 1 1 -1 1 -0.02183004 -0.02130238 -0.02134772 -0.02140413 -0.02142039 1000 -0.02183004 -0.02130238 -0.02134772 -0.02140413 -0.02142039 1000 -0.02227484 -0.0224884 -0.0224816 -0.02200316 -0.02157473 1000 -0.02227484 -0.0224884 -0.0224816 -0.02200316 -0.02157473 1000
lala 8 1.2 1 first 11 1 132 6 1.980001 0.359997987747192 1 1 1 1 -0.02216872 -0.02225053 -0.02212001 1000 1000 1000 -0.02216872 -0.02225053 -0.02212001 1000 1000 1000 -0.02251591 -0.02289696 -0.0223623 -0.02216991 -0.02269357 1000 -0.02251591 -0.02289696 -0.0223623 -0.02216991 -0.02269357 1000
lala 8 1.2 1 second 17 1 133 6 4.380001 0.319998025894165 0 1 1 0 -0.02322506 -0.02274323 -0.02274782 -0.02302084 -0.02291445 1000 -0.02322506 -0.02274323 -0.02274782 -0.02302084 -0.02291445 1000 -0.02327105 -0.02288738 -0.0228348 -0.0233223 -0.0236346 1000 -0.02327105 -0.02288738 -0.0228348 -0.0233223 -0.0236346 1000
lala 5 1.2 0 first 14 1 134 5 3.3 0.279998064041138 0 0 -1 0 -0.02349435 -0.02339923 -0.02313516 1000 1000 1000 -0.02349435 -0.02339923 -0.02313516 1000 1000 1000 -0.02361019 -0.02309474 -0.0229145 -0.02339459 -0.02371096 1000 -0.02361019 -0.02309474 -0.0229145 -0.02339459 -0.02371096 1000
lala 4 1.2 1 second 2 1 135 5 6.9 0.599997758865356 -1 0 1 1 -0.02289906 -0.02311053 -0.02327769 -0.02294598 -0.02238618 1000 -0.02289906 -0.02311053 -0.02327769 -0.02294598 -0.02238618 1000 -0.02210119 -0.02156796 -0.0214334 -0.02167917 -0.02170643 1000 -0.02210119 -0.02156796 -0.0214334 -0.02167917 -0.02170643 1000
lala 8 1.2 0 second 4 1 136 6 5.16 0.779997587203979 -1 0 -1 1 -0.02227162 -0.02189382 -0.02238312 -0.02286859 -0.02292486 1000 -0.02227162 -0.02189382 -0.02238312 -0.02286859 -0.02292486 1000 -0.02261791 -0.02204508 -0.02185693 -0.0220513 -0.02217217 1000 -0.02261791 -0.02204508 -0.02185693 -0.0220513 -0.02217217 1000
lala 5 1.2 1 second 2 1 137 5 5.7 0.359997987747192 -1 0 1 1 -0.02172235 -0.02137267 -0.02161596 -0.02160509 -0.0212521 1000 -0.02172235 -0.02137267 -0.02161596 -0.02160509 -0.0212521 1000 -0.02141151 -0.02075435 -0.02023137 -0.0204134 -0.0207974 1000 -0.02141151 -0.02075435 -0.02023137 -0.0204134 -0.0207974 1000
lala 5 1.2 1 second 8 1 138 5 3.3 1.37999701499939 1 0 1 1 -0.01954743 -0.01938884 -0.02040277 -0.0211105 -0.02107184 1000 -0.01954743 -0.01938884 -0.02040277 -0.0211105 -0.02107184 1000 -0.02068803 -0.02104492 -0.02042616 -0.01998739 -0.02003805 1000 -0.02068803 -0.02104492 -0.02042616 -0.01998739 -0.02003805 1000
lala 4 1.2 1 second 13 1 139 4 6.52 0.699997663497925 0 1 1 0 -0.02142607 -0.02237557 -0.02194634 -0.02187293 -0.02158566 1000 -0.02142607 -0.02237557 -0.02194634 -0.02187293 -0.02158566 1000 -0.02052796 -0.02041896 -0.02074048 -0.02106991 -0.02110045 1000 -0.02052796 -0.02041896 -0.02074048 -0.02106991 -0.02110045 1000
lala 9 1.2 1 first 17 1 140 6 3.180001 1.77999687194824 0 1 1 0 -0.02059162 -0.02049445 -0.02038274 1000 1000 1000 -0.02059162 -0.02049445 -0.02038274 1000 1000 1000 -0.0216944 -0.02098763 -0.0206464 -0.0207017 -0.02083812 1000 -0.0216944 -0.02098763 -0.0206464 -0.0207017 -0.02083812 1000
lala 10 0.6 0 first 0 1 141 4 3.24 0.899997472763062 -1 0 -1 1 -0.02073463 -0.02095911 -0.02037079 1000 1000 1000 -0.02073463 -0.02095911 -0.02037079 1000 1000 1000 -0.02077307 -0.02120203 -0.02058883 -0.02029076 -0.02028943 1000 -0.02077307 -0.02120203 -0.02058883 -0.02029076 -0.02028943 1000
lala 11 0.3 1 second 16 1 142 6 4.08 0.259998083114624 0 0 1 0 -0.02027407 -0.02016749 -0.0202329 -0.02038539 -0.02011924 1000 -0.02027407 -0.02016749 -0.0202329 -0.02038539 -0.02011924 1000 -0.02126545 -0.02167457 -0.02203258 -0.02159516 -0.0209486 1000 -0.02126545 -0.02167457 -0.02203258 -0.02159516 -0.0209486 1000
lala 6 1.2 1 second 14 1 143 5 4.5 0.459997892379761 0 0 1 1 -0.0204807 -0.02039766 -0.02054654 -0.02052523 -0.02050554 1000 -0.0204807 -0.02039766 -0.02054654 -0.02052523 -0.02050554 1000 -0.02002057 -0.02018718 -0.02044076 -0.02056767 -0.02051822 1000 -0.02002057 -0.02018718 -0.02044076 -0.02056767 -0.02051822 1000
lala 8 1.2 1 second 10 1 144 6 2.76 0.859997510910034 1 0 1 0 -0.02084124 -0.02026062 -0.02031295 -0.02056518 -0.02032437 1000 -0.02084124 -0.02026062 -0.02031295 -0.02056518 -0.02032437 1000 -0.02013172 -0.02006819 -0.01985492 -0.01989796 -0.02014297 1000 -0.02013172 -0.02006819 -0.01985492 -0.01989796 -0.02014297 1000
lala 9 1.2 0 first 10 1 145 6 1.98 0.439997911453247 1 0 -1 0 -0.02056525 -0.02166993 -0.02156119 1000 1000 1000 -0.02056525 -0.02166993 -0.02156119 1000 1000 1000 -0.02008801 -0.01959091 -0.01905832 -0.01931915 -0.01972737 1000 -0.02008801 -0.01959091 -0.01905832 -0.01931915 -0.01972737 1000
lala 9 1.2 0 first 11 1 146 6 1.98 0.559997797012329 1 1 -1 1 -0.02008103 -0.01901129 -0.01826208 1000 1000 1000 -0.02008103 -0.01901129 -0.01826208 1000 1000 1000 -0.01958379 -0.02069884 -0.02157499 -0.02120065 -0.02061404 1000 -0.01958379 -0.02069884 -0.02157499 -0.02120065 -0.02061404 1000
lala 8 1.2 1 first 12 1 147 4 3.84 1.61999702453613 0 0 1 1 -0.02221108 -0.02173317 -0.02118484 1000 1000 1000 -0.02221108 -0.02173317 -0.02118484 1000 1000 1000 -0.0217355 -0.02215607 -0.02217682 -0.02198079 -0.02180997 1000 -0.0217355 -0.02215607 -0.02217682 -0.02198079 -0.02180997 1000
lala 10 0.6 0 second 10 1 148 6 2.58 2.5999960899353 1 0 -1 0 -0.02068952 -0.01990412 -0.01948352 -0.02000174 -0.02066062 1000 -0.02068952 -0.01990412 -0.01948352 -0.02000174 -0.02066062 1000 -0.02172298 -0.02190771 -0.0219504 -0.02192373 -0.02236866 1000 -0.02172298 -0.02190771 -0.0219504 -0.02192373 -0.02236866 1000
lala 6 1.2 0 first 2 1 149 5 4.5 2.07999658584595 -1 0 -1 1 -0.02003479 -0.01988678 -0.01981165 1000 1000 1000 -0.02003479 -0.01988678 -0.01981165 1000 1000 1000 -0.01993961 -0.01985344 -0.01987594 -0.02000238 -0.01951492 1000 -0.01993961 -0.01985344 -0.01987594 -0.02000238 -0.01951492 1000
lala 8 1.2 1 second 9 1 150 5 5.45 0.679997682571411 1 1 1 1 -0.008706274 -0.008723008 -0.007603508 -0.006291652 -0.006320253 1000 -0.008706274 -0.008723008 -0.007603508 -0.006291652 -0.006320253 1000 -0.01709262 -0.01770566 -0.01726045 -0.01671825 -0.01646096 1000 -0.01709262 -0.01770566 -0.01726045 -0.01671825 -0.01646096 1000
lala 9 1.2 1 first 6 1 151 4 3.72 0.419997930526733 1 0 1 0 -0.01473793 -0.01449358 -0.01474816 1000 1000 1000 -0.01473793 -0.01449358 -0.01474816 1000 1000 1000 -0.01476387 -0.01465972 -0.01444114 -0.01458728 -0.01408134 1000 -0.01476387 -0.01465972 -0.01444114 -0.01458728 -0.01408134 1000
lala 6 1.2 0 second 8 1 152 5 2.1 0.23999810218811 1 0 -1 1 -0.01436805 -0.0141746 -0.01406886 -0.01432046 -0.01422437 1000 -0.01436805 -0.0141746 -0.01406886 -0.01432046 -0.01422437 1000 -0.0139966 -0.01399941 -0.0142126 -0.01411774 -0.01371248 1000 -0.0139966 -0.01399941 -0.0142126 -0.01411774 -0.01371248 1000
lala 7 1.2 1 first 2 1 153 5 5.7 0.299998044967651 -1 0 1 0 -0.01443394 -0.01428342 -0.01342735 1000 1000 1000 -0.01443394 -0.01428342 -0.01342735 1000 1000 1000 -0.01426015 -0.01463285 -0.01486518 -0.0148565 -0.01486327 1000 -0.01426015 -0.01463285 -0.01486518 -0.0148565 -0.01486327 1000
lala 7 1.2 1 first 14 1 154 5 3.3 0.459997892379761 0 0 1 0 -0.01501569 -0.01459136 -0.01429543 1000 1000 1000 -0.01501569 -0.01459136 -0.01429543 1000 1000 1000 -0.01517898 -0.01528532 -0.01535681 -0.01544382 -0.01495643 1000 -0.01517898 -0.01528532 -0.01535681 -0.01544382 -0.01495643 1000
lala 11 0.6 1 second 0 1 155 4 3.84 0.359997987747192 -1 0 1 1 -0.01499077 -0.01502559 -0.01519832 -0.01525293 -0.01508683 1000 -0.01499077 -0.01502559 -0.01519832 -0.01525293 -0.01508683 1000 -0.01491822 -0.01519307 -0.01527316 -0.01518675 -0.01494187 1000 -0.01491822 -0.01519307 -0.01527316 -0.01518675 -0.01494187 1000
lala 9 1.2 0 first 12 1 156 4 2.64 0.179998159408569 0 0 -1 0 -0.01777547 -0.01913608 -0.02139726 1000 1000 1000 -0.01777547 -0.01913608 -0.02139726 1000 1000 1000 -0.02753484 -0.01517888 -0.005326487 0.001879255 0.008804034 1000 -0.02753484 -0.01517888 -0.005326487 0.001879255 0.008804034 1000
lala 9 1.2 1 first 4 1 157 6 6.36 0.23999810218811 -1 0 1 1 -0.002534849 -0.005141096 -0.007162368 1000 1000 1000 -0.002534849 -0.005141096 -0.007162368 1000 1000 1000 -0.01241106 -0.01008573 -0.01206108 -0.01486868 -0.01582038 1000 -0.01241106 -0.01008573 -0.01206108 -0.01486868 -0.01582038 1000
lala 8 1.2 1 second 5 1 158 6 6.780001 0.339998006820679 -1 1 1 0 -0.01421778 -0.01255847 -0.01197799 -0.009565458 -0.009922217 1000 -0.01421778 -0.01255847 -0.01197799 -0.009565458 -0.009922217 1000 -0.01238061 -0.0107961 -0.00953248 -0.009067071 -0.008947436 1000 -0.01238061 -0.0107961 -0.00953248 -0.009067071 -0.008947436 1000
lala 9 1.2 1 first 5 1 159 6 5.580001 0.959997415542603 -1 1 1 1 -0.009639645 -0.009318317 -0.009109592 1000 1000 1000 -0.009639645 -0.009318317 -0.009109592 1000 1000 1000 -0.007475334 -0.007333958 -0.006943391 -0.005885012 -0.005225523 1000 -0.007475334 -0.007333958 -0.006943391 -0.005885012 -0.005225523 1000
lala 15 0.3 1 first 1 1 160 4 4.27 0.559997797012329 -1 1 1 0 -0.005682618 -0.005339454 -0.004900475 1000 1000 1000 -0.005682618 -0.005339454 -0.004900475 1000 1000 1000 0.0005819176 0.0004922024 0.0004730326 -0.0002763283 0.0001790207 1000 0.0005819176 0.0004922024 0.0004730326 -0.0002763283 0.0001790207 1000
lala 10 0.6 1 second 4 1 161 6 5.76 0.319998025894165 -1 0 1 1 -0.0006337235 -0.0004395971 -0.0004665914 -0.000536935 -0.001336482 1000 -0.0006337235 -0.0004395971 -0.0004665914 -0.000536935 -0.001336482 1000 -0.001313896 -0.0005880703 -0.0004424073 -0.0008344446 -0.001291607 1000 -0.001313896 -0.0005880703 -0.0004424073 -0.0008344446 -0.001291607 1000
lala 10 1.2 0 second 17 1 162 6 1.980001 0.319998025894165 0 1 -1 1 -0.003032862 -0.003019603 -0.00309208 -0.003137927 -0.002330576 1000 -0.003032862 -0.003019603 -0.00309208 -0.003137927 -0.002330576 1000 -0.002100602 -0.001741922 -0.00171267 -0.002289305 -0.002013365 1000 -0.002100602 -0.001741922 -0.00171267 -0.002289305 -0.002013365 1000
lala 9 1.2 1 first 9 1 163 5 4.25 0.299998044967651 1 1 1 1 -0.002330196 -0.001407567 -0.001482642 1000 1000 1000 -0.002330196 -0.001407567 -0.001482642 1000 1000 1000 -0.001757162 -0.002080277 -0.002306048 -0.002317135 -0.002088878 1000 -0.001757162 -0.002080277 -0.002306048 -0.002317135 -0.002088878 1000
lala 16 0.6 1 second 1 1 164 4 3.670001 0.259998083114624 -1 1 1 0 -0.004779817 -0.004605811 -0.004110046 -0.004142249 -0.003984965 1000 -0.004779817 -0.004605811 -0.004110046 -0.004142249 -0.003984965 1000 -0.004405299 -0.00420165 -0.004133796 -0.00421995 -0.004467617 1000 -0.004405299 -0.00420165 -0.004133796 -0.00421995 -0.004467617 1000
lala 8 1.2 0 first 14 1 165 5 2.1 0.199998140335083 0 0 -1 1 -0.005302009 -0.005340425 -0.005551099 1000 1000 1000 -0.005302009 -0.005340425 -0.005551099 1000 1000 1000 -0.007301455 -0.007434111 -0.007192974 -0.007428838 -0.007601619 1000 -0.007301455 -0.007434111 -0.007192974 -0.007428838 -0.007601619 1000
lala 9 1.2 0 second 14 1 166 5 3.3 0.699997663497925 0 0 -1 1 -0.00738437 -0.007413625 -0.007323237 -0.007201864 -0.006983396 1000 -0.00738437 -0.007413625 -0.007323237 -0.007201864 -0.006983396 1000 -0.007598613 -0.007651505 -0.007326077 -0.007243204 -0.007411584 1000 -0.007598613 -0.007651505 -0.007326077 -0.007243204 -0.007411584 1000
lala 10 0.6 0 second 11 1 167 6 2.58 0.379997968673706 1 1 -1 0 -0.007644253 -0.007670757 -0.007653974 -0.007320646 -0.007121226 1000 -0.007644253 -0.007670757 -0.007653974 -0.007320646 -0.007121226 1000 -0.007730833 -0.007625587 -0.007473269 -0.007419579 -0.007516538 1000 -0.007730833 -0.007625587 -0.007473269 -0.007419579 -0.007516538 1000
lala 12 0.3 1 second 0 1 168 4 3.54 0.479997873306274 -1 0 1 1 -0.007762215 -0.008059897 -0.008243273 -0.007979485 -0.008188738 1000 -0.007762215 -0.008059897 -0.008243273 -0.007979485 -0.008188738 1000 -0.007901639 -0.008668276 -0.008399709 -0.008132487 -0.008063261 1000 -0.007901639 -0.008668276 -0.008399709 -0.008132487 -0.008063261 1000
lala 11 0.6 0 first 4 1 169 6 5.16 0.659997701644897 -1 0 -1 1 -0.008649298 -0.008508054 -0.008543096 1000 1000 1000 -0.008649298 -0.008508054 -0.008543096 1000 1000 1000 -0.009120329 -0.009131249 -0.009359763 -0.009636393 -0.009634293 1000 -0.009120329 -0.009131249 -0.009359763 -0.009636393 -0.009634293 1000
lala 10 1.2 1 first 6 1 170 4 2.52 1.21999716758728 1 0 1 0 -0.01013765 -0.009423465 -0.009769302 1000 1000 1000 -0.01013765 -0.009423465 -0.009769302 1000 1000 1000 -0.009481356 -0.009489425 -0.009703171 -0.009992747 -0.01020979 1000 -0.009481356 -0.009489425 -0.009703171 -0.009992747 -0.01020979 1000
lala 5 1.2 1 first 13 1 171 4 5.320001 0.379997968673706 0 1 1 0 -0.01106676 -0.0106375 -0.01041991 1000 1000 1000 -0.01106676 -0.0106375 -0.01041991 1000 1000 1000 -0.009579061 -0.009502728 -0.009648784 -0.009529362 -0.009419967 1000 -0.009579061 -0.009502728 -0.009648784 -0.009529362 -0.009419967 1000
lala 11 0.6 0 second 10 1 172 6 3.18 0.579997777938843 1 0 -1 0 -0.01043393 -0.0100501 -0.01017508 -0.01044651 -0.01039282 1000 -0.01043393 -0.0100501 -0.01017508 -0.01044651 -0.01039282 1000 -0.01005069 -0.01062033 -0.01011509 -0.00964961 -0.009616074 1000 -0.01005069 -0.01062033 -0.01011509 -0.00964961 -0.009616074 1000
lala 12 0.3 1 second 4 1 173 6 5.46 0.319998025894165 -1 0 1 0 -0.009886282 -0.009874866 -0.009938088 -0.009637175 -0.009630433 1000 -0.009886282 -0.009874866 -0.009938088 -0.009637175 -0.009630433 1000 -0.009215448 -0.009546029 -0.009403341 -0.009617439 -0.00935005 1000 -0.009215448 -0.009546029 -0.009403341 -0.009617439 -0.00935005 1000
lala 14 0.3 0 first 3 1 174 5 3.05 0.459997892379761 -1 1 -1 1 -0.01009905 -0.009729488 -0.009916523 1000 1000 1000 -0.01009905 -0.009729488 -0.009916523 1000 1000 1000 -0.009662795 -0.00989051 -0.009773071 -0.009668148 -0.009504954 1000 -0.009662795 -0.00989051 -0.009773071 -0.009668148 -0.009504954 1000
lala 10 1.2 0 second 9 1 175 5 3.05 0.439997911453247 1 1 -1 0 -0.009156768 -0.009028052 -0.009631755 -0.009357859 -0.00842834 1000 -0.009156768 -0.009028052 -0.009631755 -0.009357859 -0.00842834 1000 -0.009271972 -0.00908842 -0.008883909 -0.009248177 -0.009051009 1000 -0.009271972 -0.00908842 -0.008883909 -0.009248177 -0.009051009 1000
lala 13 0.15 1 second 4 1 176 6 5.31 0.339998006820679 -1 0 1 1 -0.009018674 -0.00951425 -0.009255759 -0.008840544 -0.008697727 1000 -0.009018674 -0.00951425 -0.009255759 -0.008840544 -0.008697727 1000 -0.009079467 -0.008715925 -0.00898721 -0.009216897 -0.008497737 1000 -0.009079467 -0.008715925 -0.00898721 -0.009216897 -0.008497737 1000
lala 10 2.4 0 second 5 1 177 6 3.180001 0.359997987747192 -1 1 -1 1 -0.00920828 -0.009409764 -0.009529558 -0.009585423 -0.009330088 1000 -0.00920828 -0.009409764 -0.009529558 -0.009585423 -0.009330088 1000 -0.009290478 -0.009138796 -0.008894254 -0.008951612 -0.009033682 1000 -0.009290478 -0.009138796 -0.008894254 -0.008951612 -0.009033682 1000
lala 6 1.2 1 second 13 1 178 4 4.120001 0.559997797012329 0 1 1 1 -0.008792061 -0.009271711 -0.00939103 -0.00877085 -0.009174688 1000 -0.008792061 -0.009271711 -0.00939103 -0.00877085 -0.009174688 1000 -0.009242808 -0.009477241 -0.009750835 -0.008948584 -0.00876615 1000 -0.009242808 -0.009477241 -0.009750835 -0.008948584 -0.00876615 1000
lala 11 2.4 1 first 6 1 179 4 1.32 0.579997777938843 1 0 1 1 -0.009754106 -0.009498364 -0.009256461 1000 1000 1000 -0.009754106 -0.009498364 -0.009256461 1000 1000 1000 -0.01049674 -0.01024566 -0.0101229 -0.01049327 -0.01035783 1000 -0.01049674 -0.01024566 -0.0101229 -0.01049327 -0.01035783 1000
lala 11 0.6 1 first 17 1 180 6 2.580001 0.359997987747192 0 1 1 1 -0.00911585 -0.009101845 -0.009524053 1000 1000 1000 -0.00911585 -0.009101845 -0.009524053 1000 1000 1000 -0.009217058 -0.009344805 -0.008754351 -0.009133871 -0.009473114 1000 -0.009217058 -0.009344805 -0.008754351 -0.009133871 -0.009473114 1000
lala 14 0.15 0 first 4 1 181 6 5.16 0.599997758865356 -1 0 -1 0 -0.00981318 -0.009531557 -0.01008186 1000 1000 1000 -0.00981318 -0.009531557 -0.01008186 1000 1000 1000 -0.009812158 -0.008953861 -0.008654536 -0.008993687 -0.009357273 1000 -0.009812158 -0.008953861 -0.008654536 -0.008993687 -0.009357273 1000
lala 6 1.2 1 second 7 1 182 4 4.12 0.23999810218811 1 1 1 0 -0.008907072 -0.008913409 -0.009855188 -0.009233365 -0.00869003 1000 -0.008907072 -0.008913409 -0.009855188 -0.009233365 -0.00869003 1000 -0.009293279 -0.009090921 -0.009153287 -0.009075187 -0.009246935 1000 -0.009293279 -0.009090921 -0.009153287 -0.009075187 -0.009246935 1000
lala 11 0.6 1 second 9 1 183 5 3.65 2.63999605178833 1 1 1 1 -0.00863308 -0.008683105 -0.00947343 -0.009320627 -0.008882504 1000 -0.00863308 -0.008683105 -0.00947343 -0.009320627 -0.008882504 1000 -0.01465822 -0.01769071 -0.02306099 -0.02620543 -0.02660305 1000 -0.01465822 -0.01769071 -0.02306099 -0.02620543 -0.02660305 1000
lala 17 1.2 0 second 1 1 184 4 2.470001 0.459997892379761 -1 1 -1 0 -0.002548519 -0.001140133 -0.0009548347 -0.001270419 -0.00120935 1000 -0.002548519 -0.001140133 -0.0009548347 -0.001270419 -0.00120935 1000 -0.002365529 -0.001822474 -0.001466509 -0.001333568 -0.001410203 1000 -0.002365529 -0.001822474 -0.001466509 -0.001333568 -0.001410203 1000
lala 10 0.6 1 second 12 1 185 4 3.24 0.439997911453247 0 0 1 0 -0.001296756 -0.002028331 -0.001800222 -0.001582536 -0.001117125 1000 -0.001296756 -0.002028331 -0.001800222 -0.001582536 -0.001117125 1000 -0.01027378 -0.01314935 -0.01709478 -0.02017605 -0.0228299 1000 -0.01027378 -0.01314935 -0.01709478 -0.02017605 -0.0228299 1000
lala 7 1.2 0 second 7 1 186 4 2.92 0.23999810218811 1 1 -1 1 -0.01512982 -0.0137463 -0.01299429 -0.01257937 -0.01218527 1000 -0.01512982 -0.0137463 -0.01299429 -0.01257937 -0.01218527 1000 -0.01274994 -0.01316273 -0.01358502 -0.01318149 -0.01294375 1000 -0.01274994 -0.01316273 -0.01358502 -0.01318149 -0.01294375 1000
lala 7 1.2 1 second 8 1 187 5 3.3 1.31999707221985 1 0 1 0 -0.01427626 -0.01370693 -0.01360927 -0.01393314 -0.01404654 1000 -0.01427626 -0.01370693 -0.01360927 -0.01393314 -0.01404654 1000 -0.01335966 -0.01277019 -0.01262457 -0.01207152 -0.0118296 1000 -0.01335966 -0.01277019 -0.01262457 -0.01207152 -0.0118296 1000
lala 11 0.6 0 second 11 1 188 6 3.18 0.519997835159302 1 1 -1 1 -0.01264646 -0.01285449 -0.01329378 -0.01334675 -0.01318475 1000 -0.01264646 -0.01285449 -0.01329378 -0.01334675 -0.01318475 1000 -0.01239519 -0.01232709 -0.01230733 -0.01240278 -0.01251168 1000 -0.01239519 -0.01232709 -0.01230733 -0.01240278 -0.01251168 1000
lala 10 1.2 1 second 15 1 189 5 3.05 0.579997777938843 0 1 1 0 -0.01135368 -0.01130052 -0.01160819 -0.01189932 -0.01216794 1000 -0.01135368 -0.01130052 -0.01160819 -0.01189932 -0.01216794 1000 -0.0126414 -0.01210051 -0.01219117 -0.01253095 -0.01259824 1000 -0.0126414 -0.01210051 -0.01219117 -0.01253095 -0.01259824 1000
lala 10 1.2 0 second 14 1 190 5 4.5 0.699997663497925 0 0 -1 1 -0.01259009 -0.01321388 -0.01390552 -0.01311597 -0.01282926 1000 -0.01259009 -0.01321388 -0.01390552 -0.01311597 -0.01282926 1000 -0.01222545 -0.01198522 -0.01223068 -0.01240311 -0.01252851 1000 -0.01222545 -0.01198522 -0.01223068 -0.01240311 -0.01252851 1000
lala 7 1.2 1 first 13 1 191 4 2.920001 0.639997720718384 0 1 1 0 -0.01235018 -0.01245788 -0.01203389 1000 1000 1000 -0.01235018 -0.01245788 -0.01203389 1000 1000 1000 -0.01211291 -0.01222464 -0.01230704 -0.01228147 -0.01229057 1000 -0.01211291 -0.01222464 -0.01230704 -0.01228147 -0.01229057 1000
lala 8 1.2 0 second 7 1 192 4 4.12 0.639997720718384 1 1 -1 1 -0.01163164 -0.01179845 -0.01270984 -0.01180693 -0.01092422 1000 -0.01163164 -0.01179845 -0.01270984 -0.01180693 -0.01092422 1000 -0.01033754 -0.01082027 -0.009857072 -0.007424101 -0.005224524 1000 -0.01033754 -0.01082027 -0.009857072 -0.007424101 -0.005224524 1000
lala 15 0.075 1 second 4 1 193 6 5.235 0.359997987747192 -1 0 1 0 -0.01424479 -0.01397321 -0.01430494 -0.01312486 -0.01436894 1000 -0.01424479 -0.01397321 -0.01430494 -0.01312486 -0.01436894 1000 -0.01138603 -0.01017191 -0.01455485 -0.01416502 -0.009612387 1000 -0.01138603 -0.01017191 -0.01455485 -0.01416502 -0.009612387 1000
lala 11 2.4 0 second 15 1 194 5 1.65 0.539997816085815 0 1 -1 0 -0.009533415 -0.008687346 -0.009206164 -0.009954667 -0.01100968 1000 -0.009533415 -0.008687346 -0.009206164 -0.009954667 -0.01100968 1000 -0.0106761 -0.009331027 -0.00983714 -0.01011426 -0.008641087 1000 -0.0106761 -0.009331027 -0.00983714 -0.01011426 -0.008641087 1000
lala 12 0.6 1 first 10 1 195 6 3.78 0.299998044967651 1 0 1 0 -0.01207907 -0.01164508 -0.01100424 1000 1000 1000 -0.01207907 -0.01164508 -0.01100424 1000 1000 1000 -0.00734914 -0.007541191 -0.007725493 -0.008290106 -0.008337812 1000 -0.00734914 -0.007541191 -0.007725493 -0.008290106 -0.008337812 1000
lala 12 0.3 1 first 9 1 196 5 3.35 0.419997930526733 1 1 1 0 -0.009452872 -0.009622522 -0.009795839 1000 1000 1000 -0.009452872 -0.009622522 -0.009795839 1000 1000 1000 -0.009063277 -0.009414833 -0.009669697 -0.009315696 -0.009010428 1000 -0.009063277 -0.009414833 -0.009669697 -0.009315696 -0.009010428 1000
lala 12 0.6 0 first 11 1 197 6 3.78 0.299998044967651 1 1 -1 0 -0.01016999 -0.01008009 -0.009182749 1000 1000 1000 -0.01016999 -0.01008009 -0.009182749 1000 1000 1000 -0.007608789 -0.007846451 -0.008168454 -0.008458439 -0.008469702 1000 -0.007608789 -0.007846451 -0.008168454 -0.008458439 -0.008469702 1000
lala 12 4.8 0 second 6 1 198 4 1.32 0.319998025894165 1 0 -1 0 -0.007542886 -0.007804286 -0.008624412 -0.009037112 -0.008497404 1000 -0.007542886 -0.007804286 -0.008624412 -0.009037112 -0.008497404 1000 -0.008285624 -0.007843222 -0.007729876 -0.008081701 -0.008298026 1000 -0.008285624 -0.007843222 -0.007729876 -0.008081701 -0.008298026 1000
lala 11 2.4 1 second 14 1 199 5 6.9 0.279998064041138 0 0 1 0 -0.008302475 -0.008383482 -0.00896055 -0.009190052 -0.009058334 1000 -0.008302475 -0.008383482 -0.00896055 -0.009190052 -0.009058334 1000 -0.009037464 -0.008751874 -0.008748604 -0.00911146 -0.009221065 1000 -0.009037464 -0.008751874 -0.008748604 -0.00911146 -0.009221065 1000
lala 16 0.0375 0 first 4 1 200 6 5.1975 0.479997873306274 -1 0 -1 1 -0.008780915 -0.008780648 -0.0085386 -0.00838266 -0.008259371 -0.008079572 -0.008780915 -0.008780648 -0.0085386 -0.00838266 -0.008259371 -0.008079572 -0.00849931 -0.007657945 -0.007493376 -0.007580767 -0.007574041 1000 -0.00849931 -0.007657945 -0.007493376 -0.007580767 -0.007574041 1000
lala 13 0.3 1 first 9 1 201 5 3.05 0.459997892379761 1 1 1 0 -0.007341546 -0.006752717 -0.006745689 1000 1000 1000 -0.007341546 -0.006752717 -0.006745689 1000 1000 1000 -0.006595178 -0.005764491 -0.005097758 -0.005874964 -0.006680667 1000 -0.006595178 -0.005764491 -0.005097758 -0.005874964 -0.006680667 1000
lala 12 1.2 1 second 15 1 202 5 2.85 0.559997797012329 0 1 1 0 -0.005840386 -0.005788304 -0.005985401 -0.00580604 -0.005530105 1000 -0.005840386 -0.005788304 -0.005985401 -0.00580604 -0.005530105 1000 -0.004932229 -0.005337503 -0.005529239 -0.005366732 -0.005114316 1000 -0.004932229 -0.005337503 -0.005529239 -0.005366732 -0.005114316 1000
lala 14 0.3 1 second 9 1 203 5 2.75 0.339998006820679 1 1 1 0 -0.008467397 -0.008005203 -0.008032457 -0.009072498 -0.01098196 1000 -0.008467397 -0.008005203 -0.008032457 -0.009072498 -0.01098196 1000 -0.007707738 -0.01321589 -0.01605491 -0.01464763 -0.01442058 1000 -0.007707738 -0.01321589 -0.01605491 -0.01464763 -0.01442058 1000
lala 11 0.3 0 second 12 1 204 4 2.94 0.419997930526733 0 0 -1 1 -0.01458738 -0.01450254 -0.009789886 -0.009189346 -0.01057906 1000 -0.01458738 -0.01450254 -0.009789886 -0.009189346 -0.01057906 1000 -0.01201766 -0.01337522 -0.01320928 -0.01121531 -0.01017235 1000 -0.01201766 -0.01337522 -0.01320928 -0.01121531 -0.01017235 1000
lala 15 0.6 1 second 9 1 205 5 2.15 0.659997701644897 1 1 1 1 -0.01262168 -0.01387745 -0.01461581 -0.01414507 -0.01583314 1000 -0.01262168 -0.01387745 -0.01461581 -0.01414507 -0.01583314 1000 -0.0118839 -0.01489393 -0.01599198 -0.01351764 -0.01375205 1000 -0.0118839 -0.01489393 -0.01599198 -0.01351764 -0.01375205 1000
lala 17 0.01875 0 first 4 1 206 6 5.21625 0.679997682571411 -1 0 -1 0 -0.01568762 -0.01795724 -0.0154118 1000 1000 1000 -0.01568762 -0.01795724 -0.0154118 1000 1000 1000 -0.01134674 -0.01417847 -0.01437346 -0.01286177 -0.01493901 1000 -0.01134674 -0.01417847 -0.01437346 -0.01286177 -0.01493901 1000
lala 9 1.2 1 second 7 1 207 4 5.32 0.379997968673706 1 1 1 1 -0.01422559 -0.01375231 -0.01146239 -0.009601902 -0.01258851 1000 -0.01422559 -0.01375231 -0.01146239 -0.009601902 -0.01258851 1000 -0.01257124 -0.01383962 -0.01273828 -0.01023015 -0.01064686 1000 -0.01257124 -0.01383962 -0.01273828 -0.01023015 -0.01064686 1000
lala 12 0.15 0 first 16 1 208 6 3.93 0.299998044967651 0 0 -1 0 -0.01380022 -0.01433446 -0.01429451 1000 1000 1000 -0.01380022 -0.01433446 -0.01429451 1000 1000 1000 -0.0147506 -0.01390164 -0.01391349 -0.01482319 -0.01449841 1000 -0.0147506 -0.01390164 -0.01391349 -0.01482319 -0.01449841 1000
lala 13 0.3 1 second 10 1 209 6 3.48 0.459997892379761 1 0 1 1 -0.01486363 -0.01503913 -0.0136255 -0.01281956 -0.01429015 1000 -0.01486363 -0.01503913 -0.0136255 -0.01281956 -0.01429015 1000 -0.01446974 -0.01669698 -0.01526479 -0.01406262 -0.01327894 1000 -0.01446974 -0.01669698 -0.01526479 -0.01406262 -0.01327894 1000
lala 14 0.3 0 first 10 1 210 6 3.18 0.379997968673706 1 0 -1 0 -0.01520448 -0.01555929 -0.01308286 1000 1000 1000 -0.01520448 -0.01555929 -0.01308286 1000 1000 1000 -0.01186872 -0.01393692 -0.01523393 -0.01401691 -0.01487611 1000 -0.01186872 -0.01393692 -0.01523393 -0.01401691 -0.01487611 1000
lala 13 0.075 1 second 16 1 211 6 4.005 0.39999794960022 0 0 1 0 -0.01367089 -0.01362012 -0.01500056 -0.01621379 -0.01642024 1000 -0.01367089 -0.01362012 -0.01500056 -0.01621379 -0.01642024 1000 -0.01288594 -0.01276685 -0.01304608 -0.01282442 -0.01313573 1000 -0.01288594 -0.01276685 -0.01304608 -0.01282442 -0.01313573 1000
lala 8 1.2 1 second 2 1 212 5 4.5 0.439997911453247 -1 0 1 1 -0.01150132 -0.01115425 -0.01183145 -0.01236291 -0.01330499 1000 -0.01150132 -0.01115425 -0.01183145 -0.01236291 -0.01330499 1000 -0.01003207 -0.01268773 -0.01455901 -0.01332528 -0.014171 1000 -0.01003207 -0.01268773 -0.01455901 -0.01332528 -0.014171 1000
lala 12 0.15 1 second 12 1 213 4 3.09 0.419997930526733 0 0 1 1 -0.01156105 -0.01293648 -0.01391349 -0.01059475 -0.009880708 1000 -0.01156105 -0.01293648 -0.01391349 -0.01059475 -0.009880708 1000 -0.00960354 -0.01012388 -0.01313087 -0.01499734 -0.01089734 1000 -0.00960354 -0.01012388 -0.01313087 -0.01499734 -0.01089734 1000
lala 13 2.4 1 second 6 1 214 4 3.72 0.439997911453247 1 0 1 1 -0.01292591 -0.01413964 -0.01115812 -0.007912284 -0.009865587 1000 -0.01292591 -0.01413964 -0.01115812 -0.007912284 -0.009865587 1000 -0.01253171 -0.0125442 -0.01228856 -0.01012406 -0.008670901 1000 -0.01253171 -0.0125442 -0.01228856 -0.01012406 -0.008670901 1000
lala 8 1.2 1 first 8 1 215 5 2.1 0.379997968673706 1 0 1 0 -0.01191272 -0.01217433 -0.0124524 1000 1000 1000 -0.01191272 -0.01217433 -0.0124524 1000 1000 1000 -0.008748054 -0.00888578 -0.01089063 -0.01046879 -0.008353318 1000 -0.008748054 -0.00888578 -0.01089063 -0.01046879 -0.008353318 1000
lala 18 0.6 1 second 1 1 216 4 3.070001 0.439997911453247 -1 1 1 1 -0.008350863 -0.008549782 -0.01088578 -0.01076358 -0.007347169 1000 -0.008350863 -0.008549782 -0.01088578 -0.01076358 -0.007347169 1000 -0.009360334 -0.00941568 -0.009378574 -0.009766892 -0.01079505 1000 -0.009360334 -0.00941568 -0.009378574 -0.009766892 -0.01079505 1000
lala 14 0.0375 0 first 16 1 217 6 3.9675 0.439997911453247 0 0 -1 1 -0.009765076 -0.009820046 -0.009416272 1000 1000 1000 -0.009765076 -0.009820046 -0.009416272 1000 1000 1000 -0.01127224 -0.01065575 -0.007826243 -0.007902468 -0.009802289 1000 -0.01127224 -0.01065575 -0.007826243 -0.007902468 -0.009802289 1000
lala 16 1.2 0 second 9 1 218 5 1.65 0.419997930526733 1 1 -1 1 -0.01006467 -0.008037781 -0.01153792 -0.01085682 -0.009303248 1000 -0.01006467 -0.008037781 -0.01153792 -0.01085682 -0.009303248 1000 -0.008908343 -0.01308075 -0.01151888 -0.01184428 -0.01323609 1000 -0.008908343 -0.01308075 -0.01151888 -0.01184428 -0.01323609 1000
lala 18 0.01875 1 second 4 1 219 6 5.235 0.459997892379761 -1 0 1 1 -0.01122101 -0.01174877 -0.01313004 -0.01577845 -0.01414039 1000 -0.01122101 -0.01174877 -0.01313004 -0.01577845 -0.01414039 1000 -0.014534 -0.01104732 -0.009897915 -0.01332577 -0.01548499 1000 -0.014534 -0.01104732 -0.009897915 -0.01332577 -0.01548499 1000
lala 9 1.2 0 first 8 1 220 5 1.65 1.23999714851379 1 0 -1 0 -0.01307001 -0.01337461 -0.01510006 1000 1000 1000 -0.01307001 -0.01337461 -0.01510006 1000 1000 1000 -0.01129848 -0.01431619 -0.0158569 -0.01478841 -0.01433223 1000 -0.01129848 -0.01431619 -0.0158569 -0.01478841 -0.01433223 1000
lala 10 0.6 1 second 7 1 221 4 4.72 0.39999794960022 1 1 1 0 -0.01362067 -0.01389816 -0.01183799 -0.01133301 -0.01401083 1000 -0.01362067 -0.01389816 -0.01183799 -0.01133301 -0.01401083 1000 -0.01666316 -0.01626272 -0.01396562 -0.01606613 -0.01648622 1000 -0.01666316 -0.01626272 -0.01396562 -0.01606613 -0.01648622 1000
lala 9 1.2 1 second 2 1 222 5 3.3 0.459997892379761 -1 0 1 1 -0.01338749 -0.01376501 -0.01345823 -0.01242657 -0.01388875 1000 -0.01338749 -0.01376501 -0.01345823 -0.01242657 -0.01388875 1000 -0.01182538 -0.01429351 -0.0142891 -0.01444783 -0.01406144 1000 -0.01182538 -0.01429351 -0.0142891 -0.01444783 -0.01406144 1000
lala 15 0.01875 1 first 16 1 223 6 3.98625 1.3999969959259 0 0 1 1 -0.01356707 -0.01335578 -0.01335166 1000 1000 1000 -0.01356707 -0.01335578 -0.01335166 1000 1000 1000 -0.01302525 -0.01326085 -0.01229377 -0.01128888 -0.01175285 1000 -0.01302525 -0.01326085 -0.01229377 -0.01128888 -0.01175285 1000
lala 16 0.009375 0 first 16 1 224 6 3.976875 0.839997529983521 0 0 -1 1 -0.01258707 -0.01424765 -0.01400662 1000 1000 1000 -0.01258707 -0.01424765 -0.01400662 1000 1000 1000 -0.01294968 -0.01314301 -0.01196586 -0.01204734 -0.01236385 1000 -0.01294968 -0.01314301 -0.01196586 -0.01204734 -0.01236385 1000
lala 11 0.6 1 second 7 1 225 4 4.12 0.439997911453247 1 1 1 1 -0.01615604 -0.01006625 -0.003578643 -0.00177082 -0.00160131 1000 -0.01615604 -0.01006625 -0.003578643 -0.00177082 -0.00160131 1000 -0.004116734 -0.006542959 -0.005722839 -0.002596266 -0.002892724 1000 -0.004116734 -0.006542959 -0.005722839 -0.002596266 -0.002892724 1000
lala 15 0.3 0 second 3 1 226 5 3.35 0.499997854232788 -1 1 -1 0 -0.005600014 -0.004205876 -0.004599897 -0.004630903 -0.005696097 1000 -0.005600014 -0.004205876 -0.004599897 -0.004630903 -0.005696097 1000 -0.003952236 -0.003014698 -0.00177704 -0.001352243 -0.001312911 1000 -0.003952236 -0.003014698 -0.00177704 -0.001352243 -0.001312911 1000
lala 14 1.2 1 first 6 1 227 4 2.52 0.499997854232788 1 0 1 0 -0.003198618 -0.003121903 -0.002912331 1000 1000 1000 -0.003198618 -0.003121903 -0.002912331 1000 1000 1000 -0.001938799 -0.001715268 -0.001661188 -0.002603992 -0.002774966 1000 -0.001938799 -0.001715268 -0.001661188 -0.002603992 -0.002774966 1000
lala 10 0.6 1 first 8 1 228 5 2.25 0.659997701644897 1 0 1 0 -0.002541783 -0.002326021 -0.002399842 1000 1000 1000 -0.002541783 -0.002326021 -0.002399842 1000 1000 1000 -0.002464499 -0.001933321 -0.001933266 -0.002004151 -0.00212102 1000 -0.002464499 -0.001933321 -0.001933266 -0.002004151 -0.00212102 1000
lala 12 1.2 0 second 14 1 229 5 5.7 0.559997797012329 0 0 -1 1 -0.001306525 -0.001169746 -0.001321923 -0.002122429 -0.001409244 1000 -0.001306525 -0.001169746 -0.001321923 -0.002122429 -0.001409244 1000 -0.008826992 -0.01274507 -0.01313229 -0.01551503 -0.01707135 1000 -0.008826992 -0.01274507 -0.01313229 -0.01551503 -0.01707135 1000
lala 17 0.6 1 second 9 1 230 5 2.25 0.479997873306274 1 1 1 0 -0.01500667 -0.01443186 -0.01158466 -0.01080191 -0.01148932 1000 -0.01500667 -0.01443186 -0.01158466 -0.01080191 -0.01148932 1000 -0.01344541 -0.0128456 -0.01156601 -0.01152941 -0.01167001 1000 -0.01344541 -0.0128456 -0.01156601 -0.01152941 -0.01167001 1000
lala 18 0.3 1 first 9 1 231 5 1.95 0.939997434616089 1 1 1 1 -0.01593282 -0.0161586 -0.01469873 1000 1000 1000 -0.01593282 -0.0161586 -0.01469873 1000 1000 1000 -0.006967258 -0.006483518 -0.006319932 -0.006283539 -0.006513273 1000 -0.006967258 -0.006483518 -0.006319932 -0.006283539 -0.006513273 1000
lala 11 0.3 1 first 8 1 232 5 1.95 0.61999773979187 1 0 1 1 -0.007844083 -0.007105961 -0.007120988 1000 1000 1000 -0.007844083 -0.007105961 -0.007120988 1000 1000 1000 -0.007250484 -0.007572198 -0.007370402 -0.007131947 -0.006877459 1000 -0.007250484 -0.007572198 -0.007370402 -0.007131947 -0.006877459 1000
lala 11 1.2 0 first 5 1 233 6 4.380001 0.459997892379761 -1 1 -1 1 -0.008318384 -0.007526062 -0.006999955 1000 1000 1000 -0.008318384 -0.007526062 -0.006999955 1000 1000 1000 -0.006305113 -0.006503562 -0.007060266 -0.007079582 -0.006992245 1000 -0.006305113 -0.006503562 -0.007060266 -0.007079582 -0.006992245 1000
lala 12 1.2 1 second 5 1 234 6 5.580001 0.259998083114624 -1 1 1 1 -0.006067644 -0.006530444 -0.006811736 -0.00676809 -0.006982921 1000 -0.006067644 -0.006530444 -0.006811736 -0.00676809 -0.006982921 1000 -0.007048425 -0.00556693 -0.006007073 -0.007274806 -0.006811017 1000 -0.007048425 -0.00556693 -0.006007073 -0.007274806 -0.006811017 1000
lala 17 0.0046875 0 first 16 1 235 6 3.981563 0.299998044967651 0 0 -1 0 -0.006996681 -0.006676165 -0.006712893 1000 1000 1000 -0.006996681 -0.006676165 -0.006712893 1000 1000 1000 -0.00659886 -0.005874441 -0.006124296 -0.006523302 -0.006278347 1000 -0.00659886 -0.005874441 -0.006124296 -0.006523302 -0.006278347 1000
lala 13 0.075 0 second 12 1 236 4 3.015 0.359997987747192 0 0 -1 0 -0.006042895 -0.00673256 -0.006365632 -0.005793868 -0.005646584 1000 -0.006042895 -0.00673256 -0.006365632 -0.005793868 -0.005646584 1000 -0.005797006 -0.005912016 -0.006710216 -0.006422541 -0.005760486 1000 -0.005797006 -0.005912016 -0.006710216 -0.006422541 -0.005760486 1000
lala 19 0.3 1 second 9 1 237 5 1.65 0.679997682571411 1 1 1 1 -0.007836388 -0.008865156 -0.01185903 -0.01323156 -0.01239185 1000 -0.007836388 -0.008865156 -0.01185903 -0.01323156 -0.01239185 1000 -0.006628697 -0.008086659 -0.009380737 -0.008709907 -0.009180625 1000 -0.006628697 -0.008086659 -0.009380737 -0.008709907 -0.009180625 1000
lala 10 2.4 0 first 2 1 238 5 1.65 0.219998121261597 -1 0 -1 0 -0.01020374 -0.01074718 -0.01188812 1000 1000 1000 -0.01020374 -0.01074718 -0.01188812 1000 1000 1000 -0.009994452 -0.01019187 -0.01026226 -0.01020344 -0.01026683 1000 -0.009994452 -0.01019187 -0.01026226 -0.01020344 -0.01026683 1000
lala 13 0.6 0 first 15 1 239 5 2.25 0.39999794960022 0 1 -1 0 -0.009707529 -0.009168458 -0.008903683 1000 1000 1000 -0.009707529 -0.009168458 -0.008903683 1000 1000 1000 -0.008595034 -0.00877699 -0.008710866 -0.008373574 -0.008044877 1000 -0.008595034 -0.00877699 -0.008710866 -0.008373574 -0.008044877 1000
lala 12 0.6 1 second 7 1 240 4 3.52 0.539997816085815 1 1 1 0 -0.008423852 -0.008271801 -0.008031752 -0.007517799 -0.007367156 1000 -0.008423852 -0.008271801 -0.008031752 -0.007517799 -0.007367156 1000 -0.009005502 -0.007474469 -0.007231667 -0.009453295 -0.01035232 1000 -0.009005502 -0.007474469 -0.007231667 -0.009453295 -0.01035232 1000
lala 18 0.0046875 0 first 16 1 241 6 3.98625 0.639997720718384 0 0 -1 1 -0.007828361 -0.007304995 -0.009947265 1000 1000 1000 -0.007828361 -0.007304995 -0.009947265 1000 1000 1000 -0.008768396 -0.00756639 -0.007153289 -0.00813229 -0.009004378 1000 -0.008768396 -0.00756639 -0.007153289 -0.00813229 -0.009004378 1000
lala 13 0.3 1 second 0 1 242 4 3.24 0.339998006820679 -1 0 1 0 -0.01031246 -0.0100019 -0.01014 -0.01059713 -0.009979303 1000 -0.01031246 -0.0100019 -0.01014 -0.01059713 -0.009979303 1000 -0.009502922 -0.009673371 -0.009755434 -0.009872781 -0.01015028 1000 -0.009502922 -0.009673371 -0.009755434 -0.009872781 -0.01015028 1000
lala 13 1.2 1 second 11 1 243 6 4.98 0.379997968673706 1 1 1 0 -0.009348009 -0.00887744 -0.009330492 -0.009707396 -0.009725649 1000 -0.009348009 -0.00887744 -0.009330492 -0.009707396 -0.009725649 1000 -0.01039549 -0.01061011 -0.01009084 -0.009908468 -0.01027024 1000 -0.01039549 -0.01061011 -0.01009084 -0.009908468 -0.01027024 1000
lala 15 0.15 1 first 10 1 244 6 3.33 0.659997701644897 1 0 1 0 -0.01055282 -0.00997152 -0.009706694 1000 1000 1000 -0.01055282 -0.00997152 -0.009706694 1000 1000 1000 -0.009634649 -0.009241628 -0.009162016 -0.009315036 -0.009254655 1000 -0.009634649 -0.009241628 -0.009162016 -0.009315036 -0.009254655 1000
lala 12 0.3 0 second 8 1 245 5 1.65 0.519997835159302 1 0 -1 0 -0.009498531 -0.009469178 -0.009763812 -0.01072197 -0.01070038 1000 -0.009498531 -0.009469178 -0.009763812 -0.01072197 -0.01070038 1000 -0.009588352 -0.008252472 -0.00774435 -0.008924691 -0.009637621 1000 -0.009588352 -0.008252472 -0.00774435 -0.008924691 -0.009637621 1000
lala 12 0.3 0 second 17 1 246 6 2.280001 0.359997987747192 0 1 -1 0 -0.00949968 -0.008660006 -0.008616697 -0.008461582 -0.007287133 1000 -0.00949968 -0.008660006 -0.008616697 -0.008461582 -0.007287133 1000 -0.009028442 -0.008331592 -0.008020441 -0.00732285 -0.008312896 1000 -0.009028442 -0.008331592 -0.008020441 -0.00732285 -0.008312896 1000
lala 13 0.6 1 second 14 1 247 5 6.3 0.379997968673706 0 0 1 1 -0.01517025 -0.01131957 -0.01053799 -0.01270466 -0.01344674 1000 -0.01517025 -0.01131957 -0.01053799 -0.01270466 -0.01344674 1000 -0.01140961 -0.01251787 -0.01093408 -0.01052547 -0.01299751 1000 -0.01140961 -0.01251787 -0.01093408 -0.01052547 -0.01299751 1000
lala 8 1.2 0 second 13 1 248 4 1.720001 0.299998044967651 0 1 -1 1 -0.009764236 -0.008206979 -0.01059048 -0.01247213 -0.01257117 1000 -0.009764236 -0.008206979 -0.01059048 -0.01247213 -0.01257117 1000 -0.01310464 -0.01183667 -0.01069348 -0.01267445 -0.01298986 1000 -0.01310464 -0.01183667 -0.01069348 -0.01267445 -0.01298986 1000
lala 20 0.3 0 first 9 1 249 5 1.65 0.419997930526733 1 1 -1 0 -0.01149102 -0.01119108 -0.01078863 1000 1000 1000 -0.01149102 -0.01119108 -0.01078863 1000 1000 1000 -0.007302554 -0.006483856 -0.007606658 -0.008157861 -0.00750491 1000 -0.007302554 -0.006483856 -0.007606658 -0.008157861 -0.00750491 1000
lala 13 0.15 1 second 8 1 250 5 1.8 0.539997816085815 1 0 1 0 -0.0008422226 -0.0008035788 -0.003130597 -0.002751044 -0.001104758 1000 -0.0008422226 -0.0008035788 -0.003130597 -0.002751044 -0.001104758 1000 -0.003602248 -0.002991273 -0.002729037 -0.002769482 -0.003042792 1000 -0.003602248 -0.002991273 -0.002729037 -0.002769482 -0.003042792 1000
lala 9 1.2 1 first 13 1 251 4 2.920001 0.679997682571411 0 1 1 0 -0.002867542 -0.002476432 -0.002355332 1000 1000 1000 -0.002867542 -0.002476432 -0.002355332 1000 1000 1000 -0.002370416 -0.002519609 -0.002690016 -0.002193913 -0.002184875 1000 -0.002370416 -0.002519609 -0.002690016 -0.002193913 -0.002184875 1000
lala 19 0.3 0 first 1 1 252 4 2.770001 0.39999794960022 -1 1 -1 0 -0.002868102 -0.002483969 -0.002047256 1000 1000 1000 -0.002868102 -0.002483969 -0.002047256 1000 1000 1000 -0.00156862 -0.001632618 -0.002053601 -0.001513383 -0.00122988 1000 -0.00156862 -0.001632618 -0.002053601 -0.001513383 -0.00122988 1000
lala 14 0.3 0 second 15 1 253 5 2.55 0.339998006820679 0 1 -1 1 -0.001680344 -0.001571971 -0.001756905 -0.0018769 -0.002123351 1000 -0.001680344 -0.001571971 -0.001756905 -0.0018769 -0.002123351 1000 -0.002041124 -0.002052947 -0.002028949 -0.0019245 -0.001774988 1000 -0.002041124 -0.002052947 -0.002028949 -0.0019245 -0.001774988 1000
lala 14 0.3 1 second 14 1 254 5 6 0.359997987747192 0 0 1 0 -0.006502912 -0.006318883 -0.00597327 -0.006479593 -0.006068932 1000 -0.006502912 -0.006318883 -0.00597327 -0.006479593 -0.006068932 1000 -0.006514763 -0.007193474 -0.007611015 -0.007279897 -0.007294521 1000 -0.006514763 -0.007193474 -0.007611015 -0.007279897 -0.007294521 1000
lala 14 0.6 0 second 11 1 255 6 4.38 0.379997968673706 1 1 -1 1 -0.007041652 -0.007047428 -0.006598381 -0.005716638 -0.006457193 1000 -0.007041652 -0.007047428 -0.006598381 -0.005716638 -0.006457193 1000 -0.007587063 -0.008057585 -0.008513912 -0.00844976 -0.009113477 1000 -0.007587063 -0.008057585 -0.008513912 -0.00844976 -0.009113477 1000
lala 19 0.0046875 0 second 16 1 256 6 3.990938 0.299998044967651 0 0 -1 1 -0.009629774 -0.008781678 -0.009545519 -0.01038857 -0.01103122 1000 -0.009629774 -0.008781678 -0.009545519 -0.01038857 -0.01103122 1000 -0.01015897 -0.009076897 -0.009092249 -0.01044034 -0.009728979 1000 -0.01015897 -0.009076897 -0.009092249 -0.01044034 -0.009728979 1000
lala 15 0.3 1 first 11 1 257 6 4.68 0.179998159408569 1 1 1 1 -0.01250791 -0.01381665 -0.01219782 1000 1000 1000 -0.01250791 -0.01381665 -0.01219782 1000 1000 1000 -0.01357671 -0.01025727 -0.01007981 -0.01235788 -0.01129181 1000 -0.01357671 -0.01025727 -0.01007981 -0.01235788 -0.01129181 1000
lala 14 0.0375 0 second 12 1 258 4 3.0525 0.259998083114624 0 0 -1 1 -0.01270111 -0.01280055 -0.01117784 -0.009723634 -0.009432332 1000 -0.01270111 -0.01280055 -0.01117784 -0.009723634 -0.009432332 1000 -0.01218136 -0.01090254 -0.01186326 -0.01273345 -0.01163331 1000 -0.01218136 -0.01090254 -0.01186326 -0.01273345 -0.01163331 1000
lala 14 0.3 1 second 0 1 259 4 2.94 0.359997987747192 -1 0 1 0 -0.007022162 -0.008014739 -0.01260056 -0.01194195 -0.01022361 1000 -0.007022162 -0.008014739 -0.01260056 -0.01194195 -0.01022361 1000 -0.01031688 -0.009894223 -0.009624428 -0.01025948 -0.00926959 1000 -0.01031688 -0.009894223 -0.009624428 -0.01025948 -0.00926959 1000
lala 13 0.15 0 first 17 1 260 6 2.430001 0.519997835159302 0 1 -1 1 -0.0102006 -0.01123358 -0.01268575 1000 1000 1000 -0.0102006 -0.01123358 -0.01268575 1000 1000 1000 -0.01019884 -0.01245764 -0.0102614 -0.0093358 -0.01120623 1000 -0.01019884 -0.01245764 -0.0102614 -0.0093358 -0.01120623 1000
lala 14 0.15 1 first 17 1 261 6 2.580001 0.499997854232788 0 1 1 1 -0.007217773 -0.00668469 -0.007512412 1000 1000 1000 -0.007217773 -0.00668469 -0.007512412 1000 1000 1000 -0.008637025 -0.008193392 -0.00556748 -0.007968279 -0.01156119 1000 -0.008637025 -0.008193392 -0.00556748 -0.007968279 -0.01156119 1000
lala 11 1.2 0 second 2 1 262 5 2.85 0.39999794960022 -1 0 -1 1 -0.009185314 -0.009513973 -0.0106965 -0.01127248 -0.007815206 1000 -0.009185314 -0.009513973 -0.0106965 -0.01127248 -0.007815206 1000 -0.008976803 -0.01015531 -0.01004689 -0.009560288 -0.009217614 1000 -0.008976803 -0.01015531 -0.01004689 -0.009560288 -0.009217614 1000
lala 15 0.6 0 first 0 1 263 4 2.34 0.419997930526733 -1 0 -1 1 -0.01090069 -0.01056482 -0.01087139 1000 1000 1000 -0.01090069 -0.01056482 -0.01087139 1000 1000 1000 -0.01047186 -0.010848 -0.01032734 -0.01020707 -0.01016538 1000 -0.01047186 -0.010848 -0.01032734 -0.01020707 -0.01016538 1000
lala 15 0.3 1 second 14 1 264 5 5.699999 0.219998121261597 0 0 1 0 -0.009044418 -0.008533019 -0.009163596 -0.009455374 -0.009926421 1000 -0.009044418 -0.008533019 -0.009163596 -0.009455374 -0.009926421 1000 -0.00999235 -0.009694403 -0.009491339 -0.00927291 -0.009151218 1000 -0.00999235 -0.009694403 -0.009491339 -0.00927291 -0.009151218 1000
lala 15 1.2 0 first 6 1 265 4 1.32 0.419997930526733 1 0 -1 1 -0.00961135 -0.009133901 -0.009391499 1000 1000 1000 -0.00961135 -0.009133901 -0.009391499 1000 1000 1000 -0.01047511 -0.007288198 -0.007402975 -0.009062626 -0.008878054 1000 -0.01047511 -0.007288198 -0.007402975 -0.009062626 -0.008878054 1000
lala 19 0.009375 0 first 4 1 266 6 5.225625 0.299998044967651 -1 0 -1 0 -0.00936152 -0.008955543 -0.008494916 1000 1000 1000 -0.00936152 -0.008955543 -0.008494916 1000 1000 1000 -0.008809097 -0.008888733 -0.009053128 -0.009244978 -0.009966952 1000 -0.008809097 -0.008888733 -0.009053128 -0.009244978 -0.009966952 1000
lala 16 0.3 1 second 14 1 267 5 5.399999 0.419997930526733 0 0 1 1 -0.008345054 -0.008012772 -0.008264728 -0.007889261 -0.007659509 1000 -0.008345054 -0.008012772 -0.008264728 -0.007889261 -0.007659509 1000 -0.008192644 -0.008189427 -0.008524214 -0.008529328 -0.008432764 1000 -0.008192644 -0.008189427 -0.008524214 -0.008529328 -0.008432764 1000
lala 15 0.3 0 first 15 1 268 5 2.85 0.23999810218811 0 1 -1 0 -0.008120483 -0.008314688 -0.008000558 1000 1000 1000 -0.008120483 -0.008314688 -0.008000558 1000 1000 1000 -0.008422471 -0.008300788 -0.008234936 -0.008391638 -0.007791638 1000 -0.008422471 -0.008300788 -0.008234936 -0.008391638 -0.007791638 1000
lala 10 0.6 1 second 13 1 269 4 2.320001 0.01999831199646 0 1 1 0 -0.007429494 -0.007870183 -0.008040613 -0.007730598 -0.007171463 1000 -0.007429494 -0.007870183 -0.008040613 -0.007730598 -0.007171463 1000 -0.007323277 -0.007045296 -0.007524931 -0.007606784 -0.007116494 1000 -0.007323277 -0.007045296 -0.007524931 -0.007606784 -0.007116494 1000
lala 16 0.6 1 first 3 1 270 5 3.95 0.499997854232788 -1 1 1 1 -0.007614793 -0.00705389 -0.007723078 1000 1000 1000 -0.007614793 -0.00705389 -0.007723078 1000 1000 1000 -0.009624773 -0.009616144 -0.009574556 -0.008977942 -0.00922148 1000 -0.009624773 -0.009616144 -0.009574556 -0.008977942 -0.00922148 1000
lala 21 0.15 0 first 9 1 271 5 1.8 0.379997968673706 1 1 -1 0 -0.011527 -0.01153655 -0.009968944 1000 1000 1000 -0.011527 -0.01153655 -0.009968944 1000 1000 1000 -0.009175345 -0.01129044 -0.01166795 -0.01204875 -0.01112955 1000 -0.009175345 -0.01129044 -0.01166795 -0.01204875 -0.01112955 1000
lala 13 0.6 1 second 5 1 272 6 4.980001 0.319998025894165 -1 1 1 0 -0.01507966 -0.01335208 -0.01221023 -0.0105223 -0.01346583 1000 -0.01507966 -0.01335208 -0.01221023 -0.0105223 -0.01346583 1000 -0.01256585 -0.01559699 -0.01629461 -0.01504763 -0.01519798 1000 -0.01256585 -0.01559699 -0.01629461 -0.01504763 -0.01519798 1000
lala 13 1.2 1 second 7 1 273 4 2.32 1.47999691963196 1 1 1 1 -0.009511657 -0.01232353 -0.01719993 -0.01531832 -0.01375254 1000 -0.009511657 -0.01232353 -0.01719993 -0.01531832 -0.01375254 1000 -0.02327375 -0.02257192 -0.02284065 -0.02389028 -0.0240186 1000 -0.02327375 -0.02257192 -0.02284065 -0.02389028 -0.0240186 1000
lala 16 0.075 0 first 10 1 274 6 3.255 0.23999810218811 1 0 -1 0 0.00167826 -0.002515908 -0.007169527 1000 1000 1000 0.00167826 -0.002515908 -0.007169527 1000 1000 1000 -0.005101232 -0.004814304 -0.005166929 -0.005635668 -0.005548368 1000 -0.005101232 -0.004814304 -0.005166929 -0.005635668 -0.005548368 1000
lala 14 0.075 1 second 8 1 275 5 1.725 0.359997987747192 1 0 1 1 0.000576089 -0.00158979 -0.003669773 -0.004122483 -0.002510057 1000 0.000576089 -0.00158979 -0.003669773 -0.004122483 -0.002510057 1000 -0.003046497 -0.003283117 -0.004131802 -0.005302855 -0.005105464 1000 -0.003046497 -0.003283117 -0.004131802 -0.005302855 -0.005105464 1000
lala 17 0.3 0 second 3 1 276 5 3.65 0.839997529983521 -1 1 -1 0 -0.003052189 -0.002922452 -0.002893554 -0.00315598 -0.003268244 1000 -0.003052189 -0.002922452 -0.002893554 -0.00315598 -0.003268244 1000 -0.001499612 -0.0009584743 -0.0008302326 -0.001060888 -0.001315011 1000 -0.001499612 -0.0009584743 -0.0008302326 -0.001060888 -0.001315011 1000
lala 14 0.6 1 second 5 1 277 6 4.380001 1.89999675750732 -1 1 1 1 -0.0009877505 -0.000826446 -0.001198705 -0.000896773 -0.0006692624 1000 -0.0009877505 -0.000826446 -0.001198705 -0.000896773 -0.0006692624 1000 -0.0004706429 -0.0003826582 -0.0004007153 -0.0007168031 -0.001138619 1000 -0.0004706429 -0.0003826582 -0.0004007153 -0.0007168031 -0.001138619 1000
lala 22 0.15 0 first 9 1 278 5 1.95 0.39999794960022 1 1 -1 0 -0.0001129252 0.0004051045 0.0008090604 1000 1000 1000 -0.0001129252 0.0004051045 0.0008090604 1000 1000 1000 0.0004867105 -0.0002714034 -0.000656766 -0.0007158606 -0.0006819923 1000 0.0004867105 -0.0002714034 -0.000656766 -0.0007158606 -0.0006819923 1000
lala 15 0.075 0 second 17 1 279 6 2.505001 0.359997987747192 0 1 -1 1 -0.001097269 -0.001241531 -0.001429681 -0.001481047 -0.001645413 1000 -0.001097269 -0.001241531 -0.001429681 -0.001481047 -0.001645413 1000 -0.0009951326 -0.001075366 -0.001011039 -0.001148459 -0.001097912 1000 -0.0009951326 -0.001075366 -0.001011039 -0.001148459 -0.001097912 1000
lala 17 0.6 1 second 14 1 280 5 4.799999 0.559997797012329 0 0 1 1 -0.001142674 -0.001016952 -0.0009922258 -0.001391428 -0.001324693 1000 -0.001142674 -0.001016952 -0.0009922258 -0.001391428 -0.001324693 1000 -0.000514425 -0.0005574434 -0.001001814 -0.0009983816 -0.00105425 1000 -0.000514425 -0.0005574434 -0.001001814 -0.0009983816 -0.00105425 1000
lala 16 0.3 0 second 0 1 281 4 2.64 0.559997797012329 -1 0 -1 0 -0.001301396 -0.0005957024 0.0002373747 0.0004299267 0.0001191408 1000 -0.001301396 -0.0005957024 0.0002373747 0.0004299267 0.0001191408 1000 -0.0006208952 -0.0008124562 -0.001005096 -0.0006069452 -0.0004507898 1000 -0.0006208952 -0.0008124562 -0.001005096 -0.0006069452 -0.0004507898 1000
lala 20 0.0046875 1 first 4 1 282 6 5.230312 0.499997854232788 -1 0 1 0 -0.001375908 -0.0009624026 -0.0007024996 1000 1000 1000 -0.001375908 -0.0009624026 -0.0007024996 1000 1000 1000 0.0008845337 5.778607E-05 -0.002202666 -0.002539702 -0.001816942 1000 0.0008845337 5.778607E-05 -0.002202666 -0.002539702 -0.001816942 1000
lala 17 0.0375 1 first 10 1 283 6 3.2925 0.61999773979187 1 0 1 1 -0.002932398 -0.00345627 -0.003176661 1000 1000 1000 -0.002932398 -0.00345627 -0.003176661 1000 1000 1000 -0.004440804 -0.003095147 -0.003564932 -0.005937 -0.005654481 1000 -0.004440804 -0.003095147 -0.003564932 -0.005937 -0.005654481 1000
lala 23 0.15 1 first 9 1 284 5 2.1 0.219998121261597 1 1 1 0 -0.006477849 -0.007481812 -0.007812357 1000 1000 1000 -0.006477849 -0.007481812 -0.007812357 1000 1000 1000 -0.006292637 -0.006426965 -0.006977457 -0.006645305 -0.00648934 1000 -0.006292637 -0.006426965 -0.006977457 -0.006645305 -0.00648934 1000
lala 24 0.075 0 second 9 1 285 5 2.025 0.23999810218811 1 1 -1 1 -0.00714699 -0.006846658 -0.007158588 -0.007302146 -0.006820606 1000 -0.00714699 -0.006846658 -0.007158588 -0.007302146 -0.006820606 1000 -0.005975112 -0.005878187 -0.005895579 -0.005945688 -0.005568124 1000 -0.005975112 -0.005878187 -0.005895579 -0.005945688 -0.005568124 1000
lala 17 0.3 0 second 0 1 286 4 2.94 0.419997930526733 -1 0 -1 0 -0.006394651 -0.006303731 -0.006266895 -0.00614172 -0.006372426 1000 -0.006394651 -0.006303731 -0.006266895 -0.00614172 -0.006372426 1000 -0.006257448 -0.0062388 -0.006200351 -0.006269384 -0.006323168 1000 -0.006257448 -0.0062388 -0.006200351 -0.006269384 -0.006323168 1000
lala 15 0.0375 1 second 12 1 287 4 3.09 0.419997930526733 0 0 1 1 -0.00826918 -0.00781324 -0.007696035 -0.007955411 -0.007791433 1000 -0.00826918 -0.00781324 -0.007696035 -0.007955411 -0.007791433 1000 -0.007490555 -0.008147761 -0.008570384 -0.00912446 -0.009798433 1000 -0.007490555 -0.008147761 -0.008570384 -0.00912446 -0.009798433 1000
lala 16 0.3 0 second 15 1 288 5 3.15 0.139998197555542 0 1 -1 1 -0.01128265 -0.01272414 -0.01424953 -0.01341422 -0.01218814 1000 -0.01128265 -0.01272414 -0.01424953 -0.01341422 -0.01218814 1000 -0.0121552 -0.01349244 -0.01087416 -0.00966093 -0.01348959 1000 -0.0121552 -0.01349244 -0.01087416 -0.00966093 -0.01348959 1000
lala 16 0.0375 1 second 17 1 289 6 2.542501 0.379997968673706 0 1 1 1 -0.01309523 -0.009004338 -0.008569214 -0.01096885 -0.0115788 1000 -0.01309523 -0.009004338 -0.008569214 -0.01096885 -0.0115788 1000 -0.007180294 -0.01072463 -0.01424172 -0.01267418 -0.008805556 1000 -0.007180294 -0.01072463 -0.01424172 -0.01267418 -0.008805556 1000
lala 20 0.15 1 second 1 1 290 4 2.920001 0.439997911453247 -1 1 1 0 -0.01092619 -0.01017329 -0.01046213 -0.01071427 -0.01059746 1000 -0.01092619 -0.01017329 -0.01046213 -0.01071427 -0.01059746 1000 -0.01032729 -0.01033084 -0.01011955 -0.01008767 -0.01020218 1000 -0.01032729 -0.01033084 -0.01011955 -0.01008767 -0.01020218 1000
lala 11 0.6 0 second 13 1 291 4 1.720001 0.359997987747192 0 1 -1 0 -0.01076525 -0.01091062 -0.01059313 -0.01039561 -0.01065417 1000 -0.01076525 -0.01091062 -0.01059313 -0.01039561 -0.01065417 1000 -0.009631845 -0.009092376 -0.008604491 -0.008396435 -0.008191409 1000 -0.009631845 -0.009092376 -0.008604491 -0.008396435 -0.008191409 1000
lala 16 0.6 1 second 6 1 292 4 1.92 1.19999718666077 1 0 1 1 -0.01730613 -0.01660897 -0.01529134 -0.01315868 -0.01178605 1000 -0.01730613 -0.01660897 -0.01529134 -0.01315868 -0.01178605 1000 -0.001007386 -0.001250164 0.0001291833 -0.002603001 -0.005610961 1000 -0.001007386 -0.001250164 0.0001291833 -0.002603001 -0.005610961 1000
lala 21 0.00234375 1 second 4 1 293 6 5.227969 0.439997911453247 -1 0 1 0 -0.01038555 -0.009979191 -0.009879852 -0.01047566 -0.0101149 1000 -0.01038555 -0.009979191 -0.009879852 -0.01047566 -0.0101149 1000 -0.009411791 -0.009324555 -0.008924933 -0.008715538 -0.009079431 1000 -0.009411791 -0.009324555 -0.008924933 -0.008715538 -0.009079431 1000
lala 17 0.6 0 second 15 1 294 5 3.75 0.419997930526733 0 1 -1 1 -0.0090122 -0.00940878 -0.009244766 -0.008764388 -0.008555965 1000 -0.0090122 -0.00940878 -0.009244766 -0.008764388 -0.008555965 1000 -0.008667897 -0.00799848 -0.008100908 -0.008327729 -0.008485197 1000 -0.008667897 -0.00799848 -0.008100908 -0.008327729 -0.008485197 1000
lala 18 0.01875 1 first 10 1 295 6 3.27375 0.459997892379761 1 0 1 0 -0.009569088 -0.009391895 -0.008733002 1000 1000 1000 -0.009569088 -0.009391895 -0.008733002 1000 1000 1000 -0.007741882 -0.007558396 -0.007750993 -0.007823218 -0.007600035 1000 -0.007741882 -0.007558396 -0.007750993 -0.007823218 -0.007600035 1000
lala 21 0.075 1 first 1 1 296 4 2.845001 0.299998044967651 -1 1 1 0 -0.007589443 -0.007442408 -0.007647384 1000 1000 1000 -0.007589443 -0.007442408 -0.007647384 1000 1000 1000 -0.007210171 -0.007252164 -0.007831919 -0.007341417 -0.007007843 1000 -0.007210171 -0.007252164 -0.007831919 -0.007341417 -0.007007843 1000
lala 14 2.4 0 first 7 1 297 4 1.32 0.219998121261597 1 1 -1 1 -0.008607587 -0.007974814 -0.007467956 1000 1000 1000 -0.008607587 -0.007974814 -0.007467956 1000 1000 1000 -0.007539995 -0.00742445 -0.007491166 -0.005473624 -0.004318616 1000 -0.007539995 -0.00742445 -0.007491166 -0.005473624 -0.004318616 1000
lala 18 0.3 0 second 0 1 298 4 3.24 0.0999982357025146 -1 0 -1 1 -0.01072034 -0.009761972 -0.009003691 -0.009121145 -0.009178512 1000 -0.01072034 -0.009761972 -0.009003691 -0.009121145 -0.009178512 1000 -0.01448708 -0.01434909 -0.01392619 -0.01372852 -0.0129649 1000 -0.01448708 -0.01434909 -0.01392619 -0.01372852 -0.0129649 1000
lala 18 1.2 1 first 15 1 299 5 4.95 0.01999831199646 0 1 1 1 -0.01228261 -0.01295487 -0.01322754 1000 1000 1000 -0.01228261 -0.01295487 -0.01322754 1000 1000 1000 -0.01417354 -0.014019 -0.0139597 -0.013868 -0.01374115 1000 -0.01417354 -0.014019 -0.0139597 -0.013868 -0.01374115 1000
lala 17 0.3 0 second 6 1 300 4 1.62 0.479997873306274 1 0 -1 0 -0.00823834 -0.006053607 -0.004666981 -0.004639487 -0.004315793 1000 -0.00823834 -0.006053607 -0.004666981 -0.004639487 -0.004315793 1000 -0.00493497 -0.005344038 -0.005616101 -0.005836012 -0.005990641 1000 -0.00493497 -0.005344038 -0.005616101 -0.005836012 -0.005990641 1000
lala 12 1.2 0 first 2 1 301 5 4.05 0.39999794960022 -1 0 -1 1 -0.007339775 -0.00713187 -0.007213502 1000 1000 1000 -0.007339775 -0.00713187 -0.007213502 1000 1000 1000 -0.005733692 -0.006342964 -0.005965243 -0.006129017 -0.007050633 1000 -0.005733692 -0.006342964 -0.005965243 -0.006129017 -0.007050633 1000
lala 15 0.075 1 first 8 1 302 5 1.65 0.299998044967651 1 0 1 1 -0.005802173 -0.00576432 -0.005984143 1000 1000 1000 -0.005802173 -0.00576432 -0.005984143 1000 1000 1000 -0.00575499 -0.006108945 -0.006060762 -0.005799034 -0.005494286 1000 -0.00575499 -0.006108945 -0.006060762 -0.005799034 -0.005494286 1000
lala 19 0.6 0 second 0 1 303 4 3.84 0.499997854232788 -1 0 -1 1 -0.00475467 -0.004427137 -0.005192135 -0.005588711 -0.005525196 1000 -0.00475467 -0.004427137 -0.005192135 -0.005588711 -0.005525196 1000 -0.005641806 -0.005324635 -0.005538481 -0.005907514 -0.005943172 1000 -0.005641806 -0.005324635 -0.005538481 -0.005907514 -0.005943172 1000
lala 16 0.15 1 first 11 1 304 6 4.53 0.199998140335083 1 1 1 0 -0.004903405 -0.005135766 -0.005457302 1000 1000 1000 -0.004903405 -0.005135766 -0.005457302 1000 1000 1000 -0.004844396 -0.004650065 -0.004443454 -0.003967016 -0.004205193 1000 -0.004844396 -0.004650065 -0.004443454 -0.003967016 -0.004205193 1000
lala 17 0.01875 0 first 17 1 305 6 2.523751 0.259998083114624 0 1 -1 0 -0.006585577 -0.007095304 -0.006415174 1000 1000 1000 -0.006585577 -0.007095304 -0.006415174 1000 1000 1000 -0.004417411 -0.004611162 -0.004704001 -0.00485767 -0.004742599 1000 -0.004417411 -0.004611162 -0.004704001 -0.00485767 -0.004742599 1000
lala 22 0.00234375 1 first 4 1 306 6 5.225625 0.299998044967651 -1 0 1 0 -0.004613446 -0.004304681 -0.004006592 1000 1000 1000 -0.004613446 -0.004304681 -0.004006592 1000 1000 1000 -0.005039114 -0.00564558 -0.005514703 -0.004250347 -0.004436668 1000 -0.005039114 -0.00564558 -0.005514703 -0.004250347 -0.004436668 1000
lala 22 0.075 1 first 1 1 307 4 2.770001 0.259998083114624 -1 1 1 1 -0.005196727 -0.005437236 -0.005341466 1000 1000 1000 -0.005196727 -0.005437236 -0.005341466 1000 1000 1000 -0.005613285 -0.005700191 -0.004957678 -0.004597209 -0.005444834 1000 -0.005613285 -0.005700191 -0.004957678 -0.004597209 -0.005444834 1000
lala 25 0.0375 1 second 9 1 308 5 2.0625 0.699997663497925 1 1 1 1 -0.005925437 -0.004855433 -0.004314468 -0.005170136 -0.005979341 1000 -0.005925437 -0.004855433 -0.004314468 -0.005170136 -0.005979341 1000 -0.005351845 -0.005428008 -0.005377746 -0.004737991 -0.004736994 1000 -0.005351845 -0.005428008 -0.005377746 -0.004737991 -0.004736994 1000
lala 15 0.6 1 second 5 1 309 6 3.780001 0.339998006820679 -1 1 1 0 -0.004206554 -0.004174185 -0.00441746 -0.004528552 -0.004648297 1000 -0.004206554 -0.004174185 -0.00441746 -0.004528552 -0.004648297 1000 -0.004655827 -0.004908973 -0.005090489 -0.005136827 -0.005117964 1000 -0.004655827 -0.004908973 -0.005090489 -0.005136827 -0.005117964 1000
lala 12 0.3 0 second 13 1 310 4 2.020001 0.219998121261597 0 1 -1 1 -0.004363986 -0.0040392 -0.004379848 -0.004548771 -0.004589591 1000 -0.004363986 -0.0040392 -0.004379848 -0.004548771 -0.004589591 1000 -0.004282 -0.003884221 -0.003971378 -0.004799895 -0.005092883 1000 -0.004282 -0.003884221 -0.003971378 -0.004799895 -0.005092883 1000
