subject PestNr Step_Size_OnTrial Pest_Faster Pest_Interval Condition block trial velH velH_Pest Reaction_Time velH_Subject Start_Above Response_MotionEstimation RightOrLeftxRotations_first0 xRotations_first1 xRotations_first2 xRotations_first3 xRotations_first4 xRotations_first5 yRotations_first0 yRotations_first1 yRotations_first2 yRotations_first3 yRotations_first4 yRotations_first5 xRotations_second0 xRotations_second1 xRotations_second2 xRotations_second3 xRotations_second4 xRotations_second5 yRotations_second0 yRotations_second1 yRotations_second2 yRotations_second3 yRotations_second4 yRotations_second5
lala 1 1.2 1 second 17 1 1 6 7.98 0.659997701644897 0 1 1 1 -0.02681872 -0.02725234 -0.02546604 -0.02470761 -0.02622929 1000 -0.02681872 -0.02725234 -0.02546604 -0.02470761 -0.02622929 1000 -0.03340134 -0.03352549 -0.03461342 -0.0348674 -0.03447468 1000 -0.03340134 -0.03352549 -0.03461342 -0.0348674 -0.03447468 1000
lala 1 1.2 1 second 1 1 2 4 5.32 0.23999810218811 -1 1 1 1 -0.01395284 -0.01402234 -0.01372828 -0.01396084 -0.01449782 1000 -0.01395284 -0.01402234 -0.01372828 -0.01396084 -0.01449782 1000 -0.0159459 -0.0160425 -0.01603167 -0.01566057 -0.01579825 1000 -0.0159459 -0.0160425 -0.01603167 -0.01566057 -0.01579825 1000
lala 1 1.2 0 first 6 1 3 4 2.64 0.199998140335083 1 0 -1 1 -0.01529044 -0.01545579 -0.0153183 1000 1000 1000 -0.01529044 -0.01545579 -0.0153183 1000 1000 1000 -0.01463855 -0.01451166 -0.01421756 -0.01420491 -0.01449667 1000 -0.01463855 -0.01451166 -0.01421756 -0.01420491 -0.01449667 1000
lala 1 1.2 1 second 13 1 4 4 5.32 0.01999831199646 0 1 1 0 -0.014516 -0.01438986 -0.01396593 -0.01358535 -0.01377954 1000 -0.014516 -0.01438986 -0.01396593 -0.01358535 -0.01377954 1000 -0.01319051 -0.01302478 -0.01341837 -0.0130659 -0.01292259 1000 -0.01319051 -0.01302478 -0.01341837 -0.0130659 -0.01292259 1000
lala 2 1.2 1 second 13 1 5 4 4.12 0.199998140335083 0 1 1 0 -0.01290244 -0.01256046 -0.01232789 -0.01231648 -0.01243189 1000 -0.01290244 -0.01256046 -0.01232789 -0.01231648 -0.01243189 1000 -0.01197922 -0.01232922 -0.01239726 -0.01284224 -0.0134455 1000 -0.01197922 -0.01232922 -0.01239726 -0.01284224 -0.0134455 1000
lala 2 1.2 1 second 17 1 6 6 6.780001 0.279998064041138 0 1 1 0 -0.0123195 -0.01201439 -0.01195064 -0.01198622 -0.01268729 1000 -0.0123195 -0.01201439 -0.01195064 -0.01198622 -0.01268729 1000 -0.01155261 -0.01151448 -0.01154363 -0.01200428 -0.01138177 1000 -0.01155261 -0.01151448 -0.01154363 -0.01200428 -0.01138177 1000
lala 1 1.2 0 second 14 1 7 5 3.3 0.559997797012329 0 0 -1 1 -0.0106395 -0.01090194 -0.01114692 -0.01121661 -0.01093982 1000 -0.0106395 -0.01090194 -0.01114692 -0.01121661 -0.01093982 1000 -0.0107901 -0.01103105 -0.01110093 -0.01130819 -0.0112422 1000 -0.0107901 -0.01103105 -0.01110093 -0.01130819 -0.0112422 1000
lala 2 1.2 1 first 14 1 8 5 4.5 0.419997930526733 0 0 1 0 -0.008929099 -0.008681087 -0.009235825 1000 1000 1000 -0.008929099 -0.008681087 -0.009235825 1000 1000 1000 -0.009685026 -0.009330482 -0.009393184 -0.009412313 -0.009670274 1000 -0.009685026 -0.009330482 -0.009393184 -0.009412313 -0.009670274 1000
lala 1 1.2 0 first 8 1 9 5 3.3 2.25999641418457 1 0 -1 0 -0.008747979 -0.008738936 -0.009282903 1000 1000 1000 -0.008747979 -0.008738936 -0.009282903 1000 1000 1000 -0.01005789 -0.009957195 -0.009825116 -0.009801405 -0.00979051 1000 -0.01005789 -0.009957195 -0.009825116 -0.009801405 -0.00979051 1000
lala 1 1.2 1 second 12 1 10 4 2.64 0.159998178482056 0 0 1 1 -0.0112349 -0.01194724 -0.01196224 -0.01163899 -0.01110248 1000 -0.0112349 -0.01194724 -0.01196224 -0.01163899 -0.01110248 1000 -0.0116929 -0.01218774 -0.01232314 -0.01205056 -0.01173874 1000 -0.0116929 -0.01218774 -0.01232314 -0.01205056 -0.01173874 1000
lala 1 1.2 0 second 0 1 11 4 2.64 0.439997911453247 -1 0 -1 1 -0.01239683 -0.01230205 -0.0124766 -0.01250459 -0.0120468 1000 -0.01239683 -0.01230205 -0.0124766 -0.01250459 -0.0120468 1000 -0.01216392 -0.01226556 -0.01230892 -0.01269347 -0.0124873 1000 -0.01216392 -0.01226556 -0.01230892 -0.01269347 -0.0124873 1000
lala 1 1.2 1 second 7 1 12 4 5.32 0.499997854232788 1 1 1 0 -0.01343588 -0.01321488 -0.01269776 -0.0126984 -0.01293295 1000 -0.01343588 -0.01321488 -0.01269776 -0.0126984 -0.01293295 1000 -0.01307952 -0.01327281 -0.01322559 -0.01344316 -0.01343162 1000 -0.01307952 -0.01327281 -0.01322559 -0.01344316 -0.01343162 1000
lala 2 1.2 0 first 12 1 13 4 1.44 0.359997987747192 0 0 -1 0 -0.01453932 -0.01458078 -0.01470356 1000 1000 1000 -0.01453932 -0.01458078 -0.01470356 1000 1000 1000 -0.01340675 -0.0137863 -0.01379735 -0.01369697 -0.01414663 1000 -0.01340675 -0.0137863 -0.01379735 -0.01369697 -0.01414663 1000
lala 3 1.2 0 second 14 1 14 5 3.3 1.0999972820282 0 0 -1 1 -0.01388474 -0.01381531 -0.01370706 -0.01375904 -0.01360856 1000 -0.01388474 -0.01381531 -0.01370706 -0.01375904 -0.01360856 1000 -0.01363828 -0.01389289 -0.01438971 -0.01416483 -0.01460005 1000 -0.01363828 -0.01389289 -0.01438971 -0.01416483 -0.01460005 1000
lala 1 1.2 1 second 15 1 15 5 6.65 0.0599982738494873 0 1 1 1 -0.01489508 -0.01507935 -0.01446214 -0.01413539 -0.01403457 1000 -0.01489508 -0.01507935 -0.01446214 -0.01413539 -0.01403457 1000 -0.01454187 -0.01482722 -0.01507899 -0.01503675 -0.0149463 1000 -0.01454187 -0.01482722 -0.01507899 -0.01503675 -0.0149463 1000
lala 1 1.2 1 first 4 1 16 6 3.96 1.0999972820282 -1 0 1 1 -0.01487661 -0.01451002 -0.01414793 1000 1000 1000 -0.01487661 -0.01451002 -0.01414793 1000 1000 1000 -0.01413643 -0.01440769 -0.01463822 -0.0143388 -0.01427839 1000 -0.01413643 -0.01440769 -0.01463822 -0.0143388 -0.01427839 1000
lala 1 1.2 1 first 10 1 17 6 3.96 3.43999528884888 1 0 1 0 -0.01418679 -0.01426229 -0.01445433 1000 1000 1000 -0.01418679 -0.01426229 -0.01445433 1000 1000 1000 -0.0139876 -0.01465881 -0.01477929 -0.01485738 -0.01516951 1000 -0.0139876 -0.01465881 -0.01477929 -0.01485738 -0.01516951 1000
lala 2 1.2 0 first 1 1 18 4 4.12 0.579997777938843 -1 1 -1 1 -0.01098646 -0.01276721 -0.01665832 1000 1000 1000 -0.01098646 -0.01276721 -0.01665832 1000 1000 1000 -0.02659886 -0.02498602 -0.02365255 -0.02197011 -0.02143011 1000 -0.02659886 -0.02498602 -0.02365255 -0.02197011 -0.02143011 1000
lala 1 1.2 1 second 9 1 19 5 6.65 0.0999982357025146 1 1 1 1 -0.01931505 -0.02089545 -0.0209296 -0.02059815 -0.0203628 1000 -0.01931505 -0.02089545 -0.0209296 -0.02059815 -0.0203628 1000 -0.01955346 -0.01962144 -0.01934259 -0.01934788 -0.0196632 1000 -0.01955346 -0.01962144 -0.01934259 -0.01934788 -0.0196632 1000
lala 4 1.2 1 second 14 1 20 5 4.5 0.0599982738494873 0 0 1 0 -0.01739985 -0.016609 -0.01689032 -0.01747198 -0.01832598 1000 -0.01739985 -0.016609 -0.01689032 -0.01747198 -0.01832598 1000 -0.01943595 -0.01962879 -0.01971201 -0.01952158 -0.01970384 1000 -0.01943595 -0.01962879 -0.01971201 -0.01952158 -0.01970384 1000
lala 2 1.2 0 second 4 1 21 6 2.76 0.439997911453247 -1 0 -1 1 -0.01979838 -0.02006984 -0.0206608 -0.02036523 -0.01988345 1000 -0.01979838 -0.02006984 -0.0206608 -0.02036523 -0.01988345 1000 -0.02019044 -0.01997816 -0.01976673 -0.01973552 -0.02011297 1000 -0.02019044 -0.01997816 -0.01976673 -0.01973552 -0.02011297 1000
lala 3 1.2 0 second 12 1 22 4 2.64 1.49999690055847 0 0 -1 0 -0.01963013 -0.01902879 -0.01868297 -0.01854841 -0.01845942 1000 -0.01963013 -0.01902879 -0.01868297 -0.01854841 -0.01845942 1000 -0.01808051 -0.01793368 -0.01753486 -0.01721075 -0.01781064 1000 -0.01808051 -0.01793368 -0.01753486 -0.01721075 -0.01781064 1000
lala 3 1.2 1 second 1 1 23 4 5.32 0.0999982357025146 -1 1 1 1 -0.01671596 -0.01671898 -0.01676762 -0.01681438 -0.01651727 1000 -0.01671596 -0.01671898 -0.01676762 -0.01681438 -0.01651727 1000 -0.0165528 -0.01603605 -0.01580602 -0.01626602 -0.01673214 1000 -0.0165528 -0.01603605 -0.01580602 -0.01626602 -0.01673214 1000
lala 5 1.2 0 second 14 1 24 5 3.3 2.41999626159668 0 0 -1 0 -0.01659813 -0.01672452 -0.01656576 -0.01658758 -0.0170476 1000 -0.01659813 -0.01672452 -0.01656576 -0.01658758 -0.0170476 1000 -0.01795351 -0.01847482 -0.0181887 -0.01799365 -0.01794743 1000 -0.01795351 -0.01847482 -0.0181887 -0.01799365 -0.01794743 1000
lala 1 1.2 1 second 11 1 25 6 7.98 0.01999831199646 1 1 1 1 -0.01860569 -0.01869373 -0.01895688 -0.01904983 -0.01887447 1000 -0.01860569 -0.01869373 -0.01895688 -0.01904983 -0.01887447 1000 -0.0199781 -0.01971934 -0.0199912 -0.02002149 -0.02061474 1000 -0.0199781 -0.01971934 -0.0199912 -0.02002149 -0.02061474 1000
lala 4 1.2 1 first 12 1 26 4 3.84 1.11999726295471 0 0 1 1 -0.02092157 -0.020813 -0.02044791 1000 1000 1000 -0.02092157 -0.020813 -0.02044791 1000 1000 1000 -0.02013662 -0.01965047 -0.01947777 -0.01944434 -0.01959732 1000 -0.02013662 -0.01965047 -0.01947777 -0.01944434 -0.01959732 1000
lala 3 1.2 0 first 13 1 27 4 2.92 1.61999702453613 0 1 -1 1 -0.01964172 -0.01927062 -0.01892862 1000 1000 1000 -0.01964172 -0.01927062 -0.01892862 1000 1000 1000 -0.018857 -0.01865097 -0.01842583 -0.0185652 -0.01874238 1000 -0.018857 -0.01865097 -0.01842583 -0.0185652 -0.01874238 1000
lala 4 1.2 1 first 1 1 28 4 4.12 1.59999680519104 -1 1 1 1 -0.01914417 -0.01864386 -0.01839817 1000 1000 1000 -0.01914417 -0.01864386 -0.01839817 1000 1000 1000 -0.01748903 -0.0175559 -0.01753356 -0.01731857 -0.01716156 1000 -0.01748903 -0.0175559 -0.01753356 -0.01731857 -0.01716156 1000
lala 2 1.2 1 first 11 1 29 6 6.780001 0.259998083114624 1 1 1 1 -0.01709966 -0.01709121 -0.01732972 1000 1000 1000 -0.01709966 -0.01709121 -0.01732972 1000 1000 1000 -0.01632933 -0.01625491 -0.01614945 -0.01629395 -0.01661873 1000 -0.01632933 -0.01625491 -0.01614945 -0.01629395 -0.01661873 1000
lala 6 1.2 1 first 14 1 30 5 4.5 3.31999540328979 0 0 1 1 -0.0159718 -0.01594705 -0.01544229 1000 1000 1000 -0.0159718 -0.01594705 -0.01544229 1000 1000 1000 -0.01585951 -0.0165588 -0.01646255 -0.01571245 -0.01540308 1000 -0.01585951 -0.0165588 -0.01646255 -0.01571245 -0.01540308 1000
lala 3 1.2 1 first 17 1 31 6 5.580001 0.559997797012329 0 1 1 0 -0.01393119 -0.01373877 -0.01385912 1000 1000 1000 -0.01393119 -0.01373877 -0.01385912 1000 1000 1000 -0.0124866 -0.01250718 -0.01266832 -0.01262187 -0.0130396 1000 -0.0124866 -0.01250718 -0.01266832 -0.01262187 -0.0130396 1000
lala 1 1.2 0 first 2 1 32 5 3.3 0.499997854232788 -1 0 -1 0 -0.01286707 -0.01085665 -0.01052932 1000 1000 1000 -0.01286707 -0.01085665 -0.01052932 1000 1000 1000 -0.009947566 -0.009872006 -0.01076179 -0.01079362 -0.01008819 1000 -0.009947566 -0.009872006 -0.01076179 -0.01079362 -0.01008819 1000
lala 2 1.2 0 second 2 1 33 5 4.5 0.99999737739563 -1 0 -1 1 -0.01064685 -0.01059036 -0.01043879 -0.009635689 -0.008819249 1000 -0.01064685 -0.01059036 -0.01043879 -0.009635689 -0.008819249 1000 -0.009811265 -0.01012779 -0.01033684 -0.01099333 -0.01188756 1000 -0.009811265 -0.01012779 -0.01033684 -0.01099333 -0.01188756 1000
lala 2 1.2 0 first 10 1 34 6 2.76 0.439997911453247 1 0 -1 0 -0.01067827 -0.01019976 -0.01015408 1000 1000 1000 -0.01067827 -0.01019976 -0.01015408 1000 1000 1000 -0.01024635 -0.01034483 -0.01088539 -0.01073082 -0.01058848 1000 -0.01024635 -0.01034483 -0.01088539 -0.01073082 -0.01058848 1000
lala 3 1.2 0 first 10 1 35 6 3.96 0.559997797012329 1 0 -1 0 -0.0107107 -0.01017453 -0.01009735 1000 1000 1000 -0.0107107 -0.01017453 -0.01009735 1000 1000 1000 -0.009552686 -0.009937137 -0.009724858 -0.009918387 -0.01013498 1000 -0.009552686 -0.009937137 -0.009724858 -0.009918387 -0.01013498 1000
lala 2 1.2 0 first 0 1 36 4 3.84 3.37999534606934 -1 0 -1 1 -0.009845512 -0.009824254 -0.009607679 1000 1000 1000 -0.009845512 -0.009824254 -0.009607679 1000 1000 1000 -0.00941208 -0.009357622 -0.009521591 -0.009576245 -0.009623743 1000 -0.00941208 -0.009357622 -0.009521591 -0.009576245 -0.009623743 1000
lala 2 1.2 0 first 8 1 37 5 4.5 1.57999682426453 1 0 -1 0 -0.00913645 -0.008918284 -0.00869293 1000 1000 1000 -0.00913645 -0.008918284 -0.00869293 1000 1000 1000 -0.008786107 -0.008980782 -0.008683256 -0.008257207 -0.007976885 1000 -0.008786107 -0.008980782 -0.008683256 -0.008257207 -0.007976885 1000
lala 3 1.2 0 first 4 1 38 6 3.96 0.519997835159302 -1 0 -1 1 -0.007851901 -0.008638391 -0.008695431 1000 1000 1000 -0.007851901 -0.008638391 -0.008695431 1000 1000 1000 -0.008579687 -0.009256531 -0.008756211 -0.008672981 -0.008778382 1000 -0.008579687 -0.009256531 -0.008756211 -0.008672981 -0.008778382 1000
lala 4 1.2 1 second 13 1 39 4 4.12 0.39999794960022 0 1 1 1 -0.008833081 -0.008765589 -0.008842776 -0.0086836 -0.009054349 1000 -0.008833081 -0.008765589 -0.008842776 -0.0086836 -0.009054349 1000 -0.009619392 -0.009994861 -0.01019576 -0.01068896 -0.01091609 1000 -0.009619392 -0.009994861 -0.01019576 -0.01068896 -0.01091609 1000
lala 4 1.2 1 first 10 1 40 6 5.16 0.23999810218811 1 0 1 0 -0.01142137 -0.01106219 -0.0110289 1000 1000 1000 -0.01142137 -0.01106219 -0.0110289 1000 1000 1000 -0.01079617 -0.01052032 -0.01094494 -0.0114483 -0.01110067 1000 -0.01079617 -0.01052032 -0.01094494 -0.0114483 -0.01110067 1000
lala 4 1.2 1 second 17 1 41 6 4.380001 0.259998083114624 0 1 1 0 -0.01126106 -0.01090972 -0.01086813 -0.01090867 -0.01103763 1000 -0.01126106 -0.01090972 -0.01086813 -0.01090867 -0.01103763 1000 -0.01105051 -0.01165133 -0.01146457 -0.01172088 -0.01253199 1000 -0.01105051 -0.01165133 -0.01146457 -0.01172088 -0.01253199 1000
lala 5 1.2 0 first 17 1 42 6 3.180001 0.519997835159302 0 1 -1 1 -0.01269915 -0.01317088 -0.01269703 1000 1000 1000 -0.01269915 -0.01317088 -0.01269703 1000 1000 1000 -0.01392685 -0.0146044 -0.01461685 -0.01440827 -0.014429 1000 -0.01392685 -0.0146044 -0.01461685 -0.01440827 -0.014429 1000
lala 5 1.2 0 first 1 1 43 4 2.92 1.47999691963196 -1 1 -1 1 -0.01655534 -0.01636112 -0.01619735 1000 1000 1000 -0.01655534 -0.01636112 -0.01619735 1000 1000 1000 -0.01463759 -0.0150337 -0.01463002 -0.01387386 -0.01425941 1000 -0.01463759 -0.0150337 -0.01463002 -0.01387386 -0.01425941 1000
lala 6 1.2 0 first 1 1 44 4 4.12 1.55999684333801 -1 1 -1 0 -0.0153842 -0.01497206 -0.0146156 1000 1000 1000 -0.0153842 -0.01497206 -0.0146156 1000 1000 1000 -0.0185747 -0.01857028 -0.01838111 -0.01771682 -0.01763351 1000 -0.0185747 -0.01857028 -0.01838111 -0.01771682 -0.01763351 1000
lala 3 1.2 1 second 2 1 45 5 5.7 0.439997911453247 -1 0 1 1 -0.01943387 -0.01926634 -0.01944602 -0.01926642 -0.01863958 1000 -0.01943387 -0.01926634 -0.01944602 -0.01926642 -0.01863958 1000 -0.01902676 -0.01931437 -0.01971961 -0.01949145 -0.01911731 1000 -0.01902676 -0.01931437 -0.01971961 -0.01949145 -0.01911731 1000
lala 2 1.2 1 first 7 1 46 4 4.12 2.61999607086182 1 1 1 0 -0.01954003 -0.01876413 -0.01854342 1000 1000 1000 -0.01954003 -0.01876413 -0.01854342 1000 1000 1000 -0.01932038 -0.01865473 -0.01801524 -0.01785278 -0.0182058 1000 -0.01932038 -0.01865473 -0.01801524 -0.01785278 -0.0182058 1000
lala 5 1.2 1 second 10 1 47 6 3.96 1.11999726295471 1 0 1 1 -0.01886008 -0.01896558 -0.01848063 -0.01860685 -0.0192902 1000 -0.01886008 -0.01896558 -0.01848063 -0.01860685 -0.0192902 1000 -0.01937559 -0.01919905 -0.01899871 -0.01851121 -0.01846738 1000 -0.01937559 -0.01919905 -0.01899871 -0.01851121 -0.01846738 1000
lala 4 1.2 0 first 4 1 48 6 5.16 0.579997777938843 -1 0 -1 1 -0.01989212 -0.01935953 -0.01944064 1000 1000 1000 -0.01989212 -0.01935953 -0.01944064 1000 1000 1000 -0.01969333 -0.01892185 -0.01844268 -0.01907198 -0.01985033 1000 -0.01969333 -0.01892185 -0.01844268 -0.01907198 -0.01985033 1000
lala 5 1.2 1 first 13 1 49 4 2.92 1.03999733924866 0 1 1 0 -0.01954575 -0.02008983 -0.01940899 1000 1000 1000 -0.01954575 -0.02008983 -0.01940899 1000 1000 1000 -0.01906021 -0.01874624 -0.01899956 -0.01907015 -0.01857483 1000 -0.01906021 -0.01874624 -0.01899956 -0.01907015 -0.01857483 1000
lala 7 1.2 1 second 14 1 50 5 3.3 0.279998064041138 0 0 1 1 -0.01935126 -0.01896233 -0.01901707 -0.01993284 -0.02067363 1000 -0.01935126 -0.01896233 -0.01901707 -0.01993284 -0.02067363 1000 -0.02766769 -0.02859234 -0.02744658 -0.02541999 -0.02534019 1000 -0.02766769 -0.02859234 -0.02744658 -0.02541999 -0.02534019 1000
lala 8 1.2 0 first 14 1 51 5 2.1 0.539997816085815 0 0 -1 1 -0.01694728 -0.01627878 -0.01564502 1000 1000 1000 -0.01694728 -0.01627878 -0.01564502 1000 1000 1000 -0.01411254 -0.01461521 -0.01434269 -0.01441392 -0.01409174 1000 -0.01411254 -0.01461521 -0.01434269 -0.01441392 -0.01409174 1000
lala 1 1.2 1 second 5 1 52 6 7.98 0.359997987747192 -1 1 1 0 -0.01335611 -0.01319786 -0.01286391 -0.01312608 -0.0134782 1000 -0.01335611 -0.01319786 -0.01286391 -0.01312608 -0.0134782 1000 -0.01282101 -0.01201514 -0.01195879 -0.01248658 -0.01283515 1000 -0.01282101 -0.01201514 -0.01195879 -0.01248658 -0.01283515 1000
lala 9 1.2 0 second 14 1 53 5 3.3 2.93999576568604 0 0 -1 0 -0.01246448 -0.01246109 -0.0124055 -0.01266316 -0.01286437 1000 -0.01246448 -0.01246109 -0.0124055 -0.01266316 -0.01286437 1000 -0.012248 -0.01206052 -0.0117442 -0.0117574 -0.01240337 1000 -0.012248 -0.01206052 -0.0117442 -0.0117574 -0.01240337 1000
lala 3 1.2 1 second 0 1 54 4 5.04 0.01999831199646 -1 0 1 1 -0.01271015 -0.01281016 -0.01250391 -0.01262818 -0.01296813 1000 -0.01271015 -0.01281016 -0.01250391 -0.01262818 -0.01296813 1000 -0.01476603 -0.01506211 -0.0153723 -0.01580109 -0.01624029 1000 -0.01476603 -0.01506211 -0.0153723 -0.01580109 -0.01624029 1000
lala 5 1.2 0 second 12 1 55 4 2.64 0.499997854232788 0 0 -1 0 -0.01608673 -0.01576385 -0.01548221 -0.01522725 -0.0155382 1000 -0.01608673 -0.01576385 -0.01548221 -0.01522725 -0.0155382 1000 -0.01505022 -0.01508778 -0.01523302 -0.01498163 -0.01531241 1000 -0.01505022 -0.01508778 -0.01523302 -0.01498163 -0.01531241 1000
lala 2 1.2 1 first 5 1 56 6 6.780001 0.139998197555542 -1 1 1 0 -0.01668179 -0.0164729 -0.01627666 1000 1000 1000 -0.01668179 -0.0164729 -0.01627666 1000 1000 1000 -0.01535866 -0.01568387 -0.01619654 -0.01617895 -0.01610727 1000 -0.01535866 -0.01568387 -0.01619654 -0.01617895 -0.01610727 1000
lala 1 1.2 1 first 3 1 57 5 6.65 0.279998064041138 -1 1 1 1 -0.0172498 -0.0173719 -0.01692357 1000 1000 1000 -0.0172498 -0.0173719 -0.01692357 1000 1000 1000 -0.01621337 -0.01610162 -0.01587943 -0.01585759 -0.01618191 1000 -0.01621337 -0.01610162 -0.01587943 -0.01585759 -0.01618191 1000
lala 5 1.2 1 second 4 1 58 6 6.36 0.139998197555542 -1 0 1 1 -0.01541915 -0.01518277 -0.01540472 -0.015682 -0.0155645 1000 -0.01541915 -0.01518277 -0.01540472 -0.015682 -0.0155645 1000 -0.01526832 -0.01518688 -0.01518603 -0.01591017 -0.01570287 1000 -0.01526832 -0.01518688 -0.01518603 -0.01591017 -0.01570287 1000
lala 3 1.2 1 second 8 1 59 5 5.7 0.0999982357025146 1 0 1 0 -0.01577698 -0.0157451 -0.01626139 -0.01603156 -0.0160598 1000 -0.01577698 -0.0157451 -0.01626139 -0.01603156 -0.0160598 1000 -0.01565068 -0.01558034 -0.0158529 -0.01565779 -0.01554752 1000 -0.01565068 -0.01558034 -0.0158529 -0.01565779 -0.01554752 1000
lala 3 1.2 1 first 5 1 60 6 5.580001 0.0999982357025146 -1 1 1 1 -0.0161489 -0.01617972 -0.01664004 1000 1000 1000 -0.0161489 -0.01617972 -0.01664004 1000 1000 1000 -0.01581844 -0.01576445 -0.01565363 -0.01527726 -0.01516092 1000 -0.01581844 -0.01576445 -0.01565363 -0.01527726 -0.01516092 1000
lala 7 1.2 1 second 1 1 61 4 5.32 0.639997720718384 -1 1 1 1 -0.0153747 -0.0155402 -0.01523457 -0.01549175 -0.01550954 1000 -0.0153747 -0.0155402 -0.01523457 -0.01549175 -0.01550954 1000 -0.01468718 -0.01442945 -0.01454258 -0.01480239 -0.0150364 1000 -0.01468718 -0.01442945 -0.01454258 -0.01480239 -0.0150364 1000
lala 2 1.2 1 second 9 1 62 5 5.45 0.179998159408569 1 1 1 0 -0.0140297 -0.01379672 -0.01331741 -0.01387126 -0.0144551 1000 -0.0140297 -0.01379672 -0.01331741 -0.01387126 -0.0144551 1000 -0.01398849 -0.01407766 -0.01336989 -0.01318253 -0.0131416 1000 -0.01398849 -0.01407766 -0.01336989 -0.01318253 -0.0131416 1000
lala 8 1.2 1 second 1 1 63 4 4.12 0.159998178482056 -1 1 1 0 -0.01419651 -0.01351046 -0.01379251 -0.01434172 -0.01410454 1000 -0.01419651 -0.01351046 -0.01379251 -0.01434172 -0.01410454 1000 -0.0141978 -0.0137851 -0.01373555 -0.01341281 -0.0137586 1000 -0.0141978 -0.0137851 -0.01373555 -0.01341281 -0.0137586 1000
lala 6 1.2 0 second 13 1 64 4 1.72 0.459997892379761 0 1 -1 1 -0.01421827 -0.01451895 -0.014226 -0.01392908 -0.01398136 1000 -0.01421827 -0.01451895 -0.014226 -0.01392908 -0.01398136 1000 -0.01404687 -0.01375233 -0.01348099 -0.01369698 -0.01348151 1000 -0.01404687 -0.01375233 -0.01348099 -0.01369698 -0.01348151 1000
lala 1 1.2 0 second 16 1 65 6 3.96 1.31999707221985 0 0 -1 1 -0.01383089 -0.01396807 -0.01434609 -0.01412981 -0.01404577 1000 -0.01383089 -0.01396807 -0.01434609 -0.01412981 -0.01404577 1000 -0.01351463 -0.01382263 -0.0143631 -0.01427197 -0.01429749 1000 -0.01351463 -0.01382263 -0.0143631 -0.01427197 -0.01429749 1000
lala 3 1.2 1 second 11 1 66 6 5.580001 0.139998197555542 1 1 1 1 -0.01395106 -0.01413768 -0.013849 -0.01372324 -0.01355327 1000 -0.01395106 -0.01413768 -0.013849 -0.01372324 -0.01355327 1000 -0.01491846 -0.01480861 -0.01452085 -0.01428769 -0.01470416 1000 -0.01491846 -0.01480861 -0.01452085 -0.01428769 -0.01470416 1000
lala 6 1.2 1 first 10 1 67 6 2.76 1.0999972820282 1 0 1 0 -0.014943 -0.01516979 -0.01520698 1000 1000 1000 -0.014943 -0.01516979 -0.01520698 1000 1000 1000 -0.01313354 -0.01331376 -0.01344309 -0.01307788 -0.01321154 1000 -0.01313354 -0.01331376 -0.01344309 -0.01307788 -0.01321154 1000
lala 6 1.2 0 first 4 1 68 6 5.16 0.579997777938843 -1 0 -1 1 -0.013675 -0.01375622 -0.01381516 1000 1000 1000 -0.013675 -0.01375622 -0.01381516 1000 1000 1000 -0.01685263 -0.01668987 -0.01554308 -0.01503043 -0.01485834 1000 -0.01685263 -0.01668987 -0.01554308 -0.01503043 -0.01485834 1000
lala 6 1.2 1 second 12 1 69 4 3.84 1.19999718666077 0 0 1 1 -0.02428565 -0.02464531 -0.02395977 -0.0237607 -0.0235718 1000 -0.02428565 -0.02464531 -0.02395977 -0.0237607 -0.0235718 1000 -0.02453107 -0.02396045 -0.02322888 -0.02295543 -0.02312482 1000 -0.02453107 -0.02396045 -0.02322888 -0.02295543 -0.02312482 1000
lala 9 1.2 0 second 1 1 70 4 2.92 0.61999773979187 -1 1 -1 0 -0.01818005 -0.01761642 -0.017601 -0.01830787 -0.0188579 1000 -0.01818005 -0.01761642 -0.017601 -0.01830787 -0.0188579 1000 -0.01940175 -0.0194411 -0.0192371 -0.01954245 -0.02035678 1000 -0.01940175 -0.0194411 -0.0192371 -0.01954245 -0.02035678 1000
lala 4 1.2 0 first 2 1 71 5 4.5 2.67999601364136 -1 0 -1 0 -0.02018864 -0.01999269 -0.0198304 1000 1000 1000 -0.02018864 -0.01999269 -0.0198304 1000 1000 1000 -0.02005291 -0.0199328 -0.01911734 -0.01922245 -0.01927985 1000 -0.02005291 -0.0199328 -0.01911734 -0.01922245 -0.01927985 1000
lala 7 1.2 0 first 10 1 72 6 1.98 0.719997644424438 1 0 -1 0 -0.01842462 -0.01897803 -0.01863521 1000 1000 1000 -0.01842462 -0.01897803 -0.01863521 1000 1000 1000 -0.01831504 -0.01889166 -0.01866886 -0.01863081 -0.01939268 1000 -0.01831504 -0.01889166 -0.01866886 -0.01863081 -0.01939268 1000
lala 4 1.2 1 second 11 1 73 6 4.380001 0.439997911453247 1 1 1 0 -0.01630979 -0.01693294 -0.01638731 -0.01222207 -0.009061859 1000 -0.01630979 -0.01693294 -0.01638731 -0.01222207 -0.009061859 1000 -0.01340192 -0.01279071 -0.01189901 -0.01094694 -0.01236162 1000 -0.01340192 -0.01279071 -0.01189901 -0.01094694 -0.01236162 1000
lala 8 1.2 0 first 10 1 74 6 3.18 4.21999454498291 1 0 -1 0 -0.01550285 -0.01547052 -0.01569159 1000 1000 1000 -0.01550285 -0.01547052 -0.01569159 1000 1000 1000 -0.01910609 -0.01931644 -0.02008867 -0.01995555 -0.01990102 1000 -0.01910609 -0.01931644 -0.02008867 -0.01995555 -0.01990102 1000
lala 7 1.2 0 second 12 1 75 4 2.64 2.25999641418457 0 0 -1 1 -0.0237549 -0.02301282 -0.02280942 -0.02306926 -0.02286756 1000 -0.0237549 -0.02301282 -0.02280942 -0.02306926 -0.02286756 1000 -0.02482054 -0.02487219 -0.02428259 -0.02436883 -0.02535825 1000 -0.02482054 -0.02487219 -0.02428259 -0.02436883 -0.02535825 1000
lala 4 1.2 0 second 5 1 76 6 4.380001 0.839997529983521 -1 1 -1 0 -0.01135333 -0.009590378 -0.008179069 -0.008116502 -0.008891478 1000 -0.01135333 -0.009590378 -0.008179069 -0.008116502 -0.008891478 1000 -0.01040352 -0.01035379 -0.01042149 -0.01038526 -0.0112561 1000 -0.01040352 -0.01035379 -0.01042149 -0.01038526 -0.0112561 1000
lala 7 1.2 1 second 13 1 77 4 2.92 0.299998044967651 0 1 1 0 -0.01400441 -0.0138995 -0.01381103 -0.01418717 -0.01374449 1000 -0.01400441 -0.0138995 -0.01381103 -0.01418717 -0.01374449 1000 -0.01365322 -0.01338862 -0.01289833 -0.01293244 -0.01350029 1000 -0.01365322 -0.01338862 -0.01289833 -0.01293244 -0.01350029 1000
lala 2 1.2 1 second 15 1 78 5 5.45 0.119998216629028 0 1 1 0 -0.01442384 -0.01367983 -0.01318317 -0.01355447 -0.01347538 1000 -0.01442384 -0.01367983 -0.01318317 -0.01355447 -0.01347538 1000 -0.0142102 -0.01414799 -0.01461091 -0.01466816 -0.01445885 1000 -0.0142102 -0.01414799 -0.01461091 -0.01466816 -0.01445885 1000
lala 10 0.6 1 second 1 1 79 4 3.52 1.37999701499939 -1 1 1 0 -0.01310918 -0.0132888 -0.01350283 -0.01388865 -0.0145302 1000 -0.01310918 -0.0132888 -0.01350283 -0.01388865 -0.0145302 1000 -0.01506077 -0.015062 -0.01459354 -0.0144011 -0.01465868 1000 -0.01506077 -0.015062 -0.01459354 -0.0144011 -0.01465868 1000
lala 3 1.2 1 first 15 1 80 5 4.25 0.259998083114624 0 1 1 0 -0.01471216 -0.0154149 -0.01545034 1000 1000 1000 -0.01471216 -0.0154149 -0.01545034 1000 1000 1000 -0.01474725 -0.01491974 -0.01446968 -0.01399326 -0.01381968 1000 -0.01474725 -0.01491974 -0.01446968 -0.01399326 -0.01381968 1000
lala 10 1.2 1 first 14 1 81 5 4.5 0.079998254776001 0 0 1 1 -0.01482533 -0.01489298 -0.01510533 1000 1000 1000 -0.01482533 -0.01489298 -0.01510533 1000 1000 1000 -0.01445852 -0.01427953 -0.01457739 -0.01422057 -0.01436119 1000 -0.01445852 -0.01427953 -0.01457739 -0.01422057 -0.01436119 1000
lala 5 1.2 1 second 5 1 82 6 5.580001 0.119998216629028 -1 1 1 0 -0.01441504 -0.01385225 -0.01391029 -0.01421584 -0.01485879 1000 -0.01441504 -0.01385225 -0.01391029 -0.01421584 -0.01485879 1000 -0.01442972 -0.01407503 -0.01403916 -0.01459145 -0.01436406 1000 -0.01442972 -0.01407503 -0.01403916 -0.01459145 -0.01436406 1000
lala 6 1.2 1 second 5 1 83 6 4.380001 2.75999593734741 -1 1 1 1 -0.01347498 -0.01329354 -0.01357714 -0.01368632 -0.01340308 1000 -0.01347498 -0.01329354 -0.01357714 -0.01368632 -0.01340308 1000 -0.01382591 -0.01398519 -0.01398424 -0.01333218 -0.01323977 1000 -0.01382591 -0.01398519 -0.01398424 -0.01333218 -0.01323977 1000
lala 4 1.2 1 first 8 1 84 5 4.5 0.079998254776001 1 0 1 0 -0.01293897 -0.0126841 -0.01268497 1000 1000 1000 -0.01293897 -0.0126841 -0.01268497 1000 1000 1000 -0.02020494 -0.01539149 -0.01391659 -0.01410185 -0.01459994 1000 -0.02020494 -0.01539149 -0.01391659 -0.01410185 -0.01459994 1000
lala 2 1.2 1 second 16 1 85 6 5.16 0.279998064041138 0 0 1 0 -0.0147019 -0.01433522 -0.01469932 -0.01445682 -0.01461639 1000 -0.0147019 -0.01433522 -0.01469932 -0.01445682 -0.01461639 1000 -0.01410488 -0.01458979 -0.01427109 -0.0138709 -0.01349263 1000 -0.01410488 -0.01458979 -0.01427109 -0.0138709 -0.01349263 1000
lala 5 1.2 1 second 2 1 86 5 5.7 0.01999831199646 -1 0 1 0 -0.01345609 -0.01360814 -0.01384744 -0.0135456 -0.01334201 1000 -0.01345609 -0.01360814 -0.01384744 -0.0135456 -0.01334201 1000 -0.01262778 -0.01232578 -0.01212971 -0.01221606 -0.01296411 1000 -0.01262778 -0.01232578 -0.01212971 -0.01221606 -0.01296411 1000
lala 7 1.2 0 second 5 1 87 6 3.180001 0.319998025894165 -1 1 -1 1 -0.01300481 -0.01316747 -0.01338123 -0.01358327 -0.01323471 1000 -0.01300481 -0.01316747 -0.01338123 -0.01358327 -0.01323471 1000 -0.01233825 -0.01199696 -0.01141135 -0.01132525 -0.01161954 1000 -0.01233825 -0.01199696 -0.01141135 -0.01132525 -0.01161954 1000
lala 4 1.2 0 first 0 1 88 4 3.84 1.95999670028687 -1 0 -1 0 -0.0119095 -0.01220233 -0.01165496 1000 1000 1000 -0.0119095 -0.01220233 -0.01165496 1000 1000 1000 -0.0113818 -0.01123073 -0.01131028 -0.01102459 -0.01119248 1000 -0.0113818 -0.01123073 -0.01131028 -0.01102459 -0.01119248 1000
lala 6 1.2 1 first 2 1 89 5 4.5 0.679997682571411 -1 0 1 1 -0.01351625 -0.01416744 -0.0142806 1000 1000 1000 -0.01351625 -0.01416744 -0.0142806 1000 1000 1000 -0.01242702 -0.01279707 -0.01302123 -0.01259259 -0.01265362 1000 -0.01242702 -0.01279707 -0.01302123 -0.01259259 -0.01265362 1000
lala 3 1.2 0 first 16 1 90 6 3.96 2.53999614715576 0 0 -1 1 -0.01288224 -0.01258838 -0.01258526 1000 1000 1000 -0.01288224 -0.01258838 -0.01258526 1000 1000 1000 -0.01231802 -0.01178234 -0.01163886 -0.0118125 -0.01232421 1000 -0.01231802 -0.01178234 -0.01163886 -0.0118125 -0.01232421 1000
lala 8 1.2 0 second 13 1 91 4 1.72 0.879997491836548 0 1 -1 0 -0.01108224 -0.01113875 -0.01142286 -0.01167596 -0.01211234 1000 -0.01108224 -0.01113875 -0.01142286 -0.01167596 -0.01211234 1000 -0.01104833 -0.01110031 -0.01175288 -0.01133814 -0.01097434 1000 -0.01104833 -0.01110031 -0.01175288 -0.01133814 -0.01097434 1000
lala 9 1.2 1 second 13 1 92 4 2.92 4.45999431610107 0 1 1 1 -0.01075691 -0.01056884 -0.01070438 -0.01084783 -0.01150678 1000 -0.01075691 -0.01056884 -0.01070438 -0.01084783 -0.01150678 1000 -0.01011933 -0.009701644 -0.009326997 -0.009685705 -0.01010431 1000 -0.01011933 -0.009701644 -0.009326997 -0.009685705 -0.01010431 1000
lala 11 0.6 1 second 14 1 93 5 3.9 0.439997911453247 0 0 1 1 -0.01050709 -0.01029807 -0.01026342 -0.01061583 -0.01081114 1000 -0.01050709 -0.01029807 -0.01026342 -0.01061583 -0.01081114 1000 -0.009904061 -0.0100121 -0.0102886 -0.009819432 -0.009923876 1000 -0.009904061 -0.0100121 -0.0102886 -0.009819432 -0.009923876 1000
lala 3 1.2 1 second 9 1 94 5 4.25 0.579997777938843 1 1 1 1 -0.009754114 -0.009942425 -0.01023032 -0.01045184 -0.01067147 1000 -0.009754114 -0.009942425 -0.01023032 -0.01045184 -0.01067147 1000 -0.009499355 -0.00952953 -0.009948618 -0.01023429 -0.01037649 1000 -0.009499355 -0.00952953 -0.009948618 -0.01023429 -0.01037649 1000
lala 7 1.2 1 second 4 1 95 6 6.36 0.0999982357025146 -1 0 1 1 -0.01077518 -0.01097031 -0.0107336 -0.0107721 -0.01070025 1000 -0.01077518 -0.01097031 -0.0107336 -0.0107721 -0.01070025 1000 -0.01028062 -0.01046555 -0.01066201 -0.01085202 -0.01071639 1000 -0.01028062 -0.01046555 -0.01066201 -0.01085202 -0.01071639 1000
lala 8 1.2 1 second 12 1 96 4 3.84 0.879997491836548 0 0 1 1 -0.01136292 -0.01172388 -0.01166154 -0.01125585 -0.01113924 1000 -0.01136292 -0.01172388 -0.01166154 -0.01125585 -0.01113924 1000 -0.0113626 -0.01112944 -0.01073626 -0.01094466 -0.01110132 1000 -0.0113626 -0.01112944 -0.01073626 -0.01094466 -0.01110132 1000
lala 4 1.2 1 second 16 1 97 6 5.16 0.779997587203979 0 0 1 0 -0.01145775 -0.01168251 -0.01159934 -0.01092145 -0.01100631 1000 -0.01145775 -0.01168251 -0.01159934 -0.01092145 -0.01100631 1000 -0.01131826 -0.01123365 -0.01209505 -0.01212833 -0.01201025 1000 -0.01131826 -0.01123365 -0.01209505 -0.01212833 -0.01201025 1000
lala 9 1.2 0 second 12 1 98 4 2.64 1.65999698638916 0 0 -1 1 -0.01234394 -0.01139535 -0.01073916 -0.0104956 -0.01076222 1000 -0.01234394 -0.01139535 -0.01073916 -0.0104956 -0.01076222 1000 -0.01088071 -0.01111632 -0.01121579 -0.01124323 -0.01146428 1000 -0.01088071 -0.01111632 -0.01121579 -0.01124323 -0.01146428 1000
lala 5 1.2 0 first 16 1 99 6 3.96 4.85999393463135 0 0 -1 1 -0.01025182 -0.01024942 -0.01007185 1000 1000 1000 -0.01025182 -0.01024942 -0.01007185 1000 1000 1000 -0.01042885 -0.01037016 -0.01032024 -0.01047956 -0.01080538 1000 -0.01042885 -0.01037016 -0.01032024 -0.01047956 -0.01080538 1000
lala 6 1.2 1 first 17 1 100 6 4.380001 2.51999616622925 0 1 1 0 -0.0131798 -0.00211813 0.001010035 -0.002806833 -0.003915434 -0.00698304 -0.0131798 -0.00211813 0.001010035 -0.002806833 -0.003915434 -0.00698304 -0.02214611 -0.02251804 -0.0228077 -0.02208651 -0.0218339 1000 -0.02214611 -0.02251804 -0.0228077 -0.02208651 -0.0218339 1000
lala 8 1.2 0 first 4 1 101 6 5.16 0.759997606277466 -1 0 -1 0 -0.0200587 -0.01997383 -0.01963245 1000 1000 1000 -0.0200587 -0.01997383 -0.01963245 1000 1000 1000 -0.02211047 -0.0218801 -0.0218136 -0.02189134 -0.02187609 1000 -0.02211047 -0.0218801 -0.0218136 -0.02189134 -0.02187609 1000
lala 4 1.2 1 first 9 1 102 5 3.05 0.599997758865356 1 1 1 1 -0.02165366 -0.02158841 -0.02149862 1000 1000 1000 -0.02165366 -0.02158841 -0.02149862 1000 1000 1000 -0.02239509 -0.02271823 -0.02260453 -0.02280945 -0.02317129 1000 -0.02239509 -0.02271823 -0.02260453 -0.02280945 -0.02317129 1000
lala 6 1.2 1 first 16 1 103 6 5.16 0.299998044967651 0 0 1 1 -0.02257813 -0.02270068 -0.02267377 1000 1000 1000 -0.02257813 -0.02270068 -0.02267377 1000 1000 1000 -0.02276342 -0.02333454 -0.02273857 -0.0221997 -0.02233785 1000 -0.02276342 -0.02333454 -0.02273857 -0.0221997 -0.02233785 1000
lala 5 1.2 0 second 11 1 104 6 3.180001 0.61999773979187 1 1 -1 0 -0.02139063 -0.0217739 -0.0221569 -0.02136791 -0.02156652 1000 -0.02139063 -0.0217739 -0.0221569 -0.02136791 -0.02156652 1000 -0.02121458 -0.02183517 -0.02138042 -0.02080144 -0.02065896 1000 -0.02121458 -0.02183517 -0.02138042 -0.02080144 -0.02065896 1000
lala 4 1.2 1 second 15 1 105 5 3.05 2.99999570846558 0 1 1 1 -0.02058734 -0.02052132 -0.02080007 -0.0211847 -0.02089377 1000 -0.02058734 -0.02052132 -0.02080007 -0.0211847 -0.02089377 1000 -0.02075206 -0.02081266 -0.02146156 -0.02111132 -0.02084116 1000 -0.02075206 -0.02081266 -0.02146156 -0.02111132 -0.02084116 1000
lala 9 1.2 1 first 4 1 106 6 6.36 1.21999716758728 -1 0 1 0 -0.02343863 -0.02324946 -0.02320589 1000 1000 1000 -0.02343863 -0.02324946 -0.02320589 1000 1000 1000 -0.02503705 -0.02515712 -0.02509747 -0.02517456 -0.02536497 1000 -0.02503705 -0.02515712 -0.02509747 -0.02517456 -0.02536497 1000
lala 6 1.2 1 second 11 1 107 6 4.380001 0.299998044967651 1 1 1 0 -0.0196981 -0.01920778 -0.01935198 -0.02051932 -0.02055454 1000 -0.0196981 -0.01920778 -0.01935198 -0.02051932 -0.02055454 1000 -0.02254574 -0.0217508 -0.02137152 -0.02162634 -0.0217471 1000 -0.02254574 -0.0217508 -0.02137152 -0.02162634 -0.0217471 1000
lala 9 1.2 1 second 10 1 108 6 4.38 0.359997987747192 1 0 1 0 -0.022205 -0.02168508 -0.02132962 -0.02154373 -0.02192809 1000 -0.022205 -0.02168508 -0.02132962 -0.02154373 -0.02192809 1000 -0.02180111 -0.02144578 -0.02161931 -0.0216274 -0.02152335 1000 -0.02180111 -0.02144578 -0.02161931 -0.0216274 -0.02152335 1000
lala 3 1.2 1 first 7 1 109 4 2.92 0.23999810218811 1 1 1 1 -0.02164994 -0.02130342 -0.02177771 1000 1000 1000 -0.02164994 -0.02130342 -0.02177771 1000 1000 1000 -0.0219167 -0.02162059 -0.02177434 -0.02194393 -0.02200079 1000 -0.0219167 -0.02162059 -0.02177434 -0.02194393 -0.02200079 1000
lala 10 0.6 1 first 12 1 110 4 3.24 0.959997415542603 0 0 1 1 -0.02212381 -0.02235136 -0.02244659 1000 1000 1000 -0.02212381 -0.02235136 -0.02244659 1000 1000 1000 -0.02278703 -0.02270547 -0.02301414 -0.02327063 -0.02298674 1000 -0.02278703 -0.02270547 -0.02301414 -0.02327063 -0.02298674 1000
lala 7 1.2 1 second 17 1 111 6 3.180001 0.299998044967651 0 1 1 1 -0.01892672 -0.02018587 -0.02054921 -0.01996358 -0.01800154 1000 -0.01892672 -0.02018587 -0.02054921 -0.01996358 -0.01800154 1000 -0.01993312 -0.01953734 -0.01894976 -0.01809467 -0.01883878 1000 -0.01993312 -0.01953734 -0.01894976 -0.01809467 -0.01883878 1000
lala 8 1.2 0 first 17 1 112 6 1.980001 0.119998216629028 0 1 -1 0 -0.01936448 -0.0202277 -0.01991346 1000 1000 1000 -0.01936448 -0.0202277 -0.01991346 1000 1000 1000 -0.02082793 -0.02064251 -0.02034063 -0.01986948 -0.0196072 1000 -0.02082793 -0.02064251 -0.02034063 -0.01986948 -0.0196072 1000
lala 11 0.3 0 first 1 1 113 4 3.22 0.739997625350952 -1 1 -1 0 -0.02054343 -0.02046125 -0.02069397 1000 1000 1000 -0.02054343 -0.02046125 -0.02069397 1000 1000 1000 -0.02062883 -0.02053057 -0.02014312 -0.01963086 -0.01976372 1000 -0.02062883 -0.02053057 -0.02014312 -0.01963086 -0.01976372 1000
lala 5 1.2 1 first 0 1 114 4 5.04 1.3999969959259 -1 0 1 1 -0.02079551 -0.02030901 -0.01963375 1000 1000 1000 -0.02079551 -0.02030901 -0.01963375 1000 1000 1000 -0.01952927 -0.0190454 -0.01856511 -0.01917985 -0.01914133 1000 -0.01952927 -0.0190454 -0.01856511 -0.01917985 -0.01914133 1000
lala 11 0.3 1 second 12 1 115 4 2.94 0.279998064041138 0 0 1 0 -0.01948283 -0.01921506 -0.01919673 -0.01895087 -0.01864379 1000 -0.01948283 -0.01921506 -0.01919673 -0.01895087 -0.01864379 1000 -0.01830197 -0.01788327 -0.01791864 -0.01771693 -0.01820401 1000 -0.01830197 -0.01788327 -0.01791864 -0.01771693 -0.01820401 1000
lala 10 0.6 1 first 10 1 116 6 3.78 0.159998178482056 1 0 1 0 -0.01908908 -0.0190176 -0.0185373 1000 1000 1000 -0.01908908 -0.0190176 -0.0185373 1000 1000 1000 -0.01886831 -0.01828069 -0.01759186 -0.01725634 -0.01747171 1000 -0.01886831 -0.01828069 -0.01759186 -0.01725634 -0.01747171 1000
lala 4 1.2 0 first 7 1 117 4 1.72 0.639997720718384 1 1 -1 0 -0.01789595 -0.01841294 -0.01888902 1000 1000 1000 -0.01789595 -0.01841294 -0.01888902 1000 1000 1000 -0.01769336 -0.01740118 -0.01746919 -0.01697714 -0.01717161 1000 -0.01769336 -0.01740118 -0.01746919 -0.01697714 -0.01717161 1000
lala 7 1.2 0 second 2 1 118 5 3.3 1.25999712944031 -1 0 -1 1 -0.01700187 -0.01776134 -0.01719308 -0.01666784 -0.01648193 1000 -0.01700187 -0.01776134 -0.01719308 -0.01666784 -0.01648193 1000 -0.01529789 -0.0155907 -0.01558897 -0.01605279 -0.01670703 1000 -0.01529789 -0.0155907 -0.01558897 -0.01605279 -0.01670703 1000
lala 8 1.2 1 second 5 1 119 6 4.380001 0.519997835159302 -1 1 1 0 -0.01585788 -0.0159631 -0.01624433 -0.01630024 -0.01586471 1000 -0.01585788 -0.0159631 -0.01624433 -0.01630024 -0.01586471 1000 -0.01602779 -0.01533107 -0.01559249 -0.01560434 -0.01599109 1000 -0.01602779 -0.01533107 -0.01559249 -0.01560434 -0.01599109 1000
lala 12 0.15 0 second 1 1 120 4 3.37 2.09999656677246 -1 1 -1 1 -0.01502315 -0.01502447 -0.01537944 -0.01504513 -0.01422647 1000 -0.01502315 -0.01502447 -0.01537944 -0.01504513 -0.01422647 1000 -0.0147709 -0.01500819 -0.0156252 -0.01506967 -0.01499137 1000 -0.0147709 -0.01500819 -0.0156252 -0.01506967 -0.01499137 1000
lala 2 1.2 1 first 3 1 121 5 5.45 0.179998159408569 -1 1 1 0 -0.01373259 -0.01354191 -0.01353345 1000 1000 1000 -0.01373259 -0.01354191 -0.01353345 1000 1000 1000 -0.01281531 -0.01238762 -0.01167695 -0.0111621 -0.01105256 1000 -0.01281531 -0.01238762 -0.01167695 -0.0111621 -0.01105256 1000
lala 2 1.2 1 first 6 1 122 4 3.84 0.739997625350952 1 0 1 0 -0.01260094 -0.01265667 -0.01219178 1000 1000 1000 -0.01260094 -0.01265667 -0.01219178 1000 1000 1000 -0.01132919 -0.0104366 -0.0100616 -0.01041999 -0.01044183 1000 -0.01132919 -0.0104366 -0.0100616 -0.01041999 -0.01044183 1000
lala 7 1.2 1 first 11 1 123 6 3.180001 0.439997911453247 1 1 1 1 -0.01106014 -0.01054591 -0.01082274 1000 1000 1000 -0.01106014 -0.01054591 -0.01082274 1000 1000 1000 -0.01014072 -0.009773115 -0.009997739 -0.01045236 -0.01074335 1000 -0.01014072 -0.009773115 -0.009997739 -0.01045236 -0.01074335 1000
lala 8 1.2 0 second 11 1 124 6 1.980001 0.61999773979187 1 1 -1 0 -0.01000134 -0.01029704 -0.01065527 -0.0105817 -0.01085319 1000 -0.01000134 -0.01029704 -0.01065527 -0.0105817 -0.01085319 1000 -0.009910516 -0.009761204 -0.00900603 -0.008791825 -0.008789917 1000 -0.009910516 -0.009761204 -0.00900603 -0.008791825 -0.008789917 1000
lala 5 1.2 1 first 7 1 125 4 2.92 1.99999666213989 1 1 1 1 -0.009473479 -0.009879019 -0.0104704 1000 1000 1000 -0.009473479 -0.009879019 -0.0104704 1000 1000 1000 -0.009059248 -0.009016446 -0.008890976 -0.009309077 -0.009936815 1000 -0.009059248 -0.009016446 -0.008890976 -0.009309077 -0.009936815 1000
lala 7 1.2 1 second 16 1 126 6 3.96 0.159998178482056 0 0 1 1 -0.008801094 -0.008463706 -0.009133616 -0.01026413 -0.009653918 1000 -0.008801094 -0.008463706 -0.009133616 -0.01026413 -0.009653918 1000 -0.01035925 -0.01011647 -0.01035282 -0.01050002 -0.01059693 1000 -0.01035925 -0.01011647 -0.01035282 -0.01050002 -0.01059693 1000
lala 8 1.2 1 second 2 1 127 5 4.5 0.159998178482056 -1 0 1 1 -0.009535218 -0.009304747 -0.00900635 -0.00902993 -0.009317885 1000 -0.009535218 -0.009304747 -0.00900635 -0.00902993 -0.009317885 1000 -0.01077703 -0.01033545 -0.01049897 -0.01056119 -0.01027435 1000 -0.01077703 -0.01033545 -0.01049897 -0.01056119 -0.01027435 1000
lala 5 1.2 1 first 8 1 128 5 3.3 1.41999697685242 1 0 1 1 -0.01115001 -0.01053384 -0.009931462 1000 1000 1000 -0.01115001 -0.01053384 -0.009931462 1000 1000 1000 -0.01124426 -0.009483711 -0.007696046 -0.006554866 -0.006552407 1000 -0.01124426 -0.009483711 -0.007696046 -0.006554866 -0.006552407 1000
lala 3 1.2 1 second 3 1 129 5 4.25 0.259998083114624 -1 1 1 1 -0.006131645 -0.005268625 -0.005407604 -0.004510704 -0.004336512 1000 -0.006131645 -0.005268625 -0.005407604 -0.004510704 -0.004336512 1000 -0.0006689116 -8.441163E-05 -0.003865902 -0.007033151 -0.005848793 1000 -0.0006689116 -8.441163E-05 -0.003865902 -0.007033151 -0.005848793 1000
lala 6 1.2 0 second 8 1 130 5 2.1 0.519997835159302 1 0 -1 0 -0.005198244 -0.006502748 -0.006030484 -0.006154338 -0.005545407 1000 -0.005198244 -0.006502748 -0.006030484 -0.006154338 -0.005545407 1000 -0.009191463 -0.01130524 -0.01300626 -0.01467225 -0.01508388 1000 -0.009191463 -0.01130524 -0.01300626 -0.01467225 -0.01508388 1000
lala 7 1.2 1 first 8 1 131 5 3.3 0.799997568130493 1 0 1 1 -0.01715964 -0.0184156 -0.01957572 1000 1000 1000 -0.01715964 -0.0184156 -0.01957572 1000 1000 1000 -0.0220923 -0.02207044 -0.02243834 -0.02275498 -0.02275612 1000 -0.0220923 -0.02207044 -0.02243834 -0.02275498 -0.02275612 1000
lala 8 1.2 0 second 8 1 132 5 2.1 0.559997797012329 1 0 -1 0 -0.01886088 -0.01499084 -0.01390668 -0.01353632 -0.01356696 1000 -0.01886088 -0.01499084 -0.01390668 -0.01353632 -0.01356696 1000 -0.01647209 -0.01722617 -0.0173108 -0.01699059 -0.01685573 1000 -0.01647209 -0.01722617 -0.0173108 -0.01699059 -0.01685573 1000
lala 9 1.2 1 first 8 1 133 5 3.3 0.599997758865356 1 0 1 1 -0.01702077 -0.01685109 -0.01653764 1000 1000 1000 -0.01702077 -0.01685109 -0.01653764 1000 1000 1000 -0.01698193 -0.01685435 -0.01637763 -0.01640506 -0.01682919 1000 -0.01698193 -0.01685435 -0.01637763 -0.01640506 -0.01682919 1000
lala 12 0.6 1 first 14 1 134 5 3.3 1.49999690055847 0 0 1 0 -0.01637061 -0.01664269 -0.01626833 1000 1000 1000 -0.01637061 -0.01664269 -0.01626833 1000 1000 1000 -0.01379422 -0.0140563 -0.01360189 -0.01366222 -0.01420157 1000 -0.01379422 -0.0140563 -0.01360189 -0.01366222 -0.01420157 1000
lala 11 0.6 1 second 10 1 135 6 3.18 0.259998083114624 1 0 1 0 -0.01293128 -0.01311338 -0.01281936 -0.01234573 -0.01178337 1000 -0.01293128 -0.01311338 -0.01281936 -0.01234573 -0.01178337 1000 -0.01124679 -0.01105003 -0.01116992 -0.01167902 -0.01146345 1000 -0.01124679 -0.01105003 -0.01116992 -0.01167902 -0.01146345 1000
lala 3 1.2 0 second 6 1 136 4 2.64 2.41999626159668 1 0 -1 1 -0.01315126 -0.01307872 -0.01270432 -0.0123909 -0.01259784 1000 -0.01315126 -0.01307872 -0.01270432 -0.0123909 -0.01259784 1000 -0.01195802 -0.01195847 -0.01210736 -0.0122336 -0.01151526 1000 -0.01195802 -0.01195847 -0.01210736 -0.0122336 -0.01151526 1000
lala 9 1.2 1 first 17 1 137 6 3.180001 0.279998064041138 0 1 1 1 -0.01067495 -0.01117185 -0.01098791 1000 1000 1000 -0.01067495 -0.01117185 -0.01098791 1000 1000 1000 -0.0120078 -0.01137697 -0.01133047 -0.01177401 -0.01141192 1000 -0.0120078 -0.01137697 -0.01133047 -0.01177401 -0.01141192 1000
lala 5 1.2 0 second 9 1 138 5 1.85 2.63999605178833 1 1 -1 1 -0.03632536 -0.03198552 -0.02432058 -0.01355011 -0.007616758 1000 -0.03632536 -0.03198552 -0.02432058 -0.01355011 -0.007616758 1000 -0.005356675 -0.005379068 -0.005284424 -0.004949455 -0.004033211 1000 -0.005356675 -0.005379068 -0.005284424 -0.004949455 -0.004033211 1000
lala 12 0.3 1 first 12 1 139 4 2.64 0.739997625350952 0 0 1 0 -0.004490239 -0.00436774 -0.003933072 1000 1000 1000 -0.004490239 -0.00436774 -0.003933072 1000 1000 1000 -0.005086868 -0.004418889 -0.004232009 -0.004306438 -0.004554007 1000 -0.005086868 -0.004418889 -0.004232009 -0.004306438 -0.004554007 1000
lala 9 1.2 1 second 2 1 140 5 3.3 0.859997510910034 -1 0 1 0 -0.003764827 -0.003753892 -0.003677024 -0.003775993 -0.003357203 1000 -0.003764827 -0.003753892 -0.003677024 -0.003775993 -0.003357203 1000 -0.005284903 -0.004665552 -0.004623658 -0.004803434 -0.004727255 1000 -0.005284903 -0.004665552 -0.004623658 -0.004803434 -0.004727255 1000
lala 13 0.3 0 second 12 1 141 4 2.34 2.35999631881714 0 0 -1 1 -0.004484286 -0.004465175 -0.004330962 -0.004125601 -0.00413034 1000 -0.004484286 -0.004465175 -0.004330962 -0.004125601 -0.00413034 1000 -0.004643094 -0.004769306 -0.005308576 -0.004825323 -0.004885286 1000 -0.004643094 -0.004769306 -0.005308576 -0.004825323 -0.004885286 1000
lala 9 1.2 1 second 11 1 142 6 3.180001 0.639997720718384 1 1 1 0 -0.004877721 -0.005236931 -0.005189361 -0.005244121 -0.005382949 1000 -0.004877721 -0.005236931 -0.005189361 -0.005244121 -0.005382949 1000 -0.005499048 -0.005753192 -0.005529121 -0.005072101 -0.004833764 1000 -0.005499048 -0.005753192 -0.005529121 -0.005072101 -0.004833764 1000
lala 5 1.2 0 second 15 1 143 5 1.85 1.29999709129334 0 1 -1 0 -0.005866426 -0.005555878 -0.005464675 -0.005829012 -0.005608647 1000 -0.005866426 -0.005555878 -0.005464675 -0.005829012 -0.005608647 1000 -0.005144751 -0.005200402 -0.005729015 -0.005673889 -0.005802584 1000 -0.005144751 -0.005200402 -0.005729015 -0.005673889 -0.005802584 1000
lala 4 1.2 1 second 6 1 144 4 3.84 0.279998064041138 1 0 1 1 -0.006068303 -0.005469261 -0.005687102 -0.006147301 -0.006173552 1000 -0.006068303 -0.005469261 -0.005687102 -0.006147301 -0.006173552 1000 -0.007107197 -0.006466872 -0.006150929 -0.006075929 -0.006398999 1000 -0.007107197 -0.006466872 -0.006150929 -0.006075929 -0.006398999 1000
lala 10 1.2 0 first 2 1 145 5 2.1 0.579997777938843 -1 0 -1 0 -0.006174874 -0.006554991 -0.006273733 1000 1000 1000 -0.006174874 -0.006554991 -0.006273733 1000 1000 1000 -0.00575785 -0.005938384 -0.005734274 -0.005634919 -0.00654847 1000 -0.00575785 -0.005938384 -0.005734274 -0.005634919 -0.00654847 1000
lala 9 1.2 1 first 5 1 146 6 3.180001 3.05999565124512 -1 1 1 0 -0.00692912 -0.006589566 -0.006430559 1000 1000 1000 -0.00692912 -0.006589566 -0.006430559 1000 1000 1000 -0.007742658 -0.008106757 -0.008241008 -0.007879975 -0.007544794 1000 -0.007742658 -0.008106757 -0.008241008 -0.007879975 -0.007544794 1000
lala 12 0.6 0 first 10 1 147 6 2.58 0.519997835159302 1 0 -1 1 -0.00937517 -0.009370123 -0.009087174 1000 1000 1000 -0.00937517 -0.009370123 -0.009087174 1000 1000 1000 -0.008772012 -0.00865674 -0.008797554 -0.008942233 -0.008824548 1000 -0.008772012 -0.00865674 -0.008797554 -0.008942233 -0.008824548 1000
lala 10 1.2 0 second 5 1 148 6 1.980001 0.519997835159302 -1 1 -1 1 -0.009192394 -0.00939515 -0.009590304 -0.009505714 -0.009143574 1000 -0.009192394 -0.00939515 -0.009590304 -0.009505714 -0.009143574 1000 -0.008646671 -0.008411136 -0.008441224 -0.008986891 -0.009202311 1000 -0.008646671 -0.008411136 -0.008441224 -0.008986891 -0.009202311 1000
lala 6 1.2 1 second 15 1 149 5 3.05 0.599997758865356 0 1 1 1 -0.009185025 -0.009430826 -0.009654709 -0.009488034 -0.009100097 1000 -0.009185025 -0.009430826 -0.009654709 -0.009488034 -0.009100097 1000 -0.009077248 -0.008823109 -0.008486876 -0.008436803 -0.00888573 1000 -0.009077248 -0.008823109 -0.008486876 -0.008436803 -0.00888573 1000
lala 6 1.2 1 second 9 1 150 5 3.05 0.359997987747192 1 1 1 1 -0.02508631 -0.02634449 -0.02734528 -0.02711907 -0.02706937 1000 -0.02508631 -0.02634449 -0.02734528 -0.02711907 -0.02706937 1000 -0.03016916 -0.02914021 -0.02900064 -0.02872699 -0.02842945 1000 -0.03016916 -0.02914021 -0.02900064 -0.02872699 -0.02842945 1000
lala 13 0.6 0 first 14 1 151 5 2.7 0.379997968673706 0 0 -1 1 -0.02098687 -0.01393798 -0.01088987 1000 1000 1000 -0.02098687 -0.01393798 -0.01088987 1000 1000 1000 -0.01065433 -0.01040242 -0.01041952 -0.01059475 -0.01118578 1000 -0.01065433 -0.01040242 -0.01041952 -0.01059475 -0.01118578 1000
lala 14 0.15 1 first 12 1 152 4 2.49 0.699997663497925 0 0 1 0 -0.01319607 -0.01302049 -0.01244331 1000 1000 1000 -0.01319607 -0.01302049 -0.01244331 1000 1000 1000 -0.01245988 -0.01258089 -0.01265575 -0.01255326 -0.01323945 1000 -0.01245988 -0.01258089 -0.01265575 -0.01255326 -0.01323945 1000
lala 11 0.6 1 second 5 1 153 6 2.580001 3.21999549865723 -1 1 1 1 -0.01494306 -0.01510378 -0.01537122 -0.0150241 -0.01447323 1000 -0.01494306 -0.01510378 -0.01537122 -0.0150241 -0.01447323 1000 -0.01297524 -0.01228709 -0.01167244 -0.01165512 -0.01179636 1000 -0.01297524 -0.01228709 -0.01167244 -0.01165512 -0.01179636 1000
lala 10 0.6 1 first 8 1 154 5 2.7 1.03999733924866 1 0 1 1 -0.01522324 -0.0146603 -0.01479922 1000 1000 1000 -0.01522324 -0.0146603 -0.01479922 1000 1000 1000 -0.01824679 -0.01890512 -0.01923106 -0.01920581 -0.01926151 1000 -0.01824679 -0.01890512 -0.01923106 -0.01920581 -0.01926151 1000
lala 6 1.2 0 first 7 1 155 4 1.72 1.29999709129334 1 1 -1 0 -0.021836 -0.02203217 -0.02208585 1000 1000 1000 -0.021836 -0.02203217 -0.02208585 1000 1000 1000 -0.0212039 -0.02096962 -0.02074003 -0.0210644 -0.02041667 1000 -0.0212039 -0.02096962 -0.02074003 -0.0210644 -0.02041667 1000
lala 14 0.3 0 first 14 1 156 5 3 4.13999462127686 0 0 -1 1 -0.02179046 -0.02176794 -0.02184491 1000 1000 1000 -0.02179046 -0.02176794 -0.02184491 1000 1000 1000 -0.02090498 -0.02132794 -0.02128956 -0.02165926 -0.02225891 1000 -0.02090498 -0.02132794 -0.02128956 -0.02165926 -0.02225891 1000
lala 15 0.3 0 first 14 1 157 5 3.3 0.39999794960022 0 0 -1 1 -0.0202169 -0.01911686 -0.01794926 1000 1000 1000 -0.0202169 -0.01911686 -0.01794926 1000 1000 1000 -0.02726196 -0.02886944 -0.02573706 -0.02492921 -0.02567188 1000 -0.02726196 -0.02886944 -0.02573706 -0.02492921 -0.02567188 1000
lala 5 1.2 1 first 6 1 158 4 2.64 0.699997663497925 1 0 1 0 -0.0191352 -0.01518393 -0.01153726 1000 1000 1000 -0.0191352 -0.01518393 -0.01153726 1000 1000 1000 -0.02293775 -0.02376384 -0.02717693 -0.02566369 -0.02218202 1000 -0.02293775 -0.02376384 -0.02717693 -0.02566369 -0.02218202 1000
lala 6 1.2 0 second 6 1 159 4 1.44 0.699997663497925 1 0 -1 0 -0.02077124 -0.0203034 -0.02273278 -0.02363346 -0.02419384 1000 -0.02077124 -0.0203034 -0.02273278 -0.02363346 -0.02419384 1000 -0.02509712 -0.02326778 -0.02006762 -0.02121342 -0.0230372 1000 -0.02509712 -0.02326778 -0.02006762 -0.02121342 -0.0230372 1000
lala 12 0.3 0 first 5 1 160 6 2.280001 0.439997911453247 -1 1 -1 0 -0.01967109 -0.02200979 -0.0237204 1000 1000 1000 -0.01967109 -0.02200979 -0.0237204 1000 1000 1000 -0.02090196 -0.0195821 -0.01673462 -0.01618863 -0.01762765 1000 -0.02090196 -0.0195821 -0.01673462 -0.01618863 -0.01762765 1000
lala 10 0.6 1 second 13 1 161 4 2.32 1.03999733924866 0 1 1 1 -0.01720449 -0.0178508 -0.01748196 -0.01460177 -0.01281952 1000 -0.01720449 -0.0178508 -0.01748196 -0.01460177 -0.01281952 1000 -0.01668748 -0.01716742 -0.01601048 -0.01378464 -0.01386927 1000 -0.01668748 -0.01716742 -0.01601048 -0.01378464 -0.01386927 1000
lala 6 1.2 1 second 0 1 162 4 3.84 0.359997987747192 -1 0 1 1 -0.01590974 -0.0158305 -0.01609491 -0.01646658 -0.01638489 1000 -0.01590974 -0.0158305 -0.01609491 -0.01646658 -0.01638489 1000 -0.01722903 -0.01702238 -0.01669553 -0.01716906 -0.01722392 1000 -0.01722903 -0.01702238 -0.01669553 -0.01716906 -0.01722392 1000
lala 4 1.2 0 first 3 1 163 5 3.05 0.299998044967651 -1 1 -1 1 -0.01719253 -0.01713929 -0.0170896 1000 1000 1000 -0.01719253 -0.01713929 -0.0170896 1000 1000 1000 -0.01723226 -0.01715541 -0.01694413 -0.01711381 -0.01692184 1000 -0.01723226 -0.01715541 -0.01694413 -0.01711381 -0.01692184 1000
lala 10 0.6 1 second 4 1 164 6 5.76 0.199998140335083 -1 0 1 0 -0.01643378 -0.01630228 -0.01624816 -0.01637726 -0.0163339 1000 -0.01643378 -0.01630228 -0.01624816 -0.01637726 -0.0163339 1000 -0.01680369 -0.01642523 -0.01612154 -0.01636509 -0.01686472 1000 -0.01680369 -0.01642523 -0.01612154 -0.01636509 -0.01686472 1000
lala 11 0.6 0 second 13 1 165 4 1.72 0.819997549057007 0 1 -1 0 -0.01608356 -0.01634491 -0.01582046 -0.01507848 -0.01455798 1000 -0.01608356 -0.01634491 -0.01582046 -0.01507848 -0.01455798 1000 -0.01647661 -0.01687974 -0.01731143 -0.01704027 -0.01706061 1000 -0.01647661 -0.01687974 -0.01731143 -0.01704027 -0.01706061 1000
lala 5 1.2 1 second 3 1 166 5 4.25 0.379997968673706 -1 1 1 1 -0.0177288 -0.01790199 -0.01735198 -0.01751498 -0.01813375 1000 -0.0177288 -0.01790199 -0.01735198 -0.01751498 -0.01813375 1000 -0.01858062 -0.01831425 -0.01805241 -0.01787832 -0.0181868 1000 -0.01858062 -0.01831425 -0.01805241 -0.01787832 -0.0181868 1000
lala 11 0.6 1 first 8 1 167 5 2.1 1.33999705314636 1 0 1 1 -0.0185173 -0.01811486 -0.01831996 1000 1000 1000 -0.0185173 -0.01811486 -0.01831996 1000 1000 1000 -0.01828846 -0.01801142 -0.01800965 -0.01840814 -0.01854908 1000 -0.01828846 -0.01801142 -0.01800965 -0.01840814 -0.01854908 1000
lala 7 1.2 0 first 0 1 168 4 2.64 1.3999969959259 -1 0 -1 0 -0.0193041 -0.0194691 -0.0192578 1000 1000 1000 -0.0193041 -0.0194691 -0.0192578 1000 1000 1000 -0.01872077 -0.01866553 -0.01869673 -0.01840039 -0.01909477 1000 -0.01872077 -0.01866553 -0.01869673 -0.01840039 -0.01909477 1000
lala 7 1.2 1 first 15 1 169 5 1.85 2.43999624252319 0 1 1 1 -0.01905259 -0.01887827 -0.0187369 1000 1000 1000 -0.01905259 -0.01887827 -0.0187369 1000 1000 1000 -0.01814115 -0.01857123 -0.01909299 -0.01892449 -0.01870568 1000 -0.01814115 -0.01857123 -0.01909299 -0.01892449 -0.01870568 1000
lala 12 0.3 1 first 13 1 170 4 2.02 1.13999724388123 0 1 1 1 -0.02087528 -0.02065197 -0.0207291 1000 1000 1000 -0.02087528 -0.02065197 -0.0207291 1000 1000 1000 -0.02137983 -0.02163306 -0.0216174 -0.02195938 -0.0219949 1000 -0.02137983 -0.02163306 -0.0216174 -0.02195938 -0.0219949 1000
lala 11 0.6 0 second 2 1 171 5 2.7 1.01999735832214 -1 0 -1 1 -0.02281816 -0.02271195 -0.02303857 -0.02327891 -0.02278135 1000 -0.02281816 -0.02271195 -0.02303857 -0.02327891 -0.02278135 1000 -0.02470917 -0.02479819 -0.02497286 -0.02501328 -0.02455842 1000 -0.02470917 -0.02479819 -0.02497286 -0.02501328 -0.02455842 1000
lala 12 0.6 1 first 8 1 172 5 1.65 1.73999691009521 1 0 1 1 -0.02160639 -0.0214624 -0.02184947 1000 1000 1000 -0.02160639 -0.0214624 -0.02184947 1000 1000 1000 -0.02211609 -0.02242311 -0.02276982 -0.02239413 -0.02237402 1000 -0.02211609 -0.02242311 -0.02276982 -0.02239413 -0.02237402 1000
lala 8 1.2 1 first 0 1 173 4 3.84 1.31999707221985 -1 0 1 0 -0.02391743 -0.02427055 -0.02476539 1000 1000 1000 -0.02391743 -0.02427055 -0.02476539 1000 1000 1000 -0.02474044 -0.02473647 -0.02486942 -0.025092 -0.0251165 1000 -0.02474044 -0.02473647 -0.02486942 -0.025092 -0.0251165 1000
lala 13 0.15 0 first 13 1 174 4 1.87 0.379997968673706 0 1 -1 1 -0.02410198 -0.02269205 -0.02096912 1000 1000 1000 -0.02410198 -0.02269205 -0.02096912 1000 1000 1000 -0.0185588 -0.01854004 -0.01903788 -0.01861207 -0.01967943 1000 -0.0185588 -0.01854004 -0.01903788 -0.01861207 -0.01967943 1000
lala 8 1.2 0 first 15 1 175 5 1.65 0.299998044967651 0 1 -1 1 -0.02123256 -0.02195742 -0.02245893 1000 1000 1000 -0.02123256 -0.02195742 -0.02245893 1000 1000 1000 -0.02114572 -0.02151508 -0.02219532 -0.02192282 -0.02190584 1000 -0.02114572 -0.02151508 -0.02219532 -0.02192282 -0.02190584 1000
lala 16 0.3 1 second 14 1 176 5 3.6 0.259998083114624 0 0 1 1 -0.02284348 -0.02256062 -0.02254868 -0.02273455 -0.02254049 1000 -0.02284348 -0.02256062 -0.02254868 -0.02273455 -0.02254049 1000 -0.02354514 -0.02332746 -0.02286321 -0.02253959 -0.0228108 1000 -0.02354514 -0.02332746 -0.02286321 -0.02253959 -0.0228108 1000
lala 14 0.075 1 first 13 1 177 4 1.945 1.37999701499939 0 1 1 1 -0.02475709 -0.02462595 -0.02439301 1000 1000 1000 -0.02475709 -0.02462595 -0.02439301 1000 1000 1000 -0.02446098 -0.02453077 -0.02465853 -0.02395703 -0.02372392 1000 -0.02446098 -0.02453077 -0.02465853 -0.02395703 -0.02372392 1000
lala 15 0.075 1 second 12 1 178 4 2.415 0.219998121261597 0 0 1 0 -0.02257136 -0.0224839 -0.02229341 -0.02211859 -0.02171894 1000 -0.02257136 -0.0224839 -0.02229341 -0.02211859 -0.02171894 1000 -0.02190389 -0.02206547 -0.02183967 -0.02183871 -0.02174748 1000 -0.02190389 -0.02206547 -0.02183967 -0.02183871 -0.02174748 1000
lala 13 0.3 1 second 10 1 179 6 2.88 0.219998121261597 1 0 1 1 -0.02271064 -0.02234352 -0.02192479 -0.02200598 -0.0231683 1000 -0.02271064 -0.02234352 -0.02192479 -0.02200598 -0.0231683 1000 -0.02283165 -0.0222895 -0.02221242 -0.02238018 -0.02205875 1000 -0.02283165 -0.0222895 -0.02221242 -0.02238018 -0.02205875 1000
lala 15 0.0375 0 first 13 1 180 4 1.9075 0.299998044967651 0 1 -1 0 -0.02385679 -0.02335483 -0.0229198 1000 1000 1000 -0.02385679 -0.02335483 -0.0229198 1000 1000 1000 -0.02221157 -0.02206055 -0.02181459 -0.02155041 -0.02191363 1000 -0.02221157 -0.02206055 -0.02181459 -0.02155041 -0.02191363 1000
lala 14 0.15 1 second 10 1 181 6 2.73 0.159998178482056 1 0 1 0 -0.02238226 -0.02213674 -0.02156817 -0.02120776 -0.0212715 1000 -0.02238226 -0.02213674 -0.02156817 -0.02120776 -0.0212715 1000 -0.02184504 -0.02197385 -0.02159163 -0.02166353 -0.02161327 1000 -0.02184504 -0.02197385 -0.02159163 -0.02166353 -0.02161327 1000
lala 13 1.2 0 second 8 1 182 5 1.65 0.419997930526733 1 0 -1 1 -0.02189939 -0.02158228 -0.02198916 -0.02186308 -0.02208719 1000 -0.02189939 -0.02158228 -0.02198916 -0.02186308 -0.02208719 1000 -0.02296705 -0.02286659 -0.02257213 -0.02199203 -0.0217856 1000 -0.02296705 -0.02286659 -0.02257213 -0.02199203 -0.0217856 1000
lala 16 0.01875 1 first 13 1 183 4 1.92625 0.859997510910034 0 1 1 1 -0.02281953 -0.02348523 -0.02298068 1000 1000 1000 -0.02281953 -0.02348523 -0.02298068 1000 1000 1000 -0.02255763 -0.02271639 -0.02238353 -0.02241303 -0.02252047 1000 -0.02255763 -0.02271639 -0.02238353 -0.02241303 -0.02252047 1000
lala 9 1.2 1 second 0 1 184 4 2.64 1.13999724388123 -1 0 1 0 -0.02442103 -0.02429619 -0.02409069 -0.02412518 -0.02470244 1000 -0.02442103 -0.02429619 -0.02409069 -0.02412518 -0.02470244 1000 -0.02424843 -0.02390211 -0.02391715 -0.02428155 -0.02414419 1000 -0.02424843 -0.02390211 -0.02391715 -0.02428155 -0.02414419 1000
lala 17 0.009375 1 first 13 1 185 4 1.916875 0.679997682571411 0 1 1 1 -0.02257204 -0.02118544 -0.02105412 1000 1000 1000 -0.02257204 -0.02118544 -0.02105412 1000 1000 1000 -0.02103799 -0.02064621 -0.02046981 -0.02065526 -0.02109018 1000 -0.02103799 -0.02064621 -0.02046981 -0.02065526 -0.02109018 1000
lala 8 1.2 1 second 16 1 186 6 2.76 3.29999542236328 0 0 1 1 -0.02047276 -0.02058054 -0.02113308 -0.02110354 -0.02143303 1000 -0.02047276 -0.02058054 -0.02113308 -0.02110354 -0.02143303 1000 -0.02039342 -0.02046716 -0.02022501 -0.02019167 -0.01990941 1000 -0.02039342 -0.02046716 -0.02022501 -0.02019167 -0.01990941 1000
lala 10 0.6 1 second 11 1 187 6 2.580001 0.839997529983521 1 1 1 0 -0.01990496 -0.01983936 -0.01936698 -0.01964783 -0.01972896 1000 -0.01990496 -0.01983936 -0.01936698 -0.01964783 -0.01972896 1000 -0.02049658 -0.02035696 -0.02027079 -0.01990522 -0.02010876 1000 -0.02049658 -0.02035696 -0.02027079 -0.01990522 -0.02010876 1000
lala 6 1.2 1 second 3 1 188 5 3.05 0.459997892379761 -1 1 1 0 -0.01987127 -0.02011258 -0.02041749 -0.02018058 -0.0200223 1000 -0.01987127 -0.02011258 -0.02041749 -0.02018058 -0.0200223 1000 -0.0198275 -0.01959484 -0.01979701 -0.02003971 -0.01990471 1000 -0.0198275 -0.01959484 -0.01979701 -0.02003971 -0.01990471 1000
lala 11 0.6 1 second 4 1 189 6 5.16 0.259998083114624 -1 0 1 1 -0.01912459 -0.0192677 -0.01953566 -0.01989345 -0.02007841 1000 -0.01912459 -0.0192677 -0.01953566 -0.01989345 -0.02007841 1000 -0.01980611 -0.01937902 -0.01916707 -0.01888018 -0.01910326 1000 -0.01980611 -0.01937902 -0.01916707 -0.01888018 -0.01910326 1000
lala 10 0.6 0 first 17 1 190 6 2.580001 0.419997930526733 0 1 -1 1 -0.01948229 -0.01978563 -0.01919306 1000 1000 1000 -0.01948229 -0.01978563 -0.01919306 1000 1000 1000 -0.01871048 -0.01900411 -0.01855508 -0.01870314 -0.01863585 1000 -0.01871048 -0.01900411 -0.01855508 -0.01870314 -0.01863585 1000
lala 7 1.2 0 second 3 1 191 5 1.85 0.61999773979187 -1 1 -1 1 -0.01848272 -0.0183421 -0.01821905 -0.01818033 -0.01815386 1000 -0.01848272 -0.0183421 -0.01821905 -0.01818033 -0.01815386 1000 -0.01804302 -0.01763474 -0.01773422 -0.01790226 -0.01799921 1000 -0.01804302 -0.01763474 -0.01773422 -0.01790226 -0.01799921 1000
lala 7 1.2 1 first 7 1 192 4 2.92 1.05999732017517 1 1 1 0 -0.01774949 -0.01768134 -0.01805914 1000 1000 1000 -0.01774949 -0.01768134 -0.01805914 1000 1000 1000 -0.01749803 -0.01750756 -0.01756971 -0.01760853 -0.01770348 1000 -0.01749803 -0.01750756 -0.01756971 -0.01760853 -0.01770348 1000
lala 8 1.2 1 second 3 1 193 5 3.05 0.279998064041138 -1 1 1 0 -0.01826943 -0.01909758 -0.0188427 -0.01873709 -0.01863962 1000 -0.01826943 -0.01909758 -0.0188427 -0.01873709 -0.01863962 1000 -0.01800437 -0.01798854 -0.01785177 -0.01778019 -0.01821753 1000 -0.01800437 -0.01798854 -0.01785177 -0.01778019 -0.01821753 1000
lala 12 0.6 1 first 4 1 194 6 4.56 5.3799934387207 -1 0 1 0 -0.01850729 -0.01855788 -0.01871379 1000 1000 1000 -0.01850729 -0.01855788 -0.01871379 1000 1000 1000 -0.02177777 -0.02215002 -0.02250397 -0.02255843 -0.02254643 1000 -0.02177777 -0.02215002 -0.02250397 -0.02255843 -0.02254643 1000
lala 9 1.2 1 first 15 1 195 5 2.85 0.639997720718384 0 1 1 1 -0.01715721 -0.01713348 -0.01720434 1000 1000 1000 -0.01715721 -0.01713348 -0.01720434 1000 1000 1000 -0.01870302 -0.01821624 -0.01804644 -0.01852258 -0.01865427 1000 -0.01870302 -0.01821624 -0.01804644 -0.01852258 -0.01865427 1000
lala 11 0.6 0 second 11 1 196 6 1.980001 0.379997968673706 1 1 -1 1 -0.01763096 -0.01775838 -0.01825078 -0.01768928 -0.01823212 1000 -0.01763096 -0.01775838 -0.01825078 -0.01768928 -0.01823212 1000 -0.01893684 -0.01908431 -0.01843398 -0.01831967 -0.01827588 1000 -0.01893684 -0.01908431 -0.01843398 -0.01831967 -0.01827588 1000
lala 8 1.2 0 second 7 1 197 4 1.72 0.979997396469116 1 1 -1 0 -0.01815495 -0.01834512 -0.01848699 -0.01831341 -0.01845033 1000 -0.01815495 -0.01834512 -0.01848699 -0.01831341 -0.01845033 1000 -0.01887311 -0.01859563 -0.01846992 -0.01878914 -0.01898813 1000 -0.01887311 -0.01859563 -0.01846992 -0.01878914 -0.01898813 1000
lala 12 0.6 0 second 2 1 198 5 3.3 0.699997663497925 -1 0 -1 1 -0.01851083 -0.01884294 -0.01874039 -0.01865849 -0.01840911 1000 -0.01851083 -0.01884294 -0.01874039 -0.01865849 -0.01840911 1000 -0.01940756 -0.01925485 -0.01931404 -0.01962928 -0.01949406 1000 -0.01940756 -0.01925485 -0.01931404 -0.01962928 -0.01949406 1000
lala 14 0.6 0 second 8 1 199 5 2.25 3.01999568939209 1 0 -1 0 -0.01971136 -0.01984481 -0.01980258 -0.01961045 -0.01948352 1000 -0.01971136 -0.01984481 -0.01980258 -0.01961045 -0.01948352 1000 -0.02091843 -0.01999765 -0.01997907 -0.02024066 -0.02044853 1000 -0.02091843 -0.01999765 -0.01997907 -0.02024066 -0.02044853 1000
lala 13 0.6 1 second 2 1 200 5 3.9 5.85999917984009 -1 0 1 1 -0.01565548 -0.01540658 -0.01541365 -0.0157249 -0.01651822 1000 -0.01565548 -0.01540658 -0.01541365 -0.0157249 -0.01651822 1000 -0.02134947 -0.02175188 -0.0221052 -0.02226267 -0.02198615 1000 -0.02134947 -0.02175188 -0.0221052 -0.02226267 -0.02198615 1000
lala 17 0.15 1 second 14 1 201 5 3.45 0.0599982738494873 0 0 1 1 -0.02251785 -0.02224771 -0.02212471 -0.02247826 -0.0230874 1000 -0.02251785 -0.02224771 -0.02212471 -0.02247826 -0.0230874 1000 -0.02350767 -0.02386897 -0.02376729 -0.02308741 -0.02363325 1000 -0.02350767 -0.02386897 -0.02376729 -0.02308741 -0.02363325 1000
lala 11 0.3 0 second 17 1 202 6 2.880001 0.479997873306274 0 1 -1 1 -0.02416414 -0.0242088 -0.02383375 -0.02369946 -0.02296934 1000 -0.02416414 -0.0242088 -0.02383375 -0.02369946 -0.02296934 1000 -0.02350219 -0.02350975 -0.02371587 -0.02384703 -0.0239093 1000 -0.02350219 -0.02350975 -0.02371587 -0.02384703 -0.0239093 1000
lala 18 0.15 1 first 14 1 203 5 3.3 1.03999733924866 0 0 1 0 -0.02408739 -0.02417218 -0.02407866 1000 1000 1000 -0.02408739 -0.02417218 -0.02407866 1000 1000 1000 -0.02397178 -0.0231523 -0.0232708 -0.02363261 -0.02373277 1000 -0.02397178 -0.0231523 -0.0232708 -0.02363261 -0.02373277 1000
lala 10 1.2 0 second 0 1 204 4 1.44 0.559997797012329 -1 0 -1 0 -0.0196432 -0.02000256 -0.0200773 -0.01978053 -0.01991774 1000 -0.0196432 -0.02000256 -0.0200773 -0.01978053 -0.01991774 1000 -0.01954459 -0.0195129 -0.01955758 -0.01964275 -0.01953521 1000 -0.01954459 -0.0195129 -0.01955758 -0.01964275 -0.01953521 1000
lala 13 1.2 1 second 4 1 205 6 3.36 0.339998006820679 -1 0 1 0 -0.02058247 -0.02050751 -0.02055484 -0.0204703 -0.02035697 1000 -0.02058247 -0.02050751 -0.02055484 -0.0204703 -0.02035697 1000 -0.01971704 -0.01949518 -0.01940226 -0.01924731 -0.01925364 1000 -0.01971704 -0.01949518 -0.01940226 -0.01924731 -0.01925364 1000
lala 14 2.4 0 second 4 1 206 6 1.98 0.559997797012329 -1 0 -1 1 -0.01980216 -0.01987358 -0.01958296 -0.01944822 -0.01947374 1000 -0.01980216 -0.01987358 -0.01958296 -0.01944822 -0.01947374 1000 -0.01935981 -0.01897564 -0.01914242 -0.0191639 -0.01897047 1000 -0.01935981 -0.01897564 -0.01914242 -0.0191639 -0.01897047 1000
lala 18 0.009375 0 first 13 1 207 4 1.9075 1.03999733924866 0 1 -1 1 -0.01941225 -0.01927816 -0.01919798 1000 1000 1000 -0.01941225 -0.01927816 -0.01919798 1000 1000 1000 -0.01917463 -0.0189262 -0.01857314 -0.01839706 -0.01825118 1000 -0.01917463 -0.0189262 -0.01857314 -0.01839706 -0.01825118 1000
lala 13 0.15 1 first 1 1 208 4 3.52 1.57999682426453 -1 1 1 0 -0.01843528 -0.01841497 -0.01829678 1000 1000 1000 -0.01843528 -0.01841497 -0.01829678 1000 1000 1000 -0.01793306 -0.01773181 -0.01742935 -0.01718594 -0.01726462 1000 -0.01793306 -0.01773181 -0.01742935 -0.01718594 -0.01726462 1000
lala 15 0.15 0 second 10 1 209 6 2.58 1.29999709129334 1 0 -1 1 -0.01770386 -0.01770462 -0.01798107 -0.01779222 -0.01795952 1000 -0.01770386 -0.01770462 -0.01798107 -0.01779222 -0.01795952 1000 -0.01925582 -0.01974534 -0.01948345 -0.01914088 -0.01904914 1000 -0.01925582 -0.01974534 -0.01948345 -0.01914088 -0.01904914 1000
lala 16 0.075 1 first 12 1 210 4 2.34 1.55999684333801 0 0 1 1 -0.01919263 -0.01883711 -0.01883243 1000 1000 1000 -0.01919263 -0.01883711 -0.01883243 1000 1000 1000 -0.01839001 -0.01876371 -0.01835591 -0.01853902 -0.01894864 1000 -0.01839001 -0.01876371 -0.01835591 -0.01853902 -0.01894864 1000
lala 9 1.2 1 second 16 1 211 6 1.98 1.37999701499939 0 0 1 0 -0.0179233 -0.0187499 -0.01923837 -0.01902196 -0.01875895 1000 -0.0179233 -0.0187499 -0.01923837 -0.01902196 -0.01875895 1000 -0.01978763 -0.01971185 -0.01948451 -0.01962771 -0.02015624 1000 -0.01978763 -0.01971185 -0.01948451 -0.01962771 -0.02015624 1000
lala 17 0.075 0 second 12 1 212 4 2.265 4.47999429702759 0 0 -1 0 -0.01995545 -0.02021047 -0.02062299 -0.02059731 -0.02082421 1000 -0.01995545 -0.02021047 -0.02062299 -0.02059731 -0.02082421 1000 -0.02178962 -0.02175242 -0.02136149 -0.02118512 -0.02142118 1000 -0.02178962 -0.02175242 -0.02136149 -0.02118512 -0.02142118 1000
lala 15 1.2 1 second 4 1 213 6 3.18 0.299998044967651 -1 0 1 1 -0.02309219 -0.0226212 -0.02285261 -0.02356363 -0.02351028 1000 -0.02309219 -0.0226212 -0.02285261 -0.02356363 -0.02351028 1000 -0.02499365 -0.02474649 -0.02486844 -0.02522439 -0.02536374 1000 -0.02499365 -0.02474649 -0.02486844 -0.02522439 -0.02536374 1000
lala 16 0.6 0 second 4 1 214 6 2.58 1.07999730110168 -1 0 -1 0 -0.02058655 -0.02077717 -0.02045312 -0.02101536 -0.02182108 1000 -0.02058655 -0.02077717 -0.02045312 -0.02101536 -0.02182108 1000 -0.02245308 -0.02226475 -0.02224378 -0.02236155 -0.02263703 1000 -0.02245308 -0.02226475 -0.02224378 -0.02236155 -0.02263703 1000
lala 15 0.6 1 second 8 1 215 5 2.85 2.5999960899353 1 0 1 1 -0.02231427 -0.02215358 -0.02220332 -0.02259531 -0.02294662 1000 -0.02231427 -0.02215358 -0.02220332 -0.02259531 -0.02294662 1000 -0.02282869 -0.0225958 -0.0225405 -0.02331977 -0.02334663 1000 -0.02282869 -0.0225958 -0.0225405 -0.02331977 -0.02334663 1000
lala 10 0.6 0 first 15 1 216 5 2.25 0.499997854232788 0 1 -1 1 -0.02372159 -0.02311801 -0.02274122 1000 1000 1000 -0.02372159 -0.02311801 -0.02274122 1000 1000 1000 -0.02233956 -0.02151193 -0.02109002 -0.0211351 -0.02129339 1000 -0.02233956 -0.02151193 -0.02109002 -0.0211351 -0.02129339 1000
lala 9 1.2 0 first 3 1 217 5 1.85 0.479997873306274 -1 1 -1 1 -0.02229012 -0.02226514 -0.02242813 1000 1000 1000 -0.02229012 -0.02226514 -0.02242813 1000 1000 1000 -0.0216411 -0.0216004 -0.02156678 -0.02170369 -0.02176446 1000 -0.0216411 -0.0216004 -0.02156678 -0.02170369 -0.02176446 1000
lala 11 0.3 1 first 15 1 218 5 2.55 1.17999720573425 0 1 1 0 -0.02125247 -0.02159483 -0.02193238 1000 1000 1000 -0.02125247 -0.02159483 -0.02193238 1000 1000 1000 -0.02079405 -0.02079134 -0.02127412 -0.02114075 -0.02134904 1000 -0.02079405 -0.02079134 -0.02127412 -0.02114075 -0.02134904 1000
lala 19 0.15 1 first 14 1 219 5 3.15 1.05999732017517 0 0 1 1 -0.01574777 -0.01166668 -0.01218711 1000 1000 1000 -0.01574777 -0.01166668 -0.01218711 1000 1000 1000 -0.01252725 -0.01225503 -0.01229928 -0.01223763 -0.01162707 1000 -0.01252725 -0.01225503 -0.01229928 -0.01223763 -0.01162707 1000
lala 17 0.3 1 first 4 1 220 6 2.88 3.15999555587769 -1 0 1 0 -0.01545992 -0.0153757 -0.01558668 1000 1000 1000 -0.01545992 -0.0153757 -0.01558668 1000 1000 1000 -0.0155276 -0.01497387 -0.01482757 -0.01592752 -0.01559189 1000 -0.0155276 -0.01497387 -0.01482757 -0.01592752 -0.01559189 1000
lala 9 1.2 1 first 7 1 221 4 2.92 1.45999693870544 1 1 1 0 -0.01575767 -0.01582333 -0.01633604 1000 1000 1000 -0.01575767 -0.01582333 -0.01633604 1000 1000 1000 -0.01561441 -0.01558898 -0.01595383 -0.01584826 -0.01562807 1000 -0.01561441 -0.01558898 -0.01595383 -0.01584826 -0.01562807 1000
lala 10 0.6 0 first 3 1 222 5 2.45 2.01999664306641 -1 1 -1 1 -0.01655478 -0.01630186 -0.01641794 1000 1000 1000 -0.01655478 -0.01630186 -0.01641794 1000 1000 1000 -0.01608562 -0.01510777 -0.01502669 -0.01615254 -0.01590594 1000 -0.01608562 -0.01510777 -0.01502669 -0.01615254 -0.01590594 1000
lala 12 0.3 1 first 11 1 223 6 2.280001 3.41999530792236 1 1 1 1 -0.01421595 -0.01475837 -0.01500138 1000 1000 1000 -0.01421595 -0.01475837 -0.01500138 1000 1000 1000 -0.01425112 -0.01458912 -0.01431281 -0.0139507 -0.01411019 1000 -0.01425112 -0.01458912 -0.01431281 -0.0139507 -0.01411019 1000
lala 11 0.6 0 first 0 1 224 4 2.04 0.499997854232788 -1 0 -1 1 0.008401014 0.008778731 0.008255687 1000 1000 1000 0.008401014 0.008778731 0.008255687 1000 1000 1000 -0.001644734 -0.001584236 -0.0006206522 0.001983311 0.002582185 1000 -0.001644734 -0.001584236 -0.0006206522 0.001983311 0.002582185 1000
lala 11 0.6 0 first 3 1 225 5 3.05 0.659997701644897 -1 1 -1 0 0.005945744 0.005547859 0.003254024 1000 1000 1000 0.005945744 0.005547859 0.003254024 1000 1000 1000 0.001511054 0.001457535 0.00269713 0.004824751 0.005690663 1000 0.001511054 0.001457535 0.00269713 0.004824751 0.005690663 1000
lala 12 0.6 0 first 0 1 226 4 2.64 0.539997816085815 -1 0 -1 1 0.001598255 0.0004747484 0.0007801996 1000 1000 1000 0.001598255 0.0004747484 0.0007801996 1000 1000 1000 0.001033446 0.001141033 0.001540625 0.001889858 0.001749863 1000 0.001033446 0.001141033 0.001540625 0.001889858 0.001749863 1000
lala 13 0.15 0 second 5 1 227 6 2.430001 0.919997453689575 -1 1 -1 1 0.0008672065 0.0008917943 0.0006507712 0.000966546 0.001426308 1000 0.0008672065 0.0008917943 0.0006507712 0.000966546 0.001426308 1000 -1.932293E-06 -1.177278E-05 0.0001313152 0.0002263778 -4.515022E-05 1000 -1.932293E-06 -1.177278E-05 0.0001313152 0.0002263778 -4.515022E-05 1000
lala 14 0.15 0 second 5 1 228 6 2.580001 0.679997682571411 -1 1 -1 1 -0.0009336866 -0.001046763 -0.0007637917 -0.0003525845 7.387484E-05 1000 -0.0009336866 -0.001046763 -0.0007637917 -0.0003525845 7.387484E-05 1000 1.022492E-05 -0.0007732697 -0.001280394 -0.001484325 -0.001890603 1000 1.022492E-05 -0.0007732697 -0.001280394 -0.001484325 -0.001890603 1000
lala 14 0.3 0 first 2 1 229 5 3.6 0.499997854232788 -1 0 -1 1 -0.003089011 -0.003268142 -0.002979469 1000 1000 1000 -0.003089011 -0.003268142 -0.002979469 1000 1000 1000 -0.002216499 -0.001829626 -0.001657563 -0.001927472 -0.002123643 1000 -0.002216499 -0.001829626 -0.001657563 -0.001927472 -0.002123643 1000
lala 16 0.075 1 second 10 1 230 6 2.655 0.419997930526733 1 0 1 0 -0.002501919 -0.002532636 -0.002289693 -0.002257687 -0.002118394 1000 -0.002501919 -0.002532636 -0.002289693 -0.002257687 -0.002118394 1000 -0.002817007 -0.00267513 -0.002695312 -0.002840518 -0.002448901 1000 -0.002817007 -0.00267513 -0.002695312 -0.002840518 -0.002448901 1000
lala 18 0.15 0 second 4 1 231 6 2.73 0.739997625350952 -1 0 -1 0 -0.0009431613 -0.0006869601 -0.0008138362 -0.001417927 -0.001670729 1000 -0.0009431613 -0.0006869601 -0.0008138362 -0.001417927 -0.001670729 1000 -0.001475089 -0.001192015 -0.001185693 -0.001371639 -0.001645637 1000 -0.001475089 -0.001192015 -0.001185693 -0.001371639 -0.001645637 1000
lala 12 0.3 0 first 17 1 232 6 3.180001 1.97999668121338 0 1 -1 1 -0.001567587 -0.001969905 -0.001298859 1000 1000 1000 -0.001567587 -0.001969905 -0.001298859 1000 1000 1000 -0.0004723135 -0.0009256058 -0.000664576 -0.001052681 -0.001458514 1000 -0.0004723135 -0.0009256058 -0.000664576 -0.001052681 -0.001458514 1000
lala 20 0.3 1 second 14 1 233 5 2.85 0.419997930526733 0 0 1 1 -0.002387662 -0.002788801 -0.002462167 -0.00218335 -0.002695974 1000 -0.002387662 -0.002788801 -0.002462167 -0.00218335 -0.002695974 1000 -0.002319587 -0.002020633 -0.001856326 -0.001571764 -0.001888534 1000 -0.002319587 -0.002020633 -0.001856326 -0.001571764 -0.001888534 1000
lala 10 2.4 0 first 16 1 234 6 1.98 0.259998083114624 0 0 -1 0 -0.002389003 -0.002468717 -0.002705213 1000 1000 1000 -0.002389003 -0.002468717 -0.002705213 1000 1000 1000 -0.002839923 -0.002650653 -0.002281744 -0.002217554 -0.00231963 1000 -0.002839923 -0.002650653 -0.002281744 -0.002217554 -0.00231963 1000
lala 15 0.15 0 second 5 1 235 6 2.730001 0.179998159408569 -1 1 -1 1 -0.003133464 -0.003204088 -0.003437646 -0.003213715 -0.00327703 1000 -0.003133464 -0.003204088 -0.003437646 -0.003213715 -0.00327703 1000 -0.002524492 -0.002473286 -0.002649431 -0.00243928 -0.002421305 1000 -0.002524492 -0.002473286 -0.002649431 -0.00243928 -0.002421305 1000
lala 19 0.0046875 1 first 13 1 236 4 1.912187 1.07999730110168 0 1 1 1 -0.003290083 -0.003303492 -0.00271837 1000 1000 1000 -0.003290083 -0.003303492 -0.00271837 1000 1000 1000 -0.003107854 -0.002727593 -0.002206177 -0.001836105 -0.002128651 1000 -0.003107854 -0.002727593 -0.002206177 -0.001836105 -0.002128651 1000
lala 16 0.3 0 first 8 1 237 5 2.55 0.659997701644897 1 0 -1 0 -0.001904666 -0.001897454 -0.00205846 1000 1000 1000 -0.001904666 -0.001897454 -0.00205846 1000 1000 1000 -0.001202474 -0.00200915 -0.001910358 -0.001815435 -0.002011844 1000 -0.001202474 -0.00200915 -0.001910358 -0.001815435 -0.002011844 1000
lala 15 0.15 0 first 2 1 238 5 3.75 3.63999509811401 -1 0 -1 1 -0.001797052 -0.0023353 -0.002111254 1000 1000 1000 -0.001797052 -0.0023353 -0.002111254 1000 1000 1000 -0.0005550784 -0.001000079 -0.0004466849 0.0001381425 -0.000585113 1000 -0.0005550784 -0.001000079 -0.0004466849 0.0001381425 -0.000585113 1000
lala 16 0.15 0 first 2 1 239 5 3.9 0.639997720718384 -1 0 -1 1 -0.005829459 -0.005690559 -0.00533253 1000 1000 1000 -0.005829459 -0.005690559 -0.00533253 1000 1000 1000 -0.006090478 -0.005769268 -0.00554692 -0.005831872 -0.006280879 1000 -0.006090478 -0.005769268 -0.00554692 -0.005831872 -0.006280879 1000
lala 11 1.2 1 second 16 1 240 6 3.18 0.659997701644897 0 0 1 1 -0.005740305 -0.006297031 -0.006476422 -0.006549503 -0.006621535 1000 -0.005740305 -0.006297031 -0.006476422 -0.006549503 -0.006621535 1000 -0.005877387 -0.00554349 -0.005080916 -0.004634506 -0.004813814 1000 -0.005877387 -0.00554349 -0.005080916 -0.004634506 -0.004813814 1000
lala 12 0.15 0 first 15 1 241 5 2.4 2.7399959564209 0 1 -1 1 -0.007010092 -0.006825945 -0.00687538 1000 1000 1000 -0.007010092 -0.006825945 -0.00687538 1000 1000 1000 -0.006090817 -0.005553802 -0.004946675 -0.004860545 -0.005853934 1000 -0.006090817 -0.005553802 -0.004946675 -0.004860545 -0.005853934 1000
lala 20 0.00234375 0 second 13 1 242 4 1.909844 0.459997892379761 0 1 -1 1 -0.007385016 -0.00739708 -0.007094688 -0.007314697 -0.007620788 1000 -0.007385016 -0.00739708 -0.007094688 -0.007314697 -0.007620788 1000 -0.008012604 -0.007781137 -0.007991459 -0.00795026 -0.007734476 1000 -0.008012604 -0.007781137 -0.007991459 -0.00795026 -0.007734476 1000
lala 16 0.3 0 first 5 1 243 6 3.030001 0.659997701644897 -1 1 -1 0 -0.007592557 -0.00787327 -0.00799889 1000 1000 1000 -0.007592557 -0.00787327 -0.00799889 1000 1000 1000 -0.007979216 -0.007728172 -0.007460601 -0.007715471 -0.007748447 1000 -0.007979216 -0.007728172 -0.007460601 -0.007715471 -0.007748447 1000
lala 21 0.6 1 first 14 1 244 5 2.25 2.43999624252319 0 0 1 1 -0.008872607 -0.008287254 -0.008610142 1000 1000 1000 -0.008872607 -0.008287254 -0.008610142 1000 1000 1000 -0.008715408 -0.009054153 -0.00818241 -0.008039678 -0.008681715 1000 -0.008715408 -0.009054153 -0.00818241 -0.008039678 -0.008681715 1000
lala 13 0.15 0 second 11 1 245 6 2.130001 0.579997777938843 1 1 -1 1 -0.009831995 -0.01015829 -0.01041066 -0.01030411 -0.01042013 1000 -0.009831995 -0.01015829 -0.01041066 -0.01030411 -0.01042013 1000 -0.01152484 -0.01168495 -0.01126228 -0.01108666 -0.01163657 1000 -0.01152484 -0.01168495 -0.01126228 -0.01108666 -0.01163657 1000
lala 13 0.075 0 first 15 1 246 5 2.475 0.579997777938843 0 1 -1 1 -0.01149015 -0.01218737 -0.01244565 1000 1000 1000 -0.01149015 -0.01218737 -0.01244565 1000 1000 1000 -0.01231268 -0.01248297 -0.01287707 -0.01300416 -0.01295329 1000 -0.01231268 -0.01248297 -0.01287707 -0.01300416 -0.01295329 1000
lala 21 0.001171875 0 first 13 1 247 4 1.911015 0.219998121261597 0 1 -1 0 -0.01311233 -0.01342558 -0.01290451 1000 1000 1000 -0.01311233 -0.01342558 -0.01290451 1000 1000 1000 -0.01490291 -0.01566232 -0.0154703 -0.01542394 -0.01558041 1000 -0.01490291 -0.01566232 -0.0154703 -0.01542394 -0.01558041 1000
lala 17 0.6 1 first 5 1 248 6 3.630001 1.31999707221985 -1 1 1 0 -0.02336955 -0.0232486 -0.02222119 1000 1000 1000 -0.02336955 -0.0232486 -0.02222119 1000 1000 1000 -0.01820204 -0.01833071 -0.01854378 -0.01894971 -0.01841588 1000 -0.01820204 -0.01833071 -0.01854378 -0.01894971 -0.01841588 1000
lala 14 0.075 0 second 11 1 249 6 2.205001 0.659997701644897 1 1 -1 1 -0.02100776 -0.0211924 -0.02130542 -0.02114749 -0.02057815 1000 -0.02100776 -0.0211924 -0.02130542 -0.02114749 -0.02057815 1000 -0.0215049 -0.02146296 -0.02168448 -0.0219896 -0.022245 1000 -0.0215049 -0.02146296 -0.02168448 -0.0219896 -0.022245 1000
lala 7 1.2 1 second 6 1 250 4 2.64 0.519997835159302 1 0 1 1 -0.01969123 -0.02065696 -0.02162152 -0.02192551 -0.02227404 1000 -0.01969123 -0.02065696 -0.02162152 -0.02192551 -0.02227404 1000 -0.02498991 -0.02500955 -0.02526013 -0.02494561 -0.0251727 1000 -0.02498991 -0.02500955 -0.02526013 -0.02494561 -0.0251727 1000
lala 13 0.3 1 first 17 1 251 6 3.480001 0.759997606277466 0 1 1 0 -0.02300997 -0.02053756 -0.01934637 1000 1000 1000 -0.02300997 -0.02053756 -0.01934637 1000 1000 1000 -0.02188267 -0.02161944 -0.02174486 -0.02166705 -0.02191485 1000 -0.02188267 -0.02161944 -0.02174486 -0.02166705 -0.02191485 1000
lala 14 0.075 1 first 15 1 252 5 2.55 1.0999972820282 0 1 1 0 -0.02175776 -0.02208717 -0.02236743 1000 1000 1000 -0.02175776 -0.02208717 -0.02236743 1000 1000 1000 -0.02239222 -0.02231282 -0.02213263 -0.02211306 -0.02258385 1000 -0.02239222 -0.02231282 -0.02213263 -0.02211306 -0.02258385 1000
lala 14 0.075 0 first 1 1 253 4 3.445 0.579997777938843 -1 1 -1 1 -0.02518303 -0.0250779 -0.02504225 1000 1000 1000 -0.02518303 -0.0250779 -0.02504225 1000 1000 1000 -0.02461254 -0.0242615 -0.02394073 -0.02393367 -0.02432162 1000 -0.02461254 -0.0242615 -0.02394073 -0.02393367 -0.02432162 1000
lala 12 0.6 1 second 3 1 254 5 3.65 0.259998083114624 -1 1 1 1 -0.0253091 -0.02564022 -0.025676 -0.02521573 -0.024983 1000 -0.0253091 -0.02564022 -0.025676 -0.02521573 -0.024983 1000 -0.02517755 -0.02564885 -0.02544214 -0.02505548 -0.0249245 1000 -0.02517755 -0.02564885 -0.02544214 -0.02505548 -0.0249245 1000
lala 8 1.2 0 first 6 1 255 4 1.44 0.839997529983521 1 0 -1 0 -0.02420616 -0.02305709 -0.02248967 1000 1000 1000 -0.02420616 -0.02305709 -0.02248967 1000 1000 1000 -0.01934867 -0.01916241 -0.01902902 -0.01935099 -0.01934971 1000 -0.01934867 -0.01916241 -0.01902902 -0.01935099 -0.01934971 1000
lala 15 0.0375 1 second 1 1 256 4 3.4825 0.339998006820679 -1 1 1 1 -0.02155454 -0.02173558 -0.02140523 -0.02105513 -0.02080185 1000 -0.02155454 -0.02173558 -0.02140523 -0.02105513 -0.02080185 1000 -0.02003963 -0.02040461 -0.02089361 -0.02053557 -0.02096897 1000 -0.02003963 -0.02040461 -0.02089361 -0.02053557 -0.02096897 1000
lala 22 0.001171875 1 first 13 1 257 4 1.912187 1.91999673843384 0 1 1 0 -0.02115535 -0.02142761 -0.0211019 1000 1000 1000 -0.02115535 -0.02142761 -0.0211019 1000 1000 1000 -0.02278119 -0.02256544 -0.02250602 -0.02275857 -0.02262978 1000 -0.02278119 -0.02256544 -0.02250602 -0.02275857 -0.02262978 1000
lala 10 0.6 1 second 7 1 258 4 2.32 0.479997873306274 1 1 1 0 -0.02194265 -0.02180431 -0.02208399 -0.02189318 -0.02141474 1000 -0.02194265 -0.02180431 -0.02208399 -0.02189318 -0.02141474 1000 -0.02164001 -0.02178527 -0.02177326 -0.0220784 -0.02282499 1000 -0.02164001 -0.02178527 -0.02177326 -0.0220784 -0.02282499 1000
lala 15 0.075 0 first 11 1 259 6 2.280001 0.459997892379761 1 1 -1 1 -0.02253347 -0.02267093 -0.02305214 1000 1000 1000 -0.02253347 -0.02267093 -0.02305214 1000 1000 1000 -0.0225454 -0.02210649 -0.02236985 -0.02328036 -0.02346882 1000 -0.0225454 -0.02210649 -0.02236985 -0.02328036 -0.02346882 1000
lala 18 0.0375 0 second 12 1 260 4 2.3025 1.13999724388123 0 0 -1 0 -0.02287201 -0.02326509 -0.02356433 -0.02318769 -0.02244334 1000 -0.02287201 -0.02326509 -0.02356433 -0.02318769 -0.02244334 1000 -0.02102332 -0.02057461 -0.02070562 -0.02136564 -0.02236268 1000 -0.02102332 -0.02057461 -0.02070562 -0.02136564 -0.02236268 1000
lala 15 0.0375 1 second 15 1 261 5 2.5125 0.279998064041138 0 1 1 0 -0.02250721 -0.02285756 -0.02281312 -0.02266892 -0.02256202 1000 -0.02250721 -0.02285756 -0.02281312 -0.02266892 -0.02256202 1000 -0.02196747 -0.02227388 -0.02229667 -0.02219004 -0.0227425 1000 -0.02196747 -0.02227388 -0.02229667 -0.02219004 -0.0227425 1000
lala 14 0.15 1 second 17 1 262 6 3.330001 0.179998159408569 0 1 1 1 -0.02076898 -0.02104551 -0.02227795 -0.02224787 -0.02218633 1000 -0.02076898 -0.02104551 -0.02227795 -0.02224787 -0.02218633 1000 -0.02699752 -0.02492939 -0.02306662 -0.02180699 -0.02144299 1000 -0.02699752 -0.02492939 -0.02306662 -0.02180699 -0.02144299 1000
lala 17 0.0375 1 first 10 1 263 6 2.6175 0.939997434616089 1 0 1 1 -0.01980946 -0.0177764 -0.01755013 1000 1000 1000 -0.01980946 -0.0177764 -0.01755013 1000 1000 1000 -0.01470076 -0.01674593 -0.01684131 -0.01570909 -0.01691458 1000 -0.01470076 -0.01674593 -0.01684131 -0.01570909 -0.01691458 1000
lala 23 0.0005859375 0 second 13 1 264 4 1.911601 1.13999724388123 0 1 -1 1 -0.01040735 -0.01025636 -0.009849298 -0.008865088 -0.008994832 1000 -0.01040735 -0.01025636 -0.009849298 -0.008865088 -0.008994832 1000 -0.006144323 -0.007907622 -0.007340302 -0.005539066 -0.004938485 1000 -0.006144323 -0.007907622 -0.007340302 -0.005539066 -0.004938485 1000
lala 7 1.2 1 first 9 1 265 5 1.85 0.99999737739563 1 1 1 1 0.001720418 0.007471044 0.004339381 1000 1000 1000 0.001720418 0.007471044 0.004339381 1000 1000 1000 0.001198879 0.0007052487 -0.001403147 -0.002076176 -0.001177364 1000 0.001198879 0.0007052487 -0.001403147 -0.002076176 -0.001177364 1000
lala 13 0.6 0 second 0 1 266 4 3.24 3.13999557495117 -1 0 -1 1 -0.004210559 -0.004436492 -0.004502995 -0.004405634 -0.004435656 1000 -0.004210559 -0.004436492 -0.004502995 -0.004405634 -0.004435656 1000 -0.005012352 -0.004519338 -0.004546559 -0.004399886 -0.004376879 1000 -0.005012352 -0.004519338 -0.004546559 -0.004399886 -0.004376879 1000
lala 14 1.2 1 second 0 1 267 4 4.44 0.419997930526733 -1 0 1 0 -0.002372646 -0.002387175 -0.001982049 -0.002778624 -0.003567954 1000 -0.002372646 -0.002387175 -0.001982049 -0.002778624 -0.003567954 1000 -0.003898575 -0.004053962 -0.004303678 -0.004410174 -0.004810418 1000 -0.003898575 -0.004053962 -0.004303678 -0.004410174 -0.004810418 1000
lala 22 1.2 0 first 14 1 268 5 1.65 4.79999399185181 0 0 -1 1 -0.004006121 -0.003966197 -0.004006304 1000 1000 1000 -0.004006121 -0.003966197 -0.004006304 1000 1000 1000 -0.005986838 -0.005697274 -0.005456043 -0.005372718 -0.005893225 1000 -0.005986838 -0.005697274 -0.005456043 -0.005372718 -0.005893225 1000
lala 24 0.0002929688 1 first 13 1 269 4 1.911894 2.7399959564209 0 1 1 0 -0.006245835 -0.00633265 -0.007149298 1000 1000 1000 -0.006245835 -0.00633265 -0.007149298 1000 1000 1000 -0.007275485 -0.007409162 -0.007470113 -0.007013902 -0.007152672 1000 -0.007275485 -0.007409162 -0.007470113 -0.007013902 -0.007152672 1000
lala 25 0.0001464844 1 second 13 1 270 4 1.911748 3.69999504089355 0 1 1 1 -0.01018124 -0.009980711 -0.009857957 -0.009817947 -0.009370007 1000 -0.01018124 -0.009980711 -0.009857957 -0.009817947 -0.009370007 1000 -0.01027634 -0.01030431 -0.0103521 -0.0104598 -0.01078211 1000 -0.01027634 -0.01030431 -0.0103521 -0.0104598 -0.01078211 1000
lala 19 0.075 0 second 4 1 271 6 2.805 2.27999639511108 -1 0 -1 0 -0.01145434 -0.01136839 -0.01135928 -0.01165144 -0.01118826 1000 -0.01145434 -0.01136839 -0.01135928 -0.01165144 -0.01118826 1000 -0.01270443 -0.01231422 -0.01242328 -0.01262082 -0.01258443 1000 -0.01270443 -0.01231422 -0.01242328 -0.01262082 -0.01258443 1000
lala 15 0.15 0 first 17 1 272 6 3.180001 1.77999687194824 0 1 -1 1 -0.01159305 -0.01124658 -0.01145596 1000 1000 1000 -0.01159305 -0.01124658 -0.01145596 1000 1000 1000 -0.01021134 -0.00998363 -0.009869661 -0.01043817 -0.01078409 1000 -0.01021134 -0.00998363 -0.009869661 -0.01043817 -0.01078409 1000
lala 23 0.6 0 second 14 1 273 5 2.25 1.35999703407288 0 0 -1 0 -0.01091479 -0.0107753 -0.01063782 -0.0109616 -0.01150869 1000 -0.01091479 -0.0107753 -0.01063782 -0.0109616 -0.01150869 1000 -0.01256295 -0.01258559 -0.01177418 -0.01143161 -0.01223818 1000 -0.01256295 -0.01258559 -0.01177418 -0.01143161 -0.01223818 1000
lala 18 0.0375 1 second 10 1 274 6 2.58 1.29999709129334 1 0 1 1 -0.01670511 -0.01659589 -0.01609812 -0.01619117 -0.01557425 1000 -0.01670511 -0.01659589 -0.01609812 -0.01619117 -0.01557425 1000 -0.01669477 -0.017078 -0.01673595 -0.01659239 -0.01732514 1000 -0.01669477 -0.017078 -0.01673595 -0.01659239 -0.01732514 1000
lala 16 0.01875 1 first 1 1 275 4 3.46375 1.43999695777893 -1 1 1 1 -0.01844059 -0.01830707 -0.0184957 1000 1000 1000 -0.01844059 -0.01830707 -0.0184957 1000 1000 1000 -0.01862176 -0.01930217 -0.01931935 -0.01904423 -0.01917348 1000 -0.01862176 -0.01930217 -0.01931935 -0.01904423 -0.01917348 1000
lala 17 0.01875 1 second 1 1 276 4 3.445 0.439997911453247 -1 1 1 0 -0.01986055 -0.01946976 -0.01978898 -0.02089035 -0.02064852 1000 -0.01986055 -0.01946976 -0.01978898 -0.02089035 -0.02064852 1000 -0.02127855 -0.02048226 -0.02012946 -0.02017538 -0.02051014 1000 -0.02127855 -0.02048226 -0.02012946 -0.02017538 -0.02051014 1000
lala 18 0.01875 1 second 1 1 277 4 3.42625 1.07999730110168 -1 1 1 0 -0.02201017 -0.02215005 -0.02124869 -0.01984845 -0.01935393 1000 -0.02201017 -0.02215005 -0.02124869 -0.01984845 -0.01935393 1000 -0.01847426 -0.01895545 -0.019634 -0.02033317 -0.02021085 1000 -0.01847426 -0.01895545 -0.019634 -0.02033317 -0.02021085 1000
lala 16 0.0375 0 first 15 1 278 5 2.475 3.0399956703186 0 1 -1 0 -0.02300962 -0.02364287 -0.02370392 1000 1000 1000 -0.02300962 -0.02364287 -0.02370392 1000 1000 1000 -0.02413492 -0.02414778 -0.024641 -0.02464165 -0.02489704 1000 -0.02413492 -0.02414778 -0.024641 -0.02464165 -0.02489704 1000
lala 18 0.3 0 first 5 1 279 6 3.330001 0.559997797012329 -1 1 -1 0 -0.009508789 -0.009201242 -0.008981747 1000 1000 1000 -0.009508789 -0.009201242 -0.008981747 1000 1000 1000 -0.0133238 -0.01321171 -0.01285705 -0.01271922 -0.01274801 1000 -0.0133238 -0.01321171 -0.01285705 -0.01271922 -0.01274801 1000
lala 8 1.2 1 first 9 1 280 5 1.65 1.17999720573425 1 1 1 1 -0.01312885 -0.01466893 -0.01497326 1000 1000 1000 -0.01312885 -0.01466893 -0.01497326 1000 1000 1000 -0.01320396 -0.01224197 -0.01212206 -0.01213477 -0.01215638 1000 -0.01320396 -0.01224197 -0.01212206 -0.01213477 -0.01215638 1000
lala 19 0.0375 0 first 1 1 281 4 3.38875 0.699997663497925 -1 1 -1 0 -0.01268037 -0.01232244 -0.01214615 1000 1000 1000 -0.01268037 -0.01232244 -0.01214615 1000 1000 1000 -0.01259757 -0.01250171 -0.01221923 -0.01163372 -0.0118391 1000 -0.01259757 -0.01250171 -0.01221923 -0.01163372 -0.0118391 1000
lala 17 0.15 0 second 8 1 282 5 2.7 0.599997758865356 1 0 -1 1 -0.0130817 -0.01348886 -0.01395621 -0.01334553 -0.01286681 1000 -0.0130817 -0.01348886 -0.01395621 -0.01334553 -0.01286681 1000 -0.01300339 -0.01345277 -0.01372063 -0.01295103 -0.01279238 1000 -0.01300339 -0.01345277 -0.01372063 -0.01295103 -0.01279238 1000
lala 13 0.3 1 second 3 1 283 5 3.35 0.379997968673706 -1 1 1 0 -0.01447934 -0.01423801 -0.01427515 -0.01415694 -0.01451804 1000 -0.01447934 -0.01423801 -0.01427515 -0.01415694 -0.01451804 1000 -0.01349608 -0.01378857 -0.01382407 -0.01336395 -0.01391984 1000 -0.01349608 -0.01378857 -0.01382407 -0.01336395 -0.01391984 1000
lala 26 0.0001464844 0 first 13 1 284 4 1.911601 0.299998044967651 0 1 -1 1 -0.01409695 -0.01424697 -0.01420286 1000 1000 1000 -0.01409695 -0.01424697 -0.01420286 1000 1000 1000 -0.01390018 -0.01351634 -0.01384537 -0.01404694 -0.01375371 1000 -0.01390018 -0.01351634 -0.01384537 -0.01404694 -0.01375371 1000
lala 15 0.6 0 first 0 1 285 4 3.84 0.559997797012329 -1 0 -1 1 -0.01341373 -0.01306869 -0.01268208 1000 1000 1000 -0.01341373 -0.01306869 -0.01268208 1000 1000 1000 -0.01239339 -0.01276068 -0.01261043 -0.01261036 -0.01254303 1000 -0.01239339 -0.01276068 -0.01261043 -0.01261036 -0.01254303 1000
lala 16 0.075 0 first 11 1 286 6 2.355001 0.39999794960022 1 1 -1 1 -0.01350623 -0.01351115 -0.01361368 1000 1000 1000 -0.01350623 -0.01351115 -0.01361368 1000 1000 1000 -0.01184458 -0.01252951 -0.01281401 -0.01273514 -0.01187149 1000 -0.01184458 -0.01252951 -0.01281401 -0.01273514 -0.01187149 1000
lala 11 0.6 0 second 7 1 287 4 1.72 0.779997587203979 1 1 -1 1 -0.01454165 -0.01342853 -0.01110324 -0.009495446 -0.01009846 1000 -0.01454165 -0.01342853 -0.01110324 -0.009495446 -0.01009846 1000 -0.006249147 -0.007241042 -0.01079798 -0.01176678 -0.01177956 1000 -0.006249147 -0.007241042 -0.01079798 -0.01176678 -0.01177956 1000
lala 12 0.6 0 first 16 1 288 6 2.58 0.219998121261597 0 0 -1 0 -0.01440871 -0.01402639 -0.01363306 1000 1000 1000 -0.01440871 -0.01402639 -0.01363306 1000 1000 1000 -0.01894174 -0.01830524 -0.01713279 -0.01677794 -0.01700642 1000 -0.01894174 -0.01830524 -0.01713279 -0.01677794 -0.01700642 1000
lala 14 0.3 0 first 3 1 289 5 3.05 0.519997835159302 -1 1 -1 1 -0.01639586 -0.0185685 -0.0179115 1000 1000 1000 -0.01639586 -0.0185685 -0.0179115 1000 1000 1000 -0.01691931 -0.02035254 -0.0207385 -0.02004214 -0.02130254 1000 -0.01691931 -0.02035254 -0.0207385 -0.02004214 -0.02130254 1000
lala 9 1.2 0 first 9 1 290 5 1.65 0.339998006820679 1 1 -1 0 -0.01922404 -0.01590779 -0.01638334 1000 1000 1000 -0.01922404 -0.01590779 -0.01638334 1000 1000 1000 -0.01713605 -0.01486461 -0.01731065 -0.02083126 -0.02214123 1000 -0.01713605 -0.01486461 -0.01731065 -0.02083126 -0.02214123 1000
lala 15 0.15 0 first 3 1 291 5 3.2 0.539997816085815 -1 1 -1 0 -0.02405381 -0.02405521 -0.02109784 1000 1000 1000 -0.02405381 -0.02405521 -0.02109784 1000 1000 1000 -0.02554364 -0.025422 -0.02252606 -0.02051876 -0.02123886 1000 -0.02554364 -0.025422 -0.02252606 -0.02051876 -0.02123886 1000
lala 16 0.3 1 second 0 1 292 4 4.14 0.39999794960022 -1 0 1 1 -0.02146105 -0.02208184 -0.02326733 -0.02306934 -0.0212078 1000 -0.02146105 -0.02208184 -0.02326733 -0.02306934 -0.0212078 1000 -0.02026635 -0.02082031 -0.02136823 -0.02184553 -0.02139944 1000 -0.02026635 -0.02082031 -0.02136823 -0.02184553 -0.02139944 1000
lala 9 1.2 1 first 6 1 293 4 2.64 2.49999618530273 1 0 1 0 -0.02011016 -0.02088665 -0.02199537 1000 1000 1000 -0.02011016 -0.02088665 -0.02199537 1000 1000 1000 -0.02107924 -0.01990947 -0.01841871 -0.01719968 -0.01828143 1000 -0.02107924 -0.01990947 -0.01841871 -0.01719968 -0.01828143 1000
lala 24 0.6 0 second 14 1 294 5 2.85 3.29999542236328 0 0 -1 1 -0.01846095 -0.02075654 -0.02385264 -0.02339531 -0.02119109 1000 -0.01846095 -0.02075654 -0.02385264 -0.02339531 -0.02119109 1000 -0.02396139 -0.02320348 -0.0201988 -0.01956032 -0.02155114 1000 -0.02396139 -0.02320348 -0.0201988 -0.01956032 -0.02155114 1000
lala 16 0.15 1 second 3 1 295 5 3.35 0.179998159408569 -1 1 1 1 -0.01879928 -0.0182554 -0.0182086 -0.01854821 -0.01763164 1000 -0.01879928 -0.0182554 -0.0182086 -0.01854821 -0.01763164 1000 -0.0182471 -0.01742631 -0.01733756 -0.0167756 -0.0160554 1000 -0.0182471 -0.01742631 -0.01733756 -0.0167756 -0.0160554 1000
lala 19 0.15 0 first 5 1 296 6 3.480001 0.519997835159302 -1 1 -1 1 -0.01443119 -0.01482383 -0.01381761 1000 1000 1000 -0.01443119 -0.01482383 -0.01381761 1000 1000 1000 -0.01908679 -0.02337704 -0.03299743 -0.03388983 -0.03253185 1000 -0.01908679 -0.02337704 -0.03299743 -0.03388983 -0.03253185 1000
lala 10 0.6 1 first 6 1 297 4 2.04 0.839997529983521 1 0 1 1 -0.0170563 -0.01028305 -0.009392251 1000 1000 1000 -0.0170563 -0.01028305 -0.009392251 1000 1000 1000 0.003531274 0.003236651 0.005381854 0.004755027 0.004002493 1000 0.003531274 0.003236651 0.005381854 0.004755027 0.004002493 1000
lala 20 0.15 0 first 5 1 298 6 3.630001 0.439997911453247 -1 1 -1 0 -0.009533116 -0.009600079 -0.01089986 1000 1000 1000 -0.009533116 -0.009600079 -0.01089986 1000 1000 1000 -0.009380157 -0.009459858 -0.009221497 -0.009020351 -0.009325396 1000 -0.009380157 -0.009459858 -0.009221497 -0.009020351 -0.009325396 1000
lala 10 0.6 0 second 9 1 299 5 2.25 0.839997529983521 1 1 -1 0 -0.01241078 -0.0124907 -0.01226272 -0.01172657 -0.01189897 1000 -0.01241078 -0.0124907 -0.01226272 -0.01172657 -0.01189897 1000 -0.01260941 -0.01285217 -0.01291848 -0.01285949 -0.01301683 1000 -0.01260941 -0.01285217 -0.01291848 -0.01285949 -0.01301683 1000
lala 17 0.01875 0 second 15 1 300 5 2.49375 1.29999709129334 0 1 -1 1 -0.01857595 -0.02082099 -0.02216176 -0.02287243 -0.02377006 1000 -0.01857595 -0.02082099 -0.02216176 -0.02287243 -0.02377006 1000 -0.02800477 -0.02749429 -0.02750737 -0.02712258 -0.0266045 1000 -0.02800477 -0.02749429 -0.02750737 -0.02712258 -0.0266045 1000
lala 19 0.0375 0 second 10 1 301 6 2.5425 0.499997854232788 1 0 -1 0 -0.01517931 -0.0157351 -0.01627126 -0.01585604 -0.01630736 1000 -0.01517931 -0.0157351 -0.01627126 -0.01585604 -0.01630736 1000 -0.01667893 -0.01700561 -0.01708829 -0.01734202 -0.01721169 1000 -0.01667893 -0.01700561 -0.01708829 -0.01734202 -0.01721169 1000
lala 27 7.324219E-05 1 first 13 1 302 4 1.911674 1.5399968624115 0 1 1 0 -0.01757118 -0.01704328 -0.01695895 1000 1000 1000 -0.01757118 -0.01704328 -0.01695895 1000 1000 1000 -0.01592891 -0.01541885 -0.0153822 -0.01550938 -0.0154663 1000 -0.01592891 -0.01541885 -0.0153822 -0.01550938 -0.0154663 1000
lala 17 0.15 1 first 0 1 303 4 3.99 0.699997663497925 -1 0 1 1 -0.01650097 -0.01667283 -0.01636003 1000 1000 1000 -0.01650097 -0.01667283 -0.01636003 1000 1000 1000 -0.01348894 -0.01362848 -0.01322588 -0.01343699 -0.01312567 1000 -0.01348894 -0.01362848 -0.01322588 -0.01343699 -0.01312567 1000
lala 13 0.3 1 first 16 1 304 6 2.88 0.919997453689575 0 0 1 1 -0.01392054 -0.01345794 -0.01295352 1000 1000 1000 -0.01392054 -0.01345794 -0.01295352 1000 1000 1000 -0.01491615 -0.01604863 -0.01659678 -0.01598673 -0.01575225 1000 -0.01491615 -0.01604863 -0.01659678 -0.01598673 -0.01575225 1000
lala 20 0.01875 0 first 10 1 305 6 2.56125 0.499997854232788 1 0 -1 1 -0.01678284 -0.01663926 -0.01567875 1000 1000 1000 -0.01678284 -0.01663926 -0.01567875 1000 1000 1000 -0.01428892 -0.01511203 -0.01526164 -0.01506335 -0.01464479 1000 -0.01428892 -0.01511203 -0.01526164 -0.01506335 -0.01464479 1000
lala 18 0.15 1 second 0 1 306 4 3.84 0.219998121261597 -1 0 1 0 -0.01457573 -0.01473717 -0.01461616 -0.0149756 -0.01436347 1000 -0.01457573 -0.01473717 -0.01461616 -0.0149756 -0.01436347 1000 -0.01510198 -0.01463798 -0.01454381 -0.01460457 -0.01460352 1000 -0.01510198 -0.01463798 -0.01454381 -0.01460457 -0.01460352 1000
lala 19 0.0375 1 first 12 1 307 4 2.34 0.639997720718384 0 0 1 1 -0.01469425 -0.01432057 -0.01376071 1000 1000 1000 -0.01469425 -0.01432057 -0.01376071 1000 1000 1000 -0.0148921 -0.01441595 -0.01428844 -0.01445821 -0.0146875 1000 -0.0148921 -0.01441595 -0.01428844 -0.01445821 -0.0146875 1000
lala 20 0.01875 0 first 1 1 308 4 3.4075 0.479997873306274 -1 1 -1 1 -0.01549435 -0.01562416 -0.01550512 1000 1000 1000 -0.01549435 -0.01562416 -0.01550512 1000 1000 1000 -0.01442294 -0.01455429 -0.01505549 -0.01541232 -0.01514856 1000 -0.01442294 -0.01455429 -0.01505549 -0.01541232 -0.01514856 1000
lala 21 0.01875 1 first 10 1 309 6 2.58 2.13999652862549 1 0 1 0 -0.01451446 -0.01412705 -0.01416551 1000 1000 1000 -0.01451446 -0.01412705 -0.01416551 1000 1000 1000 -0.01558511 -0.01475434 -0.0144979 -0.01456847 -0.01506495 1000 -0.01558511 -0.01475434 -0.0144979 -0.01456847 -0.01506495 1000
lala 22 0.009375 0 second 10 1 310 6 2.570625 1.55999684333801 1 0 -1 0 -0.01258371 -0.0105263 -0.0124936 -0.01031787 -0.00704525 1000 -0.01258371 -0.0105263 -0.0124936 -0.01031787 -0.00704525 1000 -0.004201799 -0.0004660742 0.002267093 0.001964258 -0.00143316 1000 -0.004201799 -0.0004660742 0.002267093 0.001964258 -0.00143316 1000
lala 17 0.15 1 second 2 1 311 5 4.05 0.219998121261597 -1 0 1 1 -0.008482012 -0.009839267 -0.01203509 -0.01480814 -0.01423623 1000 -0.008482012 -0.009839267 -0.01203509 -0.01480814 -0.01423623 1000 -0.01697289 -0.01480813 -0.01125724 -0.01064081 -0.01380466 1000 -0.01697289 -0.01480813 -0.01125724 -0.01064081 -0.01380466 1000
lala 18 0.075 0 first 2 1 312 5 3.975 2.75999593734741 -1 0 -1 1 -0.02080338 -0.02474393 -0.02804681 1000 1000 1000 -0.02080338 -0.02474393 -0.02804681 1000 1000 1000 -0.02115887 -0.02285523 -0.02130529 -0.01771888 -0.01413796 1000 -0.02115887 -0.02285523 -0.02130529 -0.01771888 -0.01413796 1000
lala 28 3.66211E-05 1 first 13 1 313 4 1.911638 1.03999733924866 0 1 1 1 0.000424113 0.002275432 0.001314692 1000 1000 1000 0.000424113 0.002275432 0.001314692 1000 1000 1000 0.0030829 0.002475088 0.0003614307 0.002519651 0.002988462 1000 0.0030829 0.002475088 0.0003614307 0.002519651 0.002988462 1000
lala 16 0.075 1 second 17 1 314 6 3.255001 2.5999960899353 0 1 1 0 0.0006595333 0.002431405 0.003170804 0.001291391 0.001046632 1000 0.0006595333 0.002431405 0.003170804 0.001291391 0.001046632 1000 0.001266491 0.001947534 0.001493036 0.001152135 0.0009819937 1000 0.001266491 0.001947534 0.001493036 0.001152135 0.0009819937 1000
lala 21 0.01875 1 second 1 1 315 4 3.42625 0.179998159408569 -1 1 1 0 -0.001234655 -0.001015051 -0.001031387 -0.001764987 -0.002251642 1000 -0.001234655 -0.001015051 -0.001031387 -0.001764987 -0.002251642 1000 -0.004039836 -0.003884893 -0.003361731 -0.00348172 -0.002996724 1000 -0.004039836 -0.003884893 -0.003361731 -0.00348172 -0.002996724 1000
lala 19 0.15 0 first 0 1 316 4 3.69 2.83999586105347 -1 0 -1 0 -0.00345063 -0.003514651 -0.003646537 1000 1000 1000 -0.00345063 -0.003514651 -0.003646537 1000 1000 1000 -0.003595552 -0.003467472 -0.003250872 -0.003115232 -0.003445057 1000 -0.003595552 -0.003467472 -0.003250872 -0.003115232 -0.003445057 1000
lala 18 0.01875 0 first 15 1 317 5 2.5125 1.91999673843384 0 1 -1 1 -0.004590387 -0.004124259 -0.003797425 1000 1000 1000 -0.004590387 -0.004124259 -0.003797425 1000 1000 1000 -0.003914479 -0.003939308 -0.003896438 -0.003741721 -0.00337373 1000 -0.003914479 -0.003939308 -0.003896438 -0.003741721 -0.00337373 1000
lala 19 0.01875 1 first 15 1 318 5 2.53125 7.44003534317017 0 1 1 1 -0.003706789 -0.003427034 -0.003330058 1000 1000 1000 -0.003706789 -0.003427034 -0.003330058 1000 1000 1000 -0.004294363 -0.003832037 -0.004044528 -0.004073591 -0.00373142 1000 -0.004294363 -0.003832037 -0.004044528 -0.004073591 -0.00373142 1000
lala 11 0.6 1 first 9 1 319 5 2.85 0.699997663497925 1 1 1 0 -0.005105274 -0.005545146 -0.005354199 1000 1000 1000 -0.005105274 -0.005545146 -0.005354199 1000 1000 1000 -0.005459876 -0.005848239 -0.005830389 -0.005747278 -0.005815343 1000 -0.005459876 -0.005848239 -0.005830389 -0.005747278 -0.005815343 1000
lala 17 0.075 0 first 3 1 320 5 3.275 4.35999441146851 -1 1 -1 0 -0.007142039 -0.006979331 -0.00667399 1000 1000 1000 -0.007142039 -0.006979331 -0.00667399 1000 1000 1000 -0.007960809 -0.007454754 -0.006575021 -0.006673018 -0.00663915 1000 -0.007960809 -0.007454754 -0.006575021 -0.006673018 -0.00663915 1000
