subject PestNr Step_Size_OnTrial Pest_Faster Pest_Interval Condition block trial velH velH_Pest Reaction_Time velH_Subject Start_Above Response_MotionEstimation RightOrLeftxRotations_first0 xRotations_first1 xRotations_first2 xRotations_first3 xRotations_first4 xRotations_first5 yRotations_first0 yRotations_first1 yRotations_first2 yRotations_first3 yRotations_first4 yRotations_first5 xRotations_second0 xRotations_second1 xRotations_second2 xRotations_second3 xRotations_second4 xRotations_second5 yRotations_second0 yRotations_second1 yRotations_second2 yRotations_second3 yRotations_second4 yRotations_second5
lala 1 1.2 0 second 14 1 1 5 3.3 0.539997816085815 0 0 -1 0 -0.004807835 -0.003621758 -0.005927852 -0.002759459 -0.002883789 1000 -0.004807835 -0.003621758 -0.005927852 -0.002759459 -0.002883789 1000 -0.004944743 -0.004455267 -0.003393321 -0.002805536 -0.002961769 1000 -0.004944743 -0.004455267 -0.003393321 -0.002805536 -0.002961769 1000
lala 1 1.2 0 first 10 1 2 6 3.96 4.61999416351318 1 0 -1 0 -0.001255391 -0.0027645 -0.003158356 1000 1000 1000 -0.001255391 -0.0027645 -0.003158356 1000 1000 1000 -0.002000914 -0.002146288 -0.00195199 -0.001708286 -0.002334902 1000 -0.002000914 -0.002146288 -0.00195199 -0.001708286 -0.002334902 1000
lala 1 1.2 0 second 12 1 3 4 2.64 1.21999716758728 0 0 -1 1 -0.004407967 -0.00421345 -0.004275931 -0.004265017 -0.003811206 1000 -0.004407967 -0.00421345 -0.004275931 -0.004265017 -0.003811206 1000 -0.003599676 -0.004250439 -0.004507279 -0.004583905 -0.004497101 1000 -0.003599676 -0.004250439 -0.004507279 -0.004583905 -0.004497101 1000
lala 1 1.2 1 first 15 1 4 5 6.65 1.15999722480774 0 1 1 1 -0.003973004 -0.003838162 -0.003671875 1000 1000 1000 -0.003973004 -0.003838162 -0.003671875 1000 1000 1000 -0.004028572 -0.00373284 -0.003426119 -0.003311755 -0.003852595 1000 -0.004028572 -0.00373284 -0.003426119 -0.003311755 -0.003852595 1000
lala 1 1.2 1 first 1 1 5 4 5.32 4.0599946975708 -1 1 1 0 -0.00626539 -0.006217155 -0.006257765 1000 1000 1000 -0.00626539 -0.006217155 -0.006257765 1000 1000 1000 -0.004481536 -0.004363312 -0.003890765 -0.004161979 -0.00448698 1000 -0.004481536 -0.004363312 -0.003890765 -0.004161979 -0.00448698 1000
lala 1 1.2 0 second 5 1 6 6 7.98 2.71999597549438 -1 1 -1 0 -0.003807214 -0.003567136 -0.003182312 -0.002775797 -0.002956023 1000 -0.003807214 -0.003567136 -0.003182312 -0.002775797 -0.002956023 1000 -0.003404305 -0.003102774 -0.003178296 -0.003104168 -0.002384039 1000 -0.003404305 -0.003102774 -0.003178296 -0.003104168 -0.002384039 1000
lala 1 1.2 0 second 9 1 7 5 6.65 3.41999530792236 1 1 -1 1 -0.002158378 -0.002270448 -0.001820466 -0.00149887 -0.001632185 1000 -0.002158378 -0.002270448 -0.001820466 -0.00149887 -0.001632185 1000 -0.001419174 -0.001506399 -0.001984691 -0.001844829 -0.001853483 1000 -0.001419174 -0.001506399 -0.001984691 -0.001844829 -0.001853483 1000
lala 2 1.2 1 second 10 1 8 6 5.16 0.739997625350952 1 0 1 1 -0.000654746 -0.0007190681 -0.001274417 -0.0008657292 -0.0007084888 1000 -0.000654746 -0.0007190681 -0.001274417 -0.0008657292 -0.0007084888 1000 -0.001218885 -0.001270614 -0.0006818986 -0.000887579 -0.001279339 1000 -0.001218885 -0.001270614 -0.0006818986 -0.000887579 -0.001279339 1000
lala 2 1.2 1 first 15 1 9 5 5.45 1.15999722480774 0 1 1 0 -0.0006198661 -0.001111657 -0.001426761 1000 1000 1000 -0.0006198661 -0.001111657 -0.001426761 1000 1000 1000 0.0005364885 0.0006940345 0.0008965155 0.001310156 0.001197339 1000 0.0005364885 0.0006940345 0.0008965155 0.001310156 0.001197339 1000
lala 1 1.2 0 first 17 1 10 6 7.98 2.159996509552 0 1 -1 1 -0.001378822 -0.0006762701 -0.0007027384 1000 1000 1000 -0.001378822 -0.0006762701 -0.0007027384 1000 1000 1000 0.001058945 0.001935707 0.001829447 0.001257056 0.001310596 1000 0.001058945 0.001935707 0.001829447 0.001257056 0.001310596 1000
lala 2 1.2 1 first 12 1 11 4 3.84 1.65999698638916 0 0 1 0 -0.0006666206 -0.0007312674 -0.000789941 1000 1000 1000 -0.0006666206 -0.0007312674 -0.000789941 1000 1000 1000 0.001176911 0.000581309 0.00102363 0.001584967 0.001125946 1000 0.001176911 0.000581309 0.00102363 0.001584967 0.001125946 1000
lala 1 1.2 0 first 6 1 12 4 2.64 0.739997625350952 1 0 -1 1 0.003425348 0.004183281 0.004585977 1000 1000 1000 0.003425348 0.004183281 0.004585977 1000 1000 1000 0.006121571 0.006673068 0.006011282 0.005681033 0.005772545 1000 0.006121571 0.006673068 0.006011282 0.005681033 0.005772545 1000
lala 2 1.2 0 first 5 1 13 6 9.18 2.99999570846558 -1 1 -1 0 0.005649099 0.006597836 0.007142751 1000 1000 1000 0.005649099 0.006597836 0.007142751 1000 1000 1000 0.008010074 0.007883263 0.008688017 0.008282637 0.007469919 1000 0.008010074 0.007883263 0.008688017 0.008282637 0.007469919 1000
lala 1 1.2 1 second 7 1 14 4 5.32 0.859997510910034 1 1 1 1 0.006951189 0.006639423 0.006376297 0.006436406 0.006001304 1000 0.006951189 0.006639423 0.006376297 0.006436406 0.006001304 1000 0.006178661 0.007120238 0.007048133 0.006797019 0.007183681 1000 0.006178661 0.007120238 0.007048133 0.006797019 0.007183681 1000
lala 1 1.2 0 second 4 1 15 6 3.96 1.05999732017517 -1 0 -1 0 0.009052163 0.008766891 0.008484951 0.008160011 0.008288614 1000 0.009052163 0.008766891 0.008484951 0.008160011 0.008288614 1000 0.008558098 0.008838104 0.007975089 0.007945945 0.007872392 1000 0.008558098 0.008838104 0.007975089 0.007945945 0.007872392 1000
lala 1 1.2 0 first 8 1 16 5 3.3 2.09999656677246 1 0 -1 0 0.007657259 0.008140705 0.008751737 1000 1000 1000 0.007657259 0.008140705 0.008751737 1000 1000 1000 0.008014415 0.007665212 0.007550823 0.007592218 0.007370462 1000 0.008014415 0.007665212 0.007550823 0.007592218 0.007370462 1000
lala 3 1.2 1 first 15 1 17 5 4.25 2.27999639511108 0 1 1 1 0.006237435 0.006052379 0.007299231 1000 1000 1000 0.006237435 0.006052379 0.007299231 1000 1000 1000 0.008535819 0.008276988 0.00874364 0.00892865 0.008300553 1000 0.008535819 0.008276988 0.00874364 0.00892865 0.008300553 1000
lala 1 1.2 0 second 16 1 18 6 3.96 1.97999668121338 0 0 -1 1 0.008888424 0.009069238 0.009164878 0.009341893 0.01023705 1000 0.008888424 0.009069238 0.009164878 0.009341893 0.01023705 1000 0.00876008 0.008503722 0.008146743 0.007827081 0.007716318 1000 0.00876008 0.008503722 0.008146743 0.007827081 0.007716318 1000
lala 4 1.2 0 second 15 1 19 5 3.05 1.7199969291687 0 1 -1 0 0.00845435 0.007898171 0.008019766 0.007853713 0.007742951 1000 0.00845435 0.007898171 0.008019766 0.007853713 0.007742951 1000 0.009599837 0.009894037 0.009384472 0.009433432 0.009531253 1000 0.009599837 0.009894037 0.009384472 0.009433432 0.009531253 1000
lala 2 1.2 0 first 4 1 20 6 5.16 1.17999720573425 -1 0 -1 0 0.007640506 0.008478111 0.008918718 1000 1000 1000 0.007640506 0.008478111 0.008918718 1000 1000 1000 0.01120007 0.01077437 0.01090843 0.0110363 0.01059377 1000 0.01120007 0.01077437 0.01090843 0.0110363 0.01059377 1000
lala 2 1.2 1 second 14 1 21 5 4.5 0.579997777938843 0 0 1 0 0.008144334 0.004701558 -0.0007329931 -0.001382303 -0.0003725725 1000 0.008144334 0.004701558 -0.0007329931 -0.001382303 -0.0003725725 1000 -0.02227058 -0.02143561 -0.01987535 -0.01834331 -0.0154004 1000 -0.02227058 -0.02143561 -0.01987535 -0.01834331 -0.0154004 1000
lala 2 1.2 1 first 9 1 22 5 7.85 1.65999698638916 1 1 1 1 0.01540127 0.01444793 0.01375134 1000 1000 1000 0.01540127 0.01444793 0.01375134 1000 1000 1000 0.01316201 0.01254039 0.01260441 0.01217817 0.01210913 1000 0.01316201 0.01254039 0.01260441 0.01217817 0.01210913 1000
lala 1 1.2 1 second 11 1 23 6 7.98 1.59999680519104 1 1 1 0 0.004097747 0.007215379 0.009333388 0.01124628 0.01076795 1000 0.004097747 0.007215379 0.009333388 0.01124628 0.01076795 1000 0.0103402 0.01096472 0.01124062 0.01120206 0.01173223 1000 0.0103402 0.01096472 0.01124062 0.01120206 0.01173223 1000
lala 3 1.2 0 first 5 1 24 6 10.38 1.11999726295471 -1 1 -1 1 0.009581565 0.009886757 0.01043794 1000 1000 1000 0.009581565 0.009886757 0.01043794 1000 1000 1000 0.01097892 0.01073529 0.01074529 0.01155921 0.01114958 1000 0.01097892 0.01073529 0.01074529 0.01155921 0.01114958 1000
lala 3 1.2 0 second 14 1 25 5 3.3 0.699997663497925 0 0 -1 1 0.01276328 0.01201293 0.01202487 0.01197386 0.01166351 1000 0.01276328 0.01201293 0.01202487 0.01197386 0.01166351 1000 0.01210542 0.01285716 0.01223799 0.01178141 0.01180737 1000 0.01210542 0.01285716 0.01223799 0.01178141 0.01180737 1000
lala 5 1.2 1 second 15 1 26 5 4.25 2.05999660491943 0 1 1 0 0.01222842 0.01271889 0.01232783 0.0121558 0.01293875 1000 0.01222842 0.01271889 0.01232783 0.0121558 0.01293875 1000 0.01111726 0.01091496 0.01208146 0.01184966 0.0108105 1000 0.01111726 0.01091496 0.01208146 0.01184966 0.0108105 1000
lala 3 1.2 0 second 12 1 27 4 2.64 1.21999716758728 0 0 -1 0 0.01096546 0.01052084 0.01004957 0.01117154 0.01066372 1000 0.01096546 0.01052084 0.01004957 0.01117154 0.01066372 1000 0.01146092 0.01183492 0.01181819 0.01192722 0.01237696 1000 0.01146092 0.01183492 0.01181819 0.01192722 0.01237696 1000
lala 2 1.2 0 first 7 1 28 4 4.12 1.81999683380127 1 1 -1 1 0.01211626 0.01170513 0.01151462 1000 1000 1000 0.01211626 0.01170513 0.01151462 1000 1000 1000 0.01199689 0.01322402 0.0126197 0.01218509 0.01241533 1000 0.01199689 0.01322402 0.0126197 0.01218509 0.01241533 1000
lala 2 1.2 1 second 8 1 29 5 4.5 0.719997644424438 1 0 1 0 0.01243003 0.01236979 0.01269498 0.01333603 0.01296842 1000 0.01243003 0.01236979 0.01269498 0.01333603 0.01296842 1000 0.0124871 0.01320388 0.01295196 0.01290305 0.01340752 1000 0.0124871 0.01320388 0.01295196 0.01290305 0.01340752 1000
lala 1 1.2 1 first 13 1 30 4 5.32 1.57999682426453 0 1 1 0 0.01166453 0.01165362 0.01253687 1000 1000 1000 0.01166453 0.01165362 0.01253687 1000 1000 1000 0.01394685 0.01289362 0.01313394 0.01348203 0.01287834 1000 0.01394685 0.01289362 0.01313394 0.01348203 0.01287834 1000
lala 4 1.2 0 second 5 1 31 6 11.58 2.89999580383301 -1 1 -1 1 0.01378444 0.01405587 0.0139717 0.01443946 0.01482748 1000 0.01378444 0.01405587 0.0139717 0.01443946 0.01482748 1000 0.01324009 0.0134866 0.01363423 0.01333181 0.013811 1000 0.01324009 0.0134866 0.01363423 0.01333181 0.013811 1000
lala 2 1.2 1 second 17 1 32 6 9.18 0.679997682571411 0 1 1 0 0.01522003 0.01522854 0.0163262 0.01587927 0.01528034 1000 0.01522003 0.01522854 0.0163262 0.01587927 0.01528034 1000 0.01524465 0.01538006 0.01501329 0.01604003 0.01523472 1000 0.01524465 0.01538006 0.01501329 0.01604003 0.01523472 1000
lala 1 1.2 0 second 0 1 33 4 2.64 1.21999716758728 -1 0 -1 1 0.01496376 0.01473264 0.01515736 0.01577786 0.01497722 1000 0.01496376 0.01473264 0.01515736 0.01577786 0.01497722 1000 0.01547204 0.01539009 0.01499729 0.01562042 0.01556504 1000 0.01547204 0.01539009 0.01499729 0.01562042 0.01556504 1000
lala 3 1.2 1 first 17 1 34 6 7.98 1.87999677658081 0 1 1 1 0.0142132 0.01417591 0.01496496 1000 1000 1000 0.0142132 0.01417591 0.01496496 1000 1000 1000 0.01576128 0.01509482 0.01472731 0.01453386 0.01447344 1000 0.01576128 0.01509482 0.01472731 0.01453386 0.01447344 1000
lala 1 1.2 0 second 2 1 35 5 3.3 0.479997873306274 -1 0 -1 0 0.01581544 0.01512988 0.01461928 0.01469492 0.0145146 1000 0.01581544 0.01512988 0.01461928 0.01469492 0.0145146 1000 0.01473339 0.01522997 0.01450865 0.01473975 0.01502996 1000 0.01473339 0.01522997 0.01450865 0.01473975 0.01502996 1000
lala 1 1.2 0 first 3 1 36 5 6.65 2.5999960899353 -1 1 -1 0 0.01651759 0.01602842 0.0155152 1000 1000 1000 0.01651759 0.01602842 0.0155152 1000 1000 1000 0.01552873 0.01552202 0.01562152 0.01664771 0.01652059 1000 0.01552873 0.01552202 0.01562152 0.01664771 0.01652059 1000
lala 2 1.2 1 first 2 1 37 5 4.5 2.51999616622925 -1 0 1 1 0.01651318 0.01700884 0.01646676 1000 1000 1000 0.01651318 0.01700884 0.01646676 1000 1000 1000 0.0153592 0.01501267 0.01515614 0.01503787 0.01546769 1000 0.0153592 0.01501267 0.01515614 0.01503787 0.01546769 1000
lala 4 1.2 1 first 17 1 38 6 6.780001 1.69999694824219 0 1 1 1 0.01404276 0.01413737 0.0143179 1000 1000 1000 0.01404276 0.01413737 0.0143179 1000 1000 1000 0.01358501 0.01480054 0.0163709 0.01450706 0.01472207 1000 0.01358501 0.01480054 0.0163709 0.01450706 0.01472207 1000
lala 4 1.2 0 second 14 1 39 5 4.5 1.29999709129334 0 0 -1 1 0.01630821 0.01653757 0.01639596 0.01624769 0.01647564 1000 0.01630821 0.01653757 0.01639596 0.01624769 0.01647564 1000 0.01668836 0.01600701 0.01577024 0.01584413 0.0157122 1000 0.01668836 0.01600701 0.01577024 0.01584413 0.0157122 1000
lala 5 1.2 1 second 5 1 40 6 12.78 0.579997777938843 -1 1 1 1 0.01701253 0.01599245 0.01647245 0.01619209 0.01586138 1000 0.01701253 0.01599245 0.01647245 0.01619209 0.01586138 1000 0.01655658 0.01658912 0.01629797 0.01624691 0.016053 1000 0.01655658 0.01658912 0.01629797 0.01624691 0.016053 1000
lala 2 1.2 0 first 0 1 41 4 3.84 0.699997663497925 -1 0 -1 0 0.01736422 0.0175315 0.01808648 1000 1000 1000 0.01736422 0.0175315 0.01808648 1000 1000 1000 0.01680501 0.01657124 0.01688393 0.01800196 0.01781698 1000 0.01680501 0.01657124 0.01688393 0.01800196 0.01781698 1000
lala 5 1.2 1 second 14 1 42 5 5.7 0.519997835159302 0 0 1 0 0.01752381 0.017833 0.01774921 0.01826294 0.01871685 1000 0.01752381 0.017833 0.01774921 0.01826294 0.01871685 1000 0.0176773 0.01786668 0.01832732 0.01817257 0.0181964 1000 0.0176773 0.01786668 0.01832732 0.01817257 0.0181964 1000
lala 3 1.2 1 second 10 1 43 6 3.96 0.859997510910034 1 0 1 1 0.01954534 0.01902219 0.01853763 0.01887338 0.01853954 1000 0.01954534 0.01902219 0.01853763 0.01887338 0.01853954 1000 0.01763869 0.0183803 0.01801867 0.01774889 0.01791349 1000 0.01763869 0.0183803 0.01801867 0.01774889 0.01791349 1000
lala 2 1.2 0 first 11 1 44 6 6.780001 1.11999726295471 1 1 -1 0 0.01786376 0.01762833 0.01781036 1000 1000 1000 0.01786376 0.01762833 0.01781036 1000 1000 1000 0.01913846 0.01941548 0.0186304 0.01812337 0.01816432 1000 0.01913846 0.01941548 0.0186304 0.01812337 0.01816432 1000
lala 3 1.2 0 first 8 1 45 5 3.3 1.8599967956543 1 0 -1 1 0.01938886 0.02009975 0.0197998 1000 1000 1000 0.01938886 0.02009975 0.0197998 1000 1000 1000 0.01770951 0.01749687 0.01794776 0.01797272 0.01784846 1000 0.01770951 0.01749687 0.01794776 0.01797272 0.01784846 1000
lala 3 1.2 1 second 9 1 46 5 6.650001 2.21999645233154 1 1 1 1 0.01723985 0.01490027 0.01014439 0.00552822 0.003542176 1000 0.01723985 0.01490027 0.01014439 0.00552822 0.003542176 1000 0.01525074 0.01439081 0.01163272 0.009161351 -0.0006624237 1000 0.01525074 0.01439081 0.01163272 0.009161351 -0.0006624237 1000
lala 2 1.2 0 second 13 1 47 4 4.12 0.61999773979187 0 1 -1 0 -0.002206829 -0.001232729 -0.0005076255 -0.0004138711 -0.0008103399 1000 -0.002206829 -0.001232729 -0.0005076255 -0.0004138711 -0.0008103399 1000 0.001489548 0.002026671 0.001602977 0.0008843947 0.001511359 1000 0.001489548 0.002026671 0.001602977 0.0008843947 0.001511359 1000
lala 2 1.2 1 first 6 1 48 4 3.84 5.96000146865845 1 0 1 1 0.002962195 0.00287044 0.003292055 1000 1000 1000 0.002962195 0.00287044 0.003292055 1000 1000 1000 0.003647933 0.003414608 0.004122858 0.004090128 0.003668044 1000 0.003647933 0.003414608 0.004122858 0.004090128 0.003668044 1000
lala 2 1.2 1 second 1 1 49 4 4.12 1.35999703407288 -1 1 1 1 0.005946553 0.005748304 0.006201688 0.006554512 0.005962182 1000 0.005946553 0.005748304 0.006201688 0.006554512 0.005962182 1000 0.007037598 0.006846423 0.00678163 0.007199786 0.008227659 1000 0.007037598 0.006846423 0.00678163 0.007199786 0.008227659 1000
lala 3 1.2 1 second 11 1 50 6 7.98 0.539997816085815 1 1 1 0 0.003798686 0.0009764164 -0.0003304243 -0.000904855 -0.001620229 1000 0.003798686 0.0009764164 -0.0003304243 -0.000904855 -0.001620229 1000 -0.008065507 -0.006742194 -0.006043508 -0.005805797 -0.005584037 1000 -0.008065507 -0.006742194 -0.006043508 -0.005805797 -0.005584037 1000
lala 3 1.2 1 second 0 1 51 4 5.04 0.539997816085815 -1 0 1 0 0.002928765 0.003473972 0.003949923 0.003955552 0.004291574 1000 0.002928765 0.003473972 0.003949923 0.003955552 0.004291574 1000 0.00227797 0.002574312 0.002571157 0.002717723 0.00318594 1000 0.00227797 0.002574312 0.002571157 0.002717723 0.00318594 1000
lala 4 1.2 0 first 9 1 52 5 5.450001 0.659997701644897 1 1 -1 0 0.003776073 0.00360023 0.003700485 1000 1000 1000 0.003776073 0.00360023 0.003700485 1000 1000 1000 0.006394631 0.004239345 0.003586781 0.004088206 0.003097491 1000 0.006394631 0.004239345 0.003586781 0.004088206 0.003097491 1000
lala 6 1.2 1 first 15 1 53 5 3.05 1.69999694824219 0 1 1 1 0.004202851 0.003964989 0.004453265 1000 1000 1000 0.004202851 0.003964989 0.004453265 1000 1000 1000 0.002611367 0.002977119 0.002729165 0.002982604 0.002424201 1000 0.002611367 0.002977119 0.002729165 0.002982604 0.002424201 1000
lala 4 1.2 0 first 8 1 54 5 4.5 1.5399968624115 1 0 -1 0 0.003143387 0.003753875 0.003655748 1000 1000 1000 0.003143387 0.003753875 0.003655748 1000 1000 1000 0.003163139 0.002501908 0.002597204 0.003116899 0.003235536 1000 0.003163139 0.002501908 0.002597204 0.003116899 0.003235536 1000
lala 3 1.2 1 second 7 1 55 4 5.32 0.679997682571411 1 1 1 0 0.003775352 0.003607636 0.003974782 0.004127184 0.0040579 1000 0.003775352 0.003607636 0.003974782 0.004127184 0.0040579 1000 0.003195918 0.004037832 0.003897204 0.003729925 0.003623975 1000 0.003195918 0.004037832 0.003897204 0.003729925 0.003623975 1000
lala 3 1.2 0 first 2 1 56 5 3.3 2.21999645233154 -1 0 -1 0 0.003930435 0.00431391 0.004870272 1000 1000 1000 0.003930435 0.00431391 0.004870272 1000 1000 1000 0.005257634 0.005042204 0.005690644 0.005517125 0.005730786 1000 0.005257634 0.005042204 0.005690644 0.005517125 0.005730786 1000
lala 6 1.2 0 second 14 1 57 5 4.5 1.17999720573425 0 0 -1 0 0.004524994 0.004526166 0.004293821 0.004626622 0.004040672 1000 0.004524994 0.004526166 0.004293821 0.004626622 0.004040672 1000 0.00374187 0.004242111 0.004374327 0.004090639 0.003873931 1000 0.00374187 0.004242111 0.004374327 0.004090639 0.003873931 1000
lala 2 1.2 1 first 16 1 58 6 5.16 1.19999718666077 0 0 1 1 0.002959349 0.002968946 0.002754911 1000 1000 1000 0.002959349 0.002968946 0.002754911 1000 1000 1000 0.002505627 0.002273941 0.001896622 0.002291729 0.002496776 1000 0.002505627 0.002273941 0.001896622 0.002291729 0.002496776 1000
lala 2 1.2 1 second 3 1 59 5 7.85 1.95999670028687 -1 1 1 0 0.003080994 0.003291468 0.002647613 0.002665509 0.003199323 1000 0.003080994 0.003291468 0.002647613 0.002665509 0.003199323 1000 0.002549333 0.002181972 0.002128365 0.00187828 0.002507227 1000 0.002549333 0.002181972 0.002128365 0.00187828 0.002507227 1000
lala 7 1.2 0 first 15 1 60 5 1.85 0.419997930526733 0 1 -1 1 0.003826961 0.003019919 0.002332866 1000 1000 1000 0.003826961 0.003019919 0.002332866 1000 1000 1000 0.003831532 0.004585009 0.0048116 0.005284921 0.004867561 1000 0.003831532 0.004585009 0.0048116 0.005284921 0.004867561 1000
lala 6 1.2 1 second 5 1 61 6 11.58 1.63999700546265 -1 1 1 0 0.01359736 0.01010398 0.006476884 0.006481714 0.01124009 1000 0.01359736 0.01010398 0.006476884 0.006481714 0.01124009 1000 0.006374075 0.007145196 0.00817844 0.008296885 0.008131264 1000 0.006374075 0.007145196 0.00817844 0.008296885 0.008131264 1000
lala 7 1.2 1 first 5 1 62 6 10.38 2.31999635696411 -1 1 1 0 0.005429575 0.006136254 0.007112526 1000 1000 1000 0.005429575 0.006136254 0.007112526 1000 1000 1000 0.007898778 0.007977108 0.007863892 0.007624217 0.007936734 1000 0.007898778 0.007977108 0.007863892 0.007624217 0.007936734 1000
lala 3 1.2 1 first 3 1 63 5 6.650001 0.61999773979187 -1 1 1 0 0.007598139 0.008070495 0.007570958 1000 1000 1000 0.007598139 0.008070495 0.007570958 1000 1000 1000 0.008337958 0.008884393 0.008993004 0.008460755 0.008496218 1000 0.008337958 0.008884393 0.008993004 0.008460755 0.008496218 1000
lala 4 1.2 1 second 3 1 64 5 5.450001 0.339998006820679 -1 1 1 0 0.008517209 0.009131025 0.009002407 0.009202354 0.008929222 1000 0.008517209 0.009131025 0.009002407 0.009202354 0.008929222 1000 0.008815343 0.008290911 0.008902874 0.009162094 0.008915856 1000 0.008815343 0.008290911 0.008902874 0.009162094 0.008915856 1000
lala 4 1.2 0 second 0 1 65 4 3.84 0.839997529983521 -1 0 -1 1 0.009886794 0.009758153 0.009655534 0.009569159 0.009168614 1000 0.009886794 0.009758153 0.009655534 0.009569159 0.009168614 1000 0.009619415 0.009705357 0.009584665 0.008703905 0.008151701 1000 0.009619415 0.009705357 0.009584665 0.008703905 0.008151701 1000
lala 4 1.2 0 second 10 1 66 6 2.76 2.03999662399292 1 0 -1 0 0.004940903 0.01059032 0.01356971 0.01250454 0.01085544 1000 0.004940903 0.01059032 0.01356971 0.01250454 0.01085544 1000 0.01127905 0.01111238 0.01038588 0.009876764 0.00928613 1000 0.01127905 0.01111238 0.01038588 0.009876764 0.00928613 1000
lala 4 1.2 0 first 7 1 67 4 4.12 2.11999654769897 1 1 -1 1 0.009614706 0.009001906 0.008764806 1000 1000 1000 0.009614706 0.009001906 0.008764806 1000 1000 1000 0.009877617 0.01015793 0.01004073 0.00995253 0.009962084 1000 0.009877617 0.01015793 0.01004073 0.00995253 0.009962084 1000
lala 8 1.2 1 second 5 1 68 6 9.18 1.81999683380127 -1 1 1 1 0.01118422 0.01067255 0.0104286 0.009897714 0.01067856 1000 0.01118422 0.01067255 0.0104286 0.009897714 0.01067856 1000 0.01052657 0.01000804 0.01031982 0.009516065 0.009566388 1000 0.01052657 0.01000804 0.01031982 0.009516065 0.009566388 1000
lala 5 1.2 1 second 17 1 69 6 5.580001 1.23999714851379 0 1 1 1 0.01078986 0.01076972 0.01063045 0.01076599 0.01024095 1000 0.01078986 0.01076972 0.01063045 0.01076599 0.01024095 1000 0.01032135 0.01034899 0.0106609 0.01056667 0.01052858 1000 0.01032135 0.01034899 0.0106609 0.01056667 0.01052858 1000
lala 3 1.2 0 second 6 1 70 4 2.64 0.919997453689575 1 0 -1 0 0.009867142 0.01016398 0.009883489 0.009663851 0.01015699 1000 0.009867142 0.01016398 0.009883489 0.009663851 0.01015699 1000 0.009431037 0.01016339 0.01044546 0.01034606 0.01008163 1000 0.009431037 0.01016339 0.01044546 0.01034606 0.01008163 1000
lala 4 1.2 0 second 11 1 71 6 6.780001 1.47999691963196 1 1 -1 0 0.0102082 0.009890455 0.009643178 0.009084901 0.009640116 1000 0.0102082 0.009890455 0.009643178 0.009084901 0.009640116 1000 0.009975208 0.009622929 0.009701722 0.009284381 0.009683077 1000 0.009975208 0.009622929 0.009701722 0.009284381 0.009683077 1000
lala 3 1.2 1 first 4 1 72 6 6.36 0.799997568130493 -1 0 1 0 0.009713759 0.009314506 0.00909768 1000 1000 1000 0.009713759 0.009314506 0.00909768 1000 1000 1000 0.009501757 0.009474662 0.009252705 0.009392588 0.009974692 1000 0.009501757 0.009474662 0.009252705 0.009392588 0.009974692 1000
lala 3 1.2 0 second 1 1 73 4 2.92 1.69999694824219 -1 1 -1 0 0.00798709 0.007960913 0.008860961 0.008963102 0.008647996 1000 0.00798709 0.007960913 0.008860961 0.008963102 0.008647996 1000 0.008524093 0.008426767 0.009484703 0.009730523 0.009302448 1000 0.008524093 0.008426767 0.009484703 0.009730523 0.009302448 1000
lala 5 1.2 0 second 3 1 74 5 4.250001 1.67999696731567 -1 1 -1 0 0.009058507 0.008856814 0.008536746 0.008334927 0.00915272 1000 0.009058507 0.008856814 0.008536746 0.008334927 0.00915272 1000 0.008912063 0.008767209 0.008035442 0.005649957 0.004231324 1000 0.008912063 0.008767209 0.008035442 0.005649957 0.004231324 1000
lala 4 1.2 1 second 6 1 75 4 3.84 0.559997797012329 1 0 1 0 -0.009666223 -0.0106562 -0.009340166 -0.007968526 -0.007457702 1000 -0.009666223 -0.0106562 -0.009340166 -0.007968526 -0.007457702 1000 -0.01716614 -0.01677158 -0.01260952 -0.007576079 -0.005933326 1000 -0.01716614 -0.01677158 -0.01260952 -0.007576079 -0.005933326 1000
lala 5 1.2 0 second 10 1 76 6 3.96 0.639997720718384 1 0 -1 1 0.008792399 0.007705514 0.007190788 0.007229683 0.00841257 1000 0.008792399 0.007705514 0.007190788 0.007229683 0.00841257 1000 0.003296633 0.00450734 0.006897932 0.006911599 0.006499416 1000 0.003296633 0.00450734 0.006897932 0.006911599 0.006499416 1000
lala 9 1.2 1 first 5 1 77 6 7.98 1.59999680519104 -1 1 1 1 0.002916601 0.005051215 0.003482785 1000 1000 1000 0.002916601 0.005051215 0.003482785 1000 1000 1000 0.01501313 0.01248746 0.009399298 0.009228638 0.01022408 1000 0.01501313 0.01248746 0.009399298 0.009228638 0.01022408 1000
lala 4 1.2 1 first 1 1 78 4 4.12 3.59999513626099 -1 1 1 1 0.01318636 0.01539902 0.01598999 1000 1000 1000 0.01318636 0.01539902 0.01598999 1000 1000 1000 0.0133512 0.01346025 0.01261563 0.01076897 0.006333453 1000 0.0133512 0.01346025 0.01261563 0.01076897 0.006333453 1000
lala 6 1.2 0 first 17 1 79 6 4.380001 2.67999601364136 0 1 -1 1 0.002012271 0.0002085054 0.001314586 1000 1000 1000 0.002012271 0.0002085054 0.001314586 1000 1000 1000 0.0008855902 0.00154498 0.002027184 0.002396218 0.002896847 1000 0.0008855902 0.00154498 0.002027184 0.002396218 0.002896847 1000
lala 8 1.2 0 first 15 1 80 5 3.05 0.379997968673706 0 1 -1 1 0.00294435 0.001340908 0.002315771 1000 1000 1000 0.00294435 0.001340908 0.002315771 1000 1000 1000 0.005076277 0.004717804 0.004817979 0.005207001 0.0046773 1000 0.005076277 0.004717804 0.004817979 0.005207001 0.0046773 1000
lala 5 1.2 0 first 8 1 81 5 5.7 1.69999694824219 1 0 -1 1 0.004708364 0.004973382 0.005549649 1000 1000 1000 0.004708364 0.004973382 0.005549649 1000 1000 1000 0.004680606 0.004031616 0.004369804 0.004398208 0.004229924 1000 0.004680606 0.004031616 0.004369804 0.004398208 0.004229924 1000
lala 6 1.2 1 second 8 1 82 5 6.9 0.479997873306274 1 0 1 0 0.003552858 0.003713612 0.003897878 0.004192092 0.003452024 1000 0.003552858 0.003713612 0.003897878 0.004192092 0.003452024 1000 0.003699776 0.003536053 0.003635991 0.003722215 0.003876707 1000 0.003699776 0.003536053 0.003635991 0.003722215 0.003876707 1000
lala 7 1.2 1 second 8 1 83 5 5.7 1.7199969291687 1 0 1 1 0.003179597 0.002796875 0.00371338 0.003820167 0.003711277 1000 0.003179597 0.002796875 0.00371338 0.003820167 0.003711277 1000 0.004591532 0.004427421 0.003806898 0.004171351 0.004200746 1000 0.004591532 0.004427421 0.003806898 0.004171351 0.004200746 1000
lala 5 1.2 1 second 1 1 84 4 2.92 1.19999718666077 -1 1 1 1 0.005977008 0.006200577 0.005262019 0.005576926 0.005590419 1000 0.005977008 0.006200577 0.005262019 0.005576926 0.005590419 1000 0.002390887 0.002152235 0.005477406 0.004026926 0.006123223 1000 0.002390887 0.002152235 0.005477406 0.004026926 0.006123223 1000
lala 5 1.2 1 second 11 1 85 6 7.98 0.439997911453247 1 1 1 1 0.0141496 0.01063774 0.003079839 -0.002755502 -0.002368116 1000 0.0141496 0.01063774 0.003079839 -0.002755502 -0.002368116 1000 0.001907267 0.003225347 0.003916857 0.004452154 0.004724568 1000 0.001907267 0.003225347 0.003916857 0.004452154 0.004724568 1000
lala 5 1.2 1 second 9 1 86 5 6.650001 0.559997797012329 1 1 1 1 0.00618467 0.005611029 0.004381158 0.003624274 0.003902284 1000 0.00618467 0.005611029 0.004381158 0.003624274 0.003902284 1000 0.003101929 0.003398893 0.003999078 0.004078775 0.003841962 1000 0.003101929 0.003398893 0.003999078 0.004078775 0.003841962 1000
lala 6 1.2 1 first 3 1 87 5 5.450001 1.65999698638916 -1 1 1 0 0.004325731 0.004246332 0.004394645 1000 1000 1000 0.004325731 0.004246332 0.004394645 1000 1000 1000 0.004607233 0.004066935 0.004137396 0.004171114 0.003770798 1000 0.004607233 0.004066935 0.004137396 0.004171114 0.003770798 1000
lala 6 1.2 0 first 1 1 88 4 1.72 0.819997549057007 -1 1 -1 0 0.002532752 0.003206518 0.00341285 1000 1000 1000 0.002532752 0.003206518 0.00341285 1000 1000 1000 0.003284374 0.003610634 0.003130432 0.003144939 0.003556164 1000 0.003284374 0.003610634 0.003130432 0.003144939 0.003556164 1000
lala 7 1.2 0 first 3 1 89 5 4.250001 1.31999707221985 -1 1 -1 1 0.002481618 0.002406204 0.002768329 1000 1000 1000 0.002481618 0.002406204 0.002768329 1000 1000 1000 0.003569122 0.002995711 0.002787733 0.002784499 0.002381474 1000 0.003569122 0.002995711 0.002787733 0.002784499 0.002381474 1000
lala 5 1.2 0 first 6 1 90 4 2.64 1.41999697685242 1 0 -1 1 0.001655853 0.002187334 0.002517234 1000 1000 1000 0.001655853 0.002187334 0.002517234 1000 1000 1000 0.01198648 0.01307888 0.0113021 0.01016532 0.01177597 1000 0.01198648 0.01307888 0.0113021 0.01016532 0.01177597 1000
lala 9 1.2 0 second 15 1 91 5 4.25 0.779997587203979 0 1 -1 0 0.001824379 5.536554E-05 -0.002800847 -0.005494453 -0.006739613 1000 0.001824379 5.536554E-05 -0.002800847 -0.005494453 -0.006739613 1000 -0.009864495 -0.009831589 -0.01258686 -0.01276454 -0.01338728 1000 -0.009864495 -0.009831589 -0.01258686 -0.01276454 -0.01338728 1000
lala 7 1.2 0 first 17 1 92 6 5.580001 0.599997758865356 0 1 -1 1 -0.007460591 -0.00843573 -0.0106882 1000 1000 1000 -0.007460591 -0.00843573 -0.0106882 1000 1000 1000 -0.008560617 -0.00858641 -0.00828652 -0.007987998 -0.008763622 1000 -0.008560617 -0.00858641 -0.00828652 -0.007987998 -0.008763622 1000
lala 10 2.4 1 first 5 1 93 6 5.58 0.719997644424438 -1 1 1 0 -0.01022664 -0.009613167 -0.009712908 1000 1000 1000 -0.01022664 -0.009613167 -0.009712908 1000 1000 1000 -0.009595702 -0.009881205 -0.01013896 -0.009887066 -0.00926219 1000 -0.009595702 -0.009881205 -0.01013896 -0.009887066 -0.00926219 1000
lala 11 4.8 0 first 5 1 94 6 1.98 0.739997625350952 -1 1 -1 0 -0.01226674 -0.01154733 -0.01095493 1000 1000 1000 -0.01226674 -0.01154733 -0.01095493 1000 1000 1000 -0.01066783 -0.01086449 -0.01089774 -0.01023146 -0.01045024 1000 -0.01066783 -0.01086449 -0.01089774 -0.01023146 -0.01045024 1000
lala 8 1.2 1 second 3 1 95 5 5.450001 0.979997396469116 -1 1 1 0 -0.01147149 -0.01163304 -0.0114838 -0.01129708 -0.01140386 1000 -0.01147149 -0.01163304 -0.0114838 -0.01129708 -0.01140386 1000 -0.01181501 -0.01207755 -0.01716266 -0.02039586 -0.02032692 1000 -0.01181501 -0.01207755 -0.01716266 -0.02039586 -0.02032692 1000
lala 5 1.2 0 first 7 1 96 4 5.32 1.69999694824219 1 1 -1 1 0.01511153 0.01519294 0.009774847 1000 1000 1000 0.01511153 0.01519294 0.009774847 1000 1000 1000 0.008185021 0.009292839 0.003983457 0.002006562 0.002945086 1000 0.008185021 0.009292839 0.003983457 0.002006562 0.002945086 1000
lala 4 1.2 1 first 2 1 97 5 4.5 0.899997472763062 -1 0 1 1 0.002036998 0.002803571 0.003757515 1000 1000 1000 0.002036998 0.002803571 0.003757515 1000 1000 1000 0.000618955 -0.001541669 -0.005781477 -0.007487173 -0.009307474 1000 0.000618955 -0.001541669 -0.005781477 -0.007487173 -0.009307474 1000
lala 3 1.2 0 first 16 1 98 6 3.96 0.339998006820679 0 0 -1 0 -0.01448329 -0.01464606 -0.01557312 1000 1000 1000 -0.01448329 -0.01464606 -0.01557312 1000 1000 1000 -0.01327311 -0.01246945 -0.01200435 -0.01132409 -0.01032935 1000 -0.01327311 -0.01246945 -0.01200435 -0.01132409 -0.01032935 1000
lala 6 1.2 1 second 10 1 99 6 5.16 2.49999618530273 1 0 1 0 -0.009342088 -0.009203786 -0.01016716 -0.01057612 -0.01075911 1000 -0.009342088 -0.009203786 -0.01016716 -0.01057612 -0.01075911 1000 -0.01299575 -0.01259416 -0.01268273 -0.01225293 -0.0121661 1000 -0.01299575 -0.01259416 -0.01268273 -0.01225293 -0.0121661 1000
lala 12 2.4 1 second 5 1 100 6 4.38 0.759997606277466 -1 1 1 0 0.01810248 0.01702286 0.01820286 0.01913457 0.01889662 1000 0.01810248 0.01702286 0.01820286 0.01913457 0.01889662 1000 0.01740615 0.01694572 0.01655858 0.01655453 0.01552413 1000 0.01740615 0.01694572 0.01655858 0.01655453 0.01552413 1000
lala 8 1.2 0 first 8 1 101 5 4.5 0.439997911453247 1 0 -1 1 0.01040793 0.01138049 0.01153979 1000 1000 1000 0.01040793 0.01138049 0.01153979 1000 1000 1000 0.009581536 0.009531215 0.008166332 0.007952933 0.007874436 1000 0.009581536 0.009531215 0.008166332 0.007952933 0.007874436 1000
lala 4 1.2 0 second 16 1 102 6 5.16 1.11999726295471 0 0 -1 1 0.007012996 0.006445846 0.006842538 0.006567847 0.006526424 1000 0.007012996 0.006445846 0.006842538 0.006567847 0.006526424 1000 0.006632687 0.007271026 0.007189377 0.00700308 0.006246474 1000 0.006632687 0.007271026 0.007189377 0.00700308 0.006246474 1000
lala 8 1.2 1 first 17 1 103 6 6.780001 0.879997491836548 0 1 1 0 0.004441477 0.004413452 0.004449151 1000 1000 1000 0.004441477 0.004413452 0.004449151 1000 1000 1000 0.003460348 0.003833526 0.003916283 0.004071788 0.004767797 1000 0.003460348 0.003833526 0.003916283 0.004071788 0.004767797 1000
lala 6 1.2 1 second 11 1 104 6 6.780001 0.959997415542603 1 1 1 0 0.003862533 0.004259121 0.004438773 0.004390236 0.004880989 1000 0.003862533 0.004259121 0.004438773 0.004390236 0.004880989 1000 0.003705671 0.003583877 0.004252471 0.003668878 0.003534253 1000 0.003705671 0.003583877 0.004252471 0.003668878 0.003534253 1000
lala 7 1.2 1 second 1 1 105 4 2.92 1.63999700546265 -1 1 1 0 0.003022431 0.003427837 0.00371548 0.003598478 0.003355114 1000 0.003022431 0.003427837 0.00371548 0.003598478 0.003355114 1000 0.003663622 0.003177291 0.004671962 0.004271395 0.003665994 1000 0.003663622 0.003177291 0.004671962 0.004271395 0.003665994 1000
lala 7 1.2 0 first 10 1 106 6 3.96 1.17999720573425 1 0 -1 1 0.007397298 0.008089542 0.005724579 1000 1000 1000 0.007397298 0.008089542 0.005724579 1000 1000 1000 -0.01087594 -0.009494361 -0.007513429 -0.003536789 -0.001529493 1000 -0.01087594 -0.009494361 -0.007513429 -0.003536789 -0.001529493 1000
lala 13 1.2 0 second 5 1 107 6 3.18 1.83999681472778 -1 1 -1 0 0.00255449 0.001486107 0.0003375035 0.0003799968 0.0001142569 1000 0.00255449 0.001486107 0.0003375035 0.0003799968 0.0001142569 1000 -0.0001836262 -6.653023E-05 -0.0003740919 0.0001963292 0.0002818024 1000 -0.0001836262 -6.653023E-05 -0.0003740919 0.0001963292 0.0002818024 1000
lala 3 1.2 1 first 13 1 108 4 5.32 1.7199969291687 0 1 1 0 -0.002035537 0.001811049 0.001291093 1000 1000 1000 -0.002035537 0.001811049 0.001291093 1000 1000 1000 0.00291884 0.002022056 0.003531522 0.002833212 0.0009219 1000 0.00291884 0.002022056 0.003531522 0.002833212 0.0009219 1000
lala 7 1.2 1 second 14 1 109 5 5.7 0.539997816085815 0 0 1 0 -0.001393823 -0.002621728 -0.004686908 -0.00340803 -0.002248473 1000 -0.001393823 -0.002621728 -0.004686908 -0.00340803 -0.002248473 1000 -0.003292882 -0.003586596 -0.004712833 -0.004095695 0.0012085 1000 -0.003292882 -0.003586596 -0.004712833 -0.004095695 0.0012085 1000
lala 8 1.2 1 second 10 1 110 6 5.16 2.21999645233154 1 0 1 0 0.003923889 0.003616842 0.002136988 0.0009539265 -0.000757689 1000 0.003923889 0.003616842 0.002136988 0.0009539265 -0.000757689 1000 -0.0003718558 0.0008842246 0.0006532254 0.0003290155 0.0001854314 1000 -0.0003718558 0.0008842246 0.0006532254 0.0003290155 0.0001854314 1000
lala 5 1.2 1 second 0 1 111 4 5.04 1.65999698638916 -1 0 1 0 0.001500289 0.001202637 0.0010792 0.001292205 0.001454016 1000 0.001500289 0.001202637 0.0010792 0.001292205 0.001454016 1000 0.000618354 0.0008410942 0.001080741 0.001146718 0.001467868 1000 0.000618354 0.0008410942 0.001080741 0.001146718 0.001467868 1000
lala 4 1.2 1 second 4 1 112 6 5.16 1.13999724388123 -1 0 1 0 0.0009264529 0.0006895806 7.120686E-05 0.000499335 0.0008124054 1000 0.0009264529 0.0006895806 7.120686E-05 0.000499335 0.0008124054 1000 -0.0005229363 -0.0001209244 -0.0002300533 -0.0006334121 -5.353044E-05 1000 -0.0005229363 -0.0001209244 -0.0002300533 -0.0006334121 -5.353044E-05 1000
lala 6 1.2 1 second 0 1 113 4 3.84 1.31999707221985 -1 0 1 1 -0.001217228 -0.001155931 -0.001047857 -0.0006694389 -0.001594839 1000 -0.001217228 -0.001155931 -0.001047857 -0.0006694389 -0.001594839 1000 -0.002035121 -0.001932386 -0.00160333 -0.001569319 -0.001262816 1000 -0.002035121 -0.001932386 -0.00160333 -0.001569319 -0.001262816 1000
lala 9 1.2 1 second 17 1 114 6 5.580001 0.859997510910034 0 1 1 0 -0.003263712 -0.003375 -0.003722778 -0.00334079 -0.002734289 1000 -0.003263712 -0.003375 -0.003722778 -0.00334079 -0.002734289 1000 -0.003603773 -0.003547819 -0.003532515 -0.003480194 -0.003305462 1000 -0.003603773 -0.003547819 -0.003532515 -0.003480194 -0.003305462 1000
lala 8 1.2 0 second 14 1 115 5 4.5 1.17999720573425 0 0 -1 0 -0.004164357 -0.004751524 -0.004380409 -0.003903012 -0.004306397 1000 -0.004164357 -0.004751524 -0.004380409 -0.003903012 -0.004306397 1000 -0.00410287 -0.00378986 -0.003897953 -0.003971625 -0.003867243 1000 -0.00410287 -0.00378986 -0.003897953 -0.003971625 -0.003867243 1000
lala 4 1.2 0 second 12 1 116 4 3.84 1.13999724388123 0 0 -1 1 -0.004696887 -0.004594978 -0.004519499 -0.004222383 -0.003791254 1000 -0.004696887 -0.004594978 -0.004519499 -0.004222383 -0.003791254 1000 -0.004688636 -0.004008755 -0.003884357 -0.004139246 -0.003885865 1000 -0.004688636 -0.004008755 -0.003884357 -0.004139246 -0.003885865 1000
lala 10 2.4 0 first 15 1 117 5 6.65 2.33999633789063 0 1 -1 0 -0.003996341 -0.003772517 -0.003934854 1000 1000 1000 -0.003996341 -0.003772517 -0.003934854 1000 1000 1000 -0.004429277 -0.004195159 -0.004448799 -0.004012794 -0.004213469 1000 -0.004429277 -0.004195159 -0.004448799 -0.004012794 -0.004213469 1000
lala 14 0.6 1 second 5 1 118 6 3.78 0.639997720718384 -1 1 1 1 -0.003895111 -0.004455242 -0.004076418 -0.004387216 -0.004692679 1000 -0.003895111 -0.004455242 -0.004076418 -0.004387216 -0.004692679 1000 -0.004798243 -0.004764996 -0.004575529 -0.004526358 -0.005112217 1000 -0.004798243 -0.004764996 -0.004575529 -0.004526358 -0.005112217 1000
lala 5 1.2 1 first 12 1 119 4 5.04 1.21999716758728 0 0 1 1 -0.004529218 -0.004676729 -0.004288048 1000 1000 1000 -0.004529218 -0.004676729 -0.004288048 1000 1000 1000 -0.004798443 -0.004648581 -0.004536078 -0.00413449 -0.004865366 1000 -0.004798443 -0.004648581 -0.004536078 -0.00413449 -0.004865366 1000
lala 5 1.2 1 first 16 1 120 6 6.36 0.719997644424438 0 0 1 0 -0.003480206 -0.003415776 -0.003924638 1000 1000 1000 -0.003480206 -0.003415776 -0.003924638 1000 1000 1000 -0.005254623 -0.004876613 -0.004684325 -0.004556016 -0.004222495 1000 -0.005254623 -0.004876613 -0.004684325 -0.004556016 -0.004222495 1000
lala 9 1.2 0 first 14 1 121 5 5.7 2.51999616622925 0 0 -1 1 -0.004570829 -0.003998194 -0.004420442 1000 1000 1000 -0.004570829 -0.003998194 -0.004420442 1000 1000 1000 -0.004857109 -0.004914572 -0.004791126 -0.004580126 -0.004677081 1000 -0.004857109 -0.004914572 -0.004791126 -0.004580126 -0.004677081 1000
lala 10 1.2 0 second 17 1 122 6 4.380001 0.979997396469116 0 1 -1 0 -0.01758583 -0.01354016 -0.0135141 -0.01743965 -0.01780511 1000 -0.01758583 -0.01354016 -0.0135141 -0.01743965 -0.01780511 1000 -0.01415137 -0.002802721 0.0006191228 -0.0001651357 -0.001241142 1000 -0.01415137 -0.002802721 0.0006191228 -0.0001651357 -0.001241142 1000
lala 7 1.2 0 first 11 1 123 6 5.580001 0.61999773979187 1 1 -1 0 0.006967783 0.006746507 0.007344936 1000 1000 1000 0.006967783 0.006746507 0.007344936 1000 1000 1000 0.009307548 0.00909548 0.01032791 0.0101164 0.01005831 1000 0.009307548 0.00909548 0.01032791 0.0101164 0.01005831 1000
lala 10 1.2 1 second 14 1 124 5 6.9 0.499997854232788 0 0 1 0 0.01309463 0.01355116 0.01449856 0.01381624 0.01325471 1000 0.01309463 0.01355116 0.01449856 0.01381624 0.01325471 1000 0.01281391 0.01282442 0.01352661 0.01283249 0.01218855 1000 0.01281391 0.01282442 0.01352661 0.01283249 0.01218855 1000
lala 5 1.2 0 second 2 1 125 5 3.3 1.07999730110168 -1 0 -1 1 0.01195528 0.01167972 0.01131225 0.01190339 0.01141894 1000 0.01195528 0.01167972 0.01131225 0.01190339 0.01141894 1000 0.01121806 0.01105288 0.01121222 0.01199831 0.01147422 1000 0.01121806 0.01105288 0.01121222 0.01199831 0.01147422 1000
lala 6 1.2 1 second 7 1 126 4 6.52 0.559997797012329 1 1 1 1 0.01188126 0.01209579 0.01198602 0.01174511 0.01171877 1000 0.01188126 0.01209579 0.01198602 0.01174511 0.01171877 1000 0.01093968 0.01138445 0.0109799 0.0104966 0.01156954 1000 0.01093968 0.01138445 0.0109799 0.0104966 0.01156954 1000
lala 6 1.2 0 first 6 1 127 4 3.84 0.739997625350952 1 0 -1 1 0.009947406 0.01019004 0.01121237 1000 1000 1000 0.009947406 0.01019004 0.01121237 1000 1000 1000 0.01135287 0.01127333 0.01147291 0.01130792 0.01098583 1000 0.01135287 0.01127333 0.01147291 0.01130792 0.01098583 1000
lala 6 1.2 0 first 9 1 128 5 5.450001 0.819997549057007 1 1 -1 1 0.0100322 0.009660024 0.009607249 1000 1000 1000 0.0100322 0.009660024 0.009607249 1000 1000 1000 0.009738027 0.01022338 0.009542622 0.009252799 0.008943995 1000 0.009738027 0.01022338 0.009542622 0.009252799 0.008943995 1000
lala 6 1.2 1 first 16 1 129 6 5.16 0.539997816085815 0 0 1 1 0.008280274 0.007581958 0.007098912 1000 1000 1000 0.008280274 0.007581958 0.007098912 1000 1000 1000 0.007261502 0.007003837 0.005843896 0.006521937 0.006987297 1000 0.007261502 0.007003837 0.005843896 0.006521937 0.006987297 1000
lala 15 0.3 0 second 5 1 130 6 3.48 0.919997453689575 -1 1 -1 0 0.007618569 0.007621561 0.008312684 0.008010361 0.007474141 1000 0.007618569 0.007621561 0.008312684 0.008010361 0.007474141 1000 0.00719696 0.007008027 0.006709754 0.006871096 0.007436485 1000 0.00719696 0.007008027 0.006709754 0.006871096 0.007436485 1000
lala 8 1.2 0 first 1 1 131 4 1.72 2.13999652862549 -1 1 -1 1 0.00569705 0.005166851 0.005654733 1000 1000 1000 0.00569705 0.005166851 0.005654733 1000 1000 1000 0.005531688 0.005152781 0.004916989 0.00585311 0.005414165 1000 0.005531688 0.005152781 0.004916989 0.00585311 0.005414165 1000
lala 7 1.2 0 first 7 1 132 4 5.32 1.07999730110168 1 1 -1 0 0.005999255 0.005027404 0.005272865 1000 1000 1000 0.005999255 0.005027404 0.005272865 1000 1000 1000 0.005747583 0.005821394 0.005404855 0.005817068 0.006206816 1000 0.005747583 0.005821394 0.005404855 0.005817068 0.006206816 1000
lala 11 0.6 1 first 17 1 133 6 4.980001 0.99999737739563 0 1 1 1 0.005850446 0.005589143 0.004763611 1000 1000 1000 0.005850446 0.005589143 0.004763611 1000 1000 1000 0.00548219 0.006328842 0.006752115 0.006175009 0.00654716 1000 0.00548219 0.006328842 0.006752115 0.006175009 0.00654716 1000
lala 9 1.2 1 first 3 1 134 5 4.250001 1.07999730110168 -1 1 1 0 0.002514677 0.002228394 0.001823892 1000 1000 1000 0.002514677 0.002228394 0.001823892 1000 1000 1000 0.004412456 0.005221502 0.005116968 0.005176981 0.005745289 1000 0.004412456 0.005221502 0.005116968 0.005176981 0.005745289 1000
lala 8 1.2 0 first 7 1 135 4 6.52 1.81999683380127 1 1 -1 1 0.004729034 0.004688137 0.004992273 1000 1000 1000 0.004729034 0.004688137 0.004992273 1000 1000 1000 0.006242052 0.005418594 0.005722492 0.006285448 0.006121181 1000 0.006242052 0.005418594 0.005722492 0.006285448 0.006121181 1000
lala 11 4.8 1 first 15 1 136 5 11.45 0.819997549057007 0 1 1 0 0.005984755 0.00571466 0.005779184 1000 1000 1000 0.005984755 0.00571466 0.005779184 1000 1000 1000 0.007842961 0.008242513 0.007971403 0.008056406 0.008940431 1000 0.007842961 0.008242513 0.007971403 0.008056406 0.008940431 1000
lala 4 1.2 0 second 13 1 137 4 4.12 1.11999726295471 0 1 -1 1 0.007703229 0.007424986 0.007347704 0.007908772 0.008120086 1000 0.007703229 0.007424986 0.007347704 0.007908772 0.008120086 1000 0.008396051 0.009007282 0.008882328 0.008191927 0.008212954 1000 0.008396051 0.009007282 0.008882328 0.008191927 0.008212954 1000
lala 9 1.2 0 second 7 1 138 4 7.719999 2.5999960899353 1 1 -1 0 0.008164541 0.008926259 0.008591463 0.008276831 0.008646667 1000 0.008164541 0.008926259 0.008591463 0.008276831 0.008646667 1000 0.009185795 0.009001737 0.009394216 0.009283365 0.0084401 1000 0.009185795 0.009001737 0.009394216 0.009283365 0.0084401 1000
lala 12 2.4 1 first 15 1 139 5 9.050001 1.7199969291687 0 1 1 0 0.009396289 0.01001761 0.0096742 1000 1000 1000 0.009396289 0.01001761 0.0096742 1000 1000 1000 0.009348954 0.009417447 0.009765483 0.009795094 0.00988486 1000 0.009348954 0.009417447 0.009765483 0.009795094 0.00988486 1000
lala 5 1.2 0 first 13 1 140 4 5.32 1.15999722480774 0 1 -1 1 0.01030383 0.004732978 -0.001039286 1000 1000 1000 0.01030383 0.004732978 -0.001039286 1000 1000 1000 -0.003433241 0.0003494559 0.002363004 -0.004333415 -0.009215631 1000 -0.003433241 0.0003494559 0.002363004 -0.004333415 -0.009215631 1000
lala 6 1.2 1 second 2 1 141 5 4.5 0.01999831199646 -1 0 1 0 0.003673189 0.004108683 0.003788766 0.003640353 0.003269827 1000 0.003673189 0.004108683 0.003788766 0.003640353 0.003269827 1000 -0.0004435125 -0.000860279 -0.000984465 -0.0009701847 -0.0005030429 1000 -0.0004435125 -0.000860279 -0.000984465 -0.0009701847 -0.0005030429 1000
lala 16 0.15 0 second 5 1 142 6 3.63 0.559997797012329 -1 1 -1 1 -0.001069659 -0.0005977501 -0.0005914493 -0.0008657225 -0.0002503132 1000 -0.001069659 -0.0005977501 -0.0005914493 -0.0008657225 -0.0002503132 1000 -0.002262035 -0.001854385 -0.001715381 -0.001825376 -0.001364692 1000 -0.002262035 -0.001854385 -0.001715381 -0.001825376 -0.001364692 1000
lala 10 2.4 1 second 7 1 143 4 10.12 0.439997911453247 1 1 1 0 -0.0001419517 -0.0006264725 -0.0004995165 -0.0002859508 -0.000455254 1000 -0.0001419517 -0.0006264725 -0.0004995165 -0.0002859508 -0.000455254 1000 -0.0006081032 -0.0008727119 -0.000681513 -0.0004183178 -0.0005664875 1000 -0.0006081032 -0.0008727119 -0.000681513 -0.0004183178 -0.0005664875 1000
lala 6 1.2 1 first 12 1 144 4 3.84 1.11999726295471 0 0 1 0 -0.0001092233 -0.0002297689 0.0001593443 1000 1000 1000 -0.0001092233 -0.0002297689 0.0001593443 1000 1000 1000 0.001446735 0.001641474 0.001685687 0.001484873 0.001531872 1000 0.001446735 0.001641474 0.001685687 0.001484873 0.001531872 1000
lala 7 1.2 1 second 16 1 145 6 3.96 0.61999773979187 0 0 1 1 0.002726004 0.003352551 0.003581095 0.003682092 0.004056829 1000 0.002726004 0.003352551 0.003581095 0.003682092 0.004056829 1000 -0.000327594 -0.0005293506 1.995998E-05 0.0004175743 0.0005889327 1000 -0.000327594 -0.0005293506 1.995998E-05 0.0004175743 0.0005889327 1000
lala 17 0.15 1 second 5 1 146 6 3.78 0.679997682571411 -1 1 1 1 0.000318908 -0.0005889529 -0.001079299 -0.000582207 -0.0004642096 1000 0.000318908 -0.0005889529 -0.001079299 -0.000582207 -0.0004642096 1000 -0.001734347 -0.001685266 -0.002506744 -0.002517867 -0.002367967 1000 -0.001734347 -0.001685266 -0.002506744 -0.002517867 -0.002367967 1000
lala 9 1.2 1 first 1 1 147 4 2.92 1.01999735832214 -1 1 1 0 -0.0009745524 -0.0004751886 -0.0009664255 1000 1000 1000 -0.0009745524 -0.0004751886 -0.0009664255 1000 1000 1000 0.0009484173 0.001071509 0.000786407 0.0001320739 0.0001287765 1000 0.0009484173 0.001071509 0.000786407 0.0001320739 0.0001287765 1000
lala 9 1.2 0 second 8 1 148 5 5.7 1.8599967956543 1 0 -1 1 0.0009332357 0.0008691065 0.001444974 0.001742435 0.001580355 1000 0.0009332357 0.0008691065 0.001444974 0.001742435 0.001580355 1000 -0.001049325 -0.001402159 -0.001116813 -0.001068365 -0.001121611 1000 -0.001049325 -0.001402159 -0.001116813 -0.001068365 -0.001121611 1000
lala 12 0.3 0 second 17 1 149 6 4.680001 2.37999629974365 0 1 -1 0 -0.002450321 -0.002331988 -0.002118971 -0.002436771 -0.002198309 1000 -0.002450321 -0.002331988 -0.002118971 -0.002436771 -0.002198309 1000 -0.0009231061 -0.0008505399 -0.0005640903 8.248948E-05 -0.0002702231 1000 -0.0009231061 -0.0008505399 -0.0005640903 8.248948E-05 -0.0002702231 1000
lala 10 1.2 1 second 8 1 150 5 6.9 0.639997720718384 1 0 1 1 -0.001596833 -0.0007956089 0.002212589 0.004426638 0.003562677 1000 -0.001596833 -0.0007956089 0.002212589 0.004426638 0.003562677 1000 -0.002977236 -0.003809036 -0.003856054 -0.003330867 -0.003442785 1000 -0.002977236 -0.003809036 -0.003856054 -0.003330867 -0.003442785 1000
lala 11 0.6 1 first 14 1 151 5 6.3 0.419997930526733 0 0 1 0 -0.005828395 -0.005645098 -0.004849945 1000 1000 1000 -0.005828395 -0.005645098 -0.004849945 1000 1000 1000 -0.004789177 -0.005141977 -0.004709402 -0.004677605 -0.005244896 1000 -0.004789177 -0.005141977 -0.004709402 -0.004677605 -0.005244896 1000
lala 7 1.2 1 first 2 1 152 5 3.3 0.899997472763062 -1 0 1 0 -0.005826943 -0.005410227 -0.004622625 1000 1000 1000 -0.005826943 -0.005410227 -0.004622625 1000 1000 1000 -0.005570041 -0.005623173 -0.005031787 -0.004959442 -0.005439943 1000 -0.005570041 -0.005623173 -0.005031787 -0.004959442 -0.005439943 1000
lala 10 1.2 0 first 3 1 153 5 3.050001 1.03999733924866 -1 1 -1 0 -0.006178398 -0.005400459 -0.004942531 1000 1000 1000 -0.006178398 -0.005400459 -0.004942531 1000 1000 1000 -0.005486657 -0.005985199 -0.005170678 -0.005225157 -0.005698908 1000 -0.005486657 -0.005985199 -0.005170678 -0.005225157 -0.005698908 1000
lala 7 1.2 1 second 0 1 154 4 2.64 1.15999722480774 -1 0 1 0 -0.004919055 -0.005614901 -0.005368539 -0.005500542 -0.005895682 1000 -0.004919055 -0.005614901 -0.005368539 -0.005500542 -0.005895682 1000 -0.005577478 -0.005355919 -0.005846262 -0.005307543 -0.004955657 1000 -0.005577478 -0.005355919 -0.005846262 -0.005307543 -0.004955657 1000
lala 13 0.15 0 second 17 1 155 6 4.830001 0.979997396469116 0 1 -1 1 -0.006141395 -0.005888539 -0.00584045 -0.005065458 -0.004402945 1000 -0.006141395 -0.005888539 -0.00584045 -0.005065458 -0.004402945 1000 -0.004789321 -0.004729782 -0.004820347 -0.005023152 -0.004769585 1000 -0.004789321 -0.004729782 -0.004820347 -0.005023152 -0.004769585 1000
lala 11 1.2 1 second 7 1 156 4 8.919999 0.459997892379761 1 1 1 0 -0.001801372 -0.001862562 -0.001369087 -0.0009677637 -0.001594095 1000 -0.001801372 -0.001862562 -0.001369087 -0.0009677637 -0.001594095 1000 -0.0003675832 -0.0005690629 -0.000628727 0.0004078198 0.001082311 1000 -0.0003675832 -0.0005690629 -0.000628727 0.0004078198 0.001082311 1000
lala 7 1.2 0 first 12 1 157 4 2.64 0.839997529983521 0 0 -1 1 -0.001963721 -0.002164718 -0.00135984 1000 1000 1000 -0.001963721 -0.002164718 -0.00135984 1000 1000 1000 0.0009616177 0.00120888 0.001477517 0.0004921071 0.0003927538 1000 0.0009616177 0.00120888 0.001477517 0.0004921071 0.0003927538 1000
lala 8 1.2 0 first 16 1 158 6 2.76 1.67999696731567 0 0 -1 0 0.0009634042 0.001123514 0.001455729 1000 1000 1000 0.0009634042 0.001123514 0.001455729 1000 1000 1000 0.003325165 0.002895481 0.002975352 0.003916539 0.003305167 1000 0.003325165 0.002895481 0.002975352 0.003916539 0.003305167 1000
lala 10 0.6 1 first 1 1 159 4 2.32 0.519997835159302 -1 1 1 0 0.003265674 0.002623053 0.002256354 1000 1000 1000 0.003265674 0.002623053 0.002256354 1000 1000 1000 -0.002944094 -0.002771178 -0.002535357 -0.003458478 -0.003848383 1000 -0.002944094 -0.002771178 -0.002535357 -0.003458478 -0.003848383 1000
lala 18 0.075 1 first 5 1 160 6 3.705 1.63999700546265 -1 1 1 1 -0.002615088 -0.001985254 -0.001743711 1000 1000 1000 -0.002615088 -0.001985254 -0.001743711 1000 1000 1000 -0.002360129 -0.003154377 -0.003723932 -0.003847871 -0.003824164 1000 -0.002360129 -0.003154377 -0.003723932 -0.003847871 -0.003824164 1000
lala 8 1.2 0 first 12 1 161 4 3.84 0.699997663497925 0 0 -1 1 -0.001850107 -0.00136553 -0.001260248 1000 1000 1000 -0.001850107 -0.00136553 -0.001260248 1000 1000 1000 -0.0003675933 -8.560123E-05 0.0001867283 9.753682E-06 0.0001332195 1000 -0.0003675933 -8.560123E-05 0.0001867283 9.753682E-06 0.0001332195 1000
lala 5 1.2 0 first 4 1 162 6 3.96 4.35999441146851 -1 0 -1 1 -0.0002600797 -0.0006226337 -0.0007641034 1000 1000 1000 -0.0002600797 -0.0006226337 -0.0007641034 1000 1000 1000 -0.0003455336 -5.159442E-05 -0.0009414431 -0.001044311 -0.0006664824 1000 -0.0003455336 -5.159442E-05 -0.0009414431 -0.001044311 -0.0006664824 1000
lala 11 0.6 1 second 8 1 163 5 6.3 0.819997549057007 1 0 1 1 0.004133561 0.003234385 0.003195144 0.003543487 0.002972742 1000 0.004133561 0.003234385 0.003195144 0.003543487 0.002972742 1000 0.001755812 0.002205674 0.002927059 0.002775303 0.00189158 1000 0.001755812 0.002205674 0.002927059 0.002775303 0.00189158 1000
lala 12 1.2 1 first 7 1 164 4 7.719999 1.13999724388123 1 1 1 0 0.02435295 0.0210271 0.01636209 1000 1000 1000 0.02435295 0.0210271 0.01636209 1000 1000 1000 -0.001226354 0.001487893 0.002497732 0.003419102 0.004822752 1000 -0.001226354 0.001487893 0.002497732 0.003419102 0.004822752 1000
lala 12 0.6 1 first 14 1 165 5 5.7 1.13999724388123 0 0 1 1 -0.005028055 -0.004257267 -0.004070966 1000 1000 1000 -0.005028055 -0.004257267 -0.004070966 1000 1000 1000 -0.001099924 -0.005024853 -0.01287902 -0.01570771 -0.0126854 1000 -0.001099924 -0.005024853 -0.01287902 -0.01570771 -0.0126854 1000
lala 19 0.075 1 second 5 1 166 6 3.63 0.699997663497925 -1 1 1 0 -0.004691515 -0.003816622 -0.003453535 -0.00270131 -0.002938954 1000 -0.004691515 -0.003816622 -0.003453535 -0.00270131 -0.002938954 1000 -0.003210363 -0.00305624 -0.003122274 -0.003280747 -0.003168152 1000 -0.003210363 -0.00305624 -0.003122274 -0.003280747 -0.003168152 1000
lala 8 1.2 0 first 2 1 167 5 2.1 0.559997797012329 -1 0 -1 0 -0.003199779 -0.00253649 -0.002944007 1000 1000 1000 -0.003199779 -0.00253649 -0.002944007 1000 1000 1000 -0.004778121 -0.004838625 -0.004587566 -0.004838319 -0.004579497 1000 -0.004778121 -0.004838625 -0.004587566 -0.004838319 -0.004579497 1000
lala 9 1.2 1 first 2 1 168 5 3.3 0.799997568130493 -1 0 1 0 -0.004107664 -0.003574169 -0.003765768 1000 1000 1000 -0.004107664 -0.003574169 -0.003765768 1000 1000 1000 -0.004138658 -0.00423393 -0.003188121 -0.003466398 -0.004291173 1000 -0.004138658 -0.00423393 -0.003188121 -0.003466398 -0.004291173 1000
lala 9 1.2 1 second 16 1 169 6 3.96 0.61999773979187 0 0 1 0 -0.003318455 -0.002557435 -0.002573777 -0.003288206 -0.003281792 1000 -0.003318455 -0.002557435 -0.002573777 -0.003288206 -0.003281792 1000 -0.002763794 -0.002898037 -0.002846164 -0.002828158 -0.0037696 1000 -0.002763794 -0.002898037 -0.002846164 -0.002828158 -0.0037696 1000
lala 10 0.6 0 second 2 1 170 5 2.7 0.679997682571411 -1 0 -1 1 -0.002747797 -0.002517734 -0.002553398 -0.002523126 -0.002328501 1000 -0.002747797 -0.002517734 -0.002553398 -0.002523126 -0.002328501 1000 -0.001877076 -0.002603593 -0.002649673 -0.00284199 -0.002820845 1000 -0.001877076 -0.002603593 -0.002649673 -0.00284199 -0.002820845 1000
lala 8 1.2 0 second 11 1 171 6 6.780001 0.599997758865356 1 1 -1 0 -0.001182673 -0.001138067 -0.001001566 -0.001095757 -0.001552575 1000 -0.001182673 -0.001138067 -0.001001566 -0.001095757 -0.001552575 1000 -0.001263106 -0.001078689 -0.001273995 -0.001964009 -0.002385024 1000 -0.001263106 -0.001078689 -0.001273995 -0.001964009 -0.002385024 1000
lala 10 0.6 0 second 16 1 172 6 3.36 1.49999690055847 0 0 -1 1 -0.001725853 -0.001563746 -0.001604542 -0.001364518 -0.001540984 1000 -0.001725853 -0.001563746 -0.001604542 -0.001364518 -0.001540984 1000 -0.002599691 -0.00248778 -0.002690367 -0.003116326 -0.002842024 1000 -0.002599691 -0.00248778 -0.002690367 -0.003116326 -0.002842024 1000
lala 9 1.2 1 second 11 1 173 6 7.98 0.719997644424438 1 1 1 0 -0.0006247578 0.0002652319 -0.0001022988 -0.0002730346 -0.0004408867 1000 -0.0006247578 0.0002652319 -0.0001022988 -0.0002730346 -0.0004408867 1000 -0.00114257 -0.001527474 -0.00194726 -0.001843392 -0.00232761 1000 -0.00114257 -0.001527474 -0.00194726 -0.001843392 -0.00232761 1000
lala 12 0.6 0 first 8 1 174 5 5.7 0.939997434616089 1 0 -1 1 0.01717484 0.02641652 0.02856367 1000 1000 1000 0.01717484 0.02641652 0.02856367 1000 1000 1000 0.004200702 0.01013693 0.01005583 0.006734611 0.008578692 1000 0.004200702 0.01013693 0.01005583 0.006734611 0.008578692 1000
lala 11 0.3 0 second 2 1 175 5 3 0.559997797012329 -1 0 -1 0 0.004722343 0.004392263 0.005011301 0.005336778 0.003805078 1000 0.004722343 0.004392263 0.005011301 0.005336778 0.003805078 1000 -0.008699858 -0.006363776 0.0007630511 0.001992685 0.003970822 1000 -0.008699858 -0.006363776 0.0007630511 0.001992685 0.003970822 1000
lala 20 0.075 0 first 5 1 176 6 3.555 0.799997568130493 -1 1 -1 1 0.00417555 0.003919874 0.001802966 1000 1000 1000 0.00417555 0.003919874 0.001802966 1000 1000 1000 0.004048442 0.002750273 0.002847019 0.003586957 0.003389652 1000 0.004048442 0.002750273 0.002847019 0.003586957 0.003389652 1000
lala 21 0.0375 1 first 5 1 177 6 3.5925 1.31999707221985 -1 1 1 0 0.009708337 0.007629253 0.005307813 1000 1000 1000 0.009708337 0.007629253 0.005307813 1000 1000 1000 0.01140988 0.008528754 0.005683793 0.003970461 0.002901644 1000 0.01140988 0.008528754 0.005683793 0.003970461 0.002901644 1000
lala 13 1.2 1 second 7 1 178 4 6.52 0.539997816085815 1 1 1 1 -0.01114541 -0.009898715 -0.008306063 -0.008834577 -0.009835689 1000 -0.01114541 -0.009898715 -0.008306063 -0.008834577 -0.009835689 1000 -0.009719254 -0.009422637 -0.007181064 -0.006352303 -0.008915129 1000 -0.009719254 -0.009422637 -0.007181064 -0.006352303 -0.008915129 1000
lala 14 2.4 0 second 7 1 179 4 4.119999 0.379997968673706 1 1 -1 1 -0.01252729 -0.01276187 -0.01313882 -0.01244952 -0.01100736 1000 -0.01252729 -0.01276187 -0.01313882 -0.01244952 -0.01100736 1000 -0.02006443 -0.02032732 -0.01999263 -0.01990369 -0.017949 1000 -0.02006443 -0.02032732 -0.01999263 -0.01990369 -0.017949 1000
lala 11 0.6 1 first 3 1 180 5 3.650001 0.639997720718384 -1 1 1 1 -0.01714039 -0.01966045 -0.02024515 1000 1000 1000 -0.01714039 -0.01966045 -0.02024515 1000 1000 1000 -0.01852747 -0.02041592 -0.02260555 -0.02374207 -0.02434009 1000 -0.01852747 -0.02041592 -0.02260555 -0.02374207 -0.02434009 1000
lala 12 0.3 1 second 3 1 181 5 3.350001 2.09999656677246 -1 1 1 1 -0.01964135 -0.01951692 -0.01930397 -0.01910381 -0.01944874 1000 -0.01964135 -0.01951692 -0.01930397 -0.01910381 -0.01944874 1000 -0.01949676 -0.01706993 -0.01549485 -0.01399036 -0.01327862 1000 -0.01949676 -0.01706993 -0.01549485 -0.01399036 -0.01327862 1000
lala 13 0.3 0 first 3 1 182 5 3.050001 1.61999702453613 -1 1 -1 0 0.002133409 -9.238691E-05 0.001316632 1000 1000 1000 0.002133409 -9.238691E-05 0.001316632 1000 1000 1000 -0.004417567 -0.002590435 -0.00162395 -0.003474244 -0.004410604 1000 -0.004417567 -0.002590435 -0.00162395 -0.003474244 -0.004410604 1000
lala 9 1.2 0 first 10 1 183 6 3.96 0.559997797012329 1 0 -1 0 -0.004121089 -0.005245105 -0.006137221 1000 1000 1000 -0.004121089 -0.005245105 -0.006137221 1000 1000 1000 -0.01645511 -0.01744985 -0.01573451 -0.01358746 -0.01321421 1000 -0.01645511 -0.01744985 -0.01573451 -0.01358746 -0.01321421 1000
lala 7 1.2 0 second 9 1 184 5 6.650001 1.8599967956543 1 1 -1 1 -0.01612701 -0.01571475 -0.01590949 -0.01532743 -0.0144684 1000 -0.01612701 -0.01571475 -0.01590949 -0.01532743 -0.0144684 1000 -0.02310361 -0.02272902 -0.02184416 -0.02058602 -0.01992111 1000 -0.02310361 -0.02272902 -0.02184416 -0.02058602 -0.01992111 1000
lala 11 0.6 1 first 1 1 185 4 1.72 1.7199969291687 -1 1 1 0 -0.02180668 -0.02342383 -0.0244562 1000 1000 1000 -0.02180668 -0.02342383 -0.0244562 1000 1000 1000 -0.01942107 -0.01875707 -0.01678218 -0.01558992 -0.01595085 1000 -0.01942107 -0.01875707 -0.01678218 -0.01558992 -0.01595085 1000
lala 12 0.6 0 second 1 1 186 4 1.32 0.959997415542603 -1 1 -1 0 0.01551962 0.01271997 0.009276012 0.008740358 0.01147393 1000 0.01551962 0.01271997 0.009276012 0.008740358 0.01147393 1000 0.02277223 0.02915845 0.02942634 0.02610181 0.02112304 1000 0.02277223 0.02915845 0.02942634 0.02610181 0.02112304 1000
lala 6 1.2 0 first 4 1 187 6 5.16 1.15999722480774 -1 0 -1 1 0.02226052 0.02240442 0.01886491 1000 1000 1000 0.02226052 0.02240442 0.01886491 1000 1000 1000 0.00993666 0.01025215 0.01053397 0.01016187 0.01067527 1000 0.00993666 0.01025215 0.01053397 0.01016187 0.01067527 1000
lala 14 0.15 0 second 3 1 188 5 3.200001 0.779997587203979 -1 1 -1 0 0.005407156 0.005303612 0.005232959 0.005102402 0.004048577 1000 0.005407156 0.005303612 0.005232959 0.005102402 0.004048577 1000 0.002901215 0.002559021 0.002401701 0.002433461 0.002640551 1000 0.002901215 0.002559021 0.002401701 0.002433461 0.002640551 1000
lala 9 1.2 1 second 12 1 189 4 5.04 0.439997911453247 0 0 1 0 -0.005307255 -0.007892289 -0.01217731 -0.01037072 -0.00772342 1000 -0.005307255 -0.007892289 -0.01217731 -0.01037072 -0.00772342 1000 -0.008263399 -0.005044755 0.001321003 0.002504638 0.008460372 1000 -0.008263399 -0.005044755 0.001321003 0.002504638 0.008460372 1000
lala 13 0.3 1 second 8 1 190 5 6 0.519997835159302 1 0 1 1 0.001776947 0.0003820937 -0.0003654246 0.0008420532 0.002150897 1000 0.001776947 0.0003820937 -0.0003654246 0.0008420532 0.002150897 1000 -0.001957695 -0.002308245 -0.002781081 -0.002703209 -0.00341466 1000 -0.001957695 -0.002308245 -0.002781081 -0.002703209 -0.00341466 1000
lala 15 1.2 0 second 7 1 191 4 5.32 0.559997797012329 1 1 -1 0 -0.004996557 -0.004853947 -0.00516057 -0.005526796 -0.005833178 1000 -0.004996557 -0.004853947 -0.00516057 -0.005526796 -0.005833178 1000 -0.006137186 -0.006643431 -0.005915378 -0.005781706 -0.005835821 1000 -0.006137186 -0.006643431 -0.005915378 -0.005781706 -0.005835821 1000
lala 22 0.01875 1 second 5 1 192 6 3.57375 1.35999703407288 -1 1 1 0 -0.006265027 -0.006157703 -0.006789142 -0.006585876 -0.006419213 1000 -0.006265027 -0.006157703 -0.006789142 -0.006585876 -0.006419213 1000 -0.007881273 -0.007994798 -0.007716361 -0.00875609 -0.00860338 1000 -0.007881273 -0.007994798 -0.007716361 -0.00875609 -0.00860338 1000
lala 13 0.6 1 first 14 1 193 5 5.1 1.05999732017517 0 0 1 1 -0.009003838 -0.008930582 -0.00871625 1000 1000 1000 -0.009003838 -0.008930582 -0.00871625 1000 1000 1000 -0.008739481 -0.009020858 -0.008363055 -0.008164869 -0.008431842 1000 -0.008739481 -0.009020858 -0.008363055 -0.008164869 -0.008431842 1000
lala 7 1.2 1 first 6 1 194 4 5.04 0.719997644424438 1 0 1 1 -0.009166623 -0.009138688 -0.009016939 1000 1000 1000 -0.009166623 -0.009138688 -0.009016939 1000 1000 1000 -0.01020473 -0.0101762 -0.01064032 -0.01061133 -0.0106384 1000 -0.01020473 -0.0101762 -0.01064032 -0.01061133 -0.0106384 1000
lala 23 0.01875 0 second 5 1 195 6 3.555 1.41999697685242 -1 1 -1 1 -0.009867158 -0.009556125 -0.010082 -0.009823001 -0.009906423 1000 -0.009867158 -0.009556125 -0.010082 -0.009823001 -0.009906423 1000 -0.01070453 -0.01003147 -0.009969815 -0.01057981 -0.01049105 1000 -0.01070453 -0.01003147 -0.009969815 -0.01057981 -0.01049105 1000
lala 10 0.6 1 second 10 1 196 6 4.56 0.979997396469116 1 0 1 0 -0.00950793 -0.00894489 -0.009508714 -0.008338544 -0.0068517 1000 -0.00950793 -0.00894489 -0.009508714 -0.008338544 -0.0068517 1000 -0.002957522 -0.001926505 0.002717792 0.003536429 -0.002931208 1000 -0.002957522 -0.001926505 0.002717792 0.003536429 -0.002931208 1000
lala 13 0.3 0 second 1 1 197 4 1.62 0.659997701644897 -1 1 -1 1 -0.0004494856 -0.001132152 -0.002620553 0.0006726578 -0.004802961 1000 -0.0004494856 -0.001132152 -0.002620553 0.0006726578 -0.004802961 1000 -0.01274255 -0.01548569 -0.01552824 -0.01582176 -0.01733607 1000 -0.01274255 -0.01548569 -0.01552824 -0.01582176 -0.01733607 1000
lala 24 0.009375 0 first 5 1 198 6 3.564375 1.43999695777893 -1 1 -1 1 -0.01559548 -0.00841064 -0.003434308 1000 1000 1000 -0.01559548 -0.00841064 -0.003434308 1000 1000 1000 -0.001795115 -0.001041187 0.001195775 0.001894564 -0.0002588039 1000 -0.001795115 -0.001041187 0.001195775 0.001894564 -0.0002588039 1000
lala 11 0.3 1 second 16 1 199 6 3.66 1.27999711036682 0 0 1 0 -0.005789218 -0.004982352 -0.004784989 -0.004613226 -0.004563544 1000 -0.005789218 -0.004982352 -0.004784989 -0.004613226 -0.004563544 1000 -0.00419791 -0.003888709 -0.004553131 -0.005325672 -0.006417816 1000 -0.00419791 -0.003888709 -0.004553131 -0.005325672 -0.006417816 1000
lala 12 0.3 1 second 2 1 200 5 3.3 0.339998006820679 -1 0 1 1 -0.008556194 -0.006784655 -0.00574739 -0.004855175 -0.004360697 1000 -0.008556194 -0.006784655 -0.00574739 -0.004855175 -0.004360697 1000 -0.006883401 -0.006764131 -0.006824529 -0.007343416 -0.007449483 1000 -0.006883401 -0.006764131 -0.006824529 -0.007343416 -0.007449483 1000
lala 14 0.15 1 second 17 1 201 6 4.980001 1.33999705314636 0 1 1 1 -0.007157039 -0.006649386 -0.006713972 -0.007003439 -0.006452562 1000 -0.007157039 -0.006649386 -0.006713972 -0.007003439 -0.006452562 1000 -0.006124476 -0.006359075 -0.006601706 -0.006775459 -0.007084731 1000 -0.006124476 -0.006359075 -0.006601706 -0.006775459 -0.007084731 1000
lala 25 0.009375 0 first 5 1 202 6 3.57375 3.55999517440796 -1 1 -1 0 -0.01044843 -0.00747669 -0.005893859 1000 1000 1000 -0.01044843 -0.00747669 -0.005893859 1000 1000 1000 -0.008915458 -0.004562712 -0.0007999297 -0.0009227087 -0.0006339323 1000 -0.008915458 -0.004562712 -0.0007999297 -0.0009227087 -0.0006339323 1000
lala 11 0.3 1 second 10 1 203 6 4.26 1.51999688148499 1 0 1 0 0.01013896 0.009830402 0.01043006 0.01019351 0.01044955 1000 0.01013896 0.009830402 0.01043006 0.01019351 0.01044955 1000 0.01276018 0.01194735 0.0113702 0.01161433 0.01190443 1000 0.01276018 0.01194735 0.0113702 0.01161433 0.01190443 1000
lala 12 0.3 0 first 10 1 204 6 3.96 0.939997434616089 1 0 -1 0 0.01109953 0.01202569 0.01373568 1000 1000 1000 0.01109953 0.01202569 0.01373568 1000 1000 1000 0.01091773 0.01074008 0.01065178 0.01175543 0.0129428 1000 0.01091773 0.01074008 0.01065178 0.01175543 0.0129428 1000
lala 14 0.3 0 first 1 1 205 4 1.92 1.13999724388123 -1 1 -1 1 0.01317472 0.01305183 0.0121125 1000 1000 1000 0.01317472 0.01305183 0.0121125 1000 1000 1000 0.01247524 0.01298884 0.01304026 0.01289684 0.01331797 1000 0.01247524 0.01298884 0.01304026 0.01289684 0.01331797 1000
lala 13 2.4 1 second 15 1 206 5 6.650001 0.559997797012329 0 1 1 1 0.01386017 0.01455423 0.01422408 0.01398706 0.01445684 1000 0.01386017 0.01455423 0.01422408 0.01398706 0.01445684 1000 0.01361169 0.01405701 0.01471947 0.01517312 0.01462463 1000 0.01361169 0.01405701 0.01471947 0.01517312 0.01462463 1000
lala 26 0.009375 1 first 5 1 207 6 3.583126 0.879997491836548 -1 1 1 1 0.01201921 0.01201798 0.01332936 1000 1000 1000 0.01201921 0.01201798 0.01332936 1000 1000 1000 -0.005868208 -0.008333911 -0.009335553 -0.01185358 -0.01287909 1000 -0.005868208 -0.008333911 -0.009335553 -0.01185358 -0.01287909 1000
lala 13 0.15 1 second 2 1 208 5 3.15 1.79999685287476 -1 0 1 1 -0.002408785 -0.01207414 -0.03226962 -0.04402146 -0.04933417 1000 -0.002408785 -0.01207414 -0.03226962 -0.04402146 -0.04933417 1000 -0.02873897 -0.02224126 -0.0148923 -0.01295087 -0.01319886 1000 -0.02873897 -0.02224126 -0.0148923 -0.01295087 -0.01319886 1000
lala 14 1.2 1 second 14 1 209 5 3.9 0.359997987747192 0 0 1 0 0.01990392 0.02178982 0.02293091 0.0218705 0.02043976 1000 0.01990392 0.02178982 0.02293091 0.0218705 0.02043976 1000 0.01706121 0.01563477 0.01524638 0.01449783 0.0128881 1000 0.01706121 0.01563477 0.01524638 0.01449783 0.0128881 1000
lala 10 0.6 0 second 11 1 210 6 7.380001 0.339998006820679 1 1 -1 0 0.008752505 0.008814108 0.009002914 0.009127081 0.008784384 1000 0.008752505 0.008814108 0.009002914 0.009127081 0.008784384 1000 0.007262126 0.006912431 0.006399265 0.007074103 0.006328697 1000 0.007262126 0.006912431 0.006399265 0.007074103 0.006328697 1000
lala 10 0.6 1 second 12 1 211 4 4.44 0.599997758865356 0 0 1 1 0.007151578 0.007304633 0.007192186 0.007414503 0.006164641 1000 0.007151578 0.007304633 0.007192186 0.007414503 0.006164641 1000 0.005994423 0.005718368 0.004941435 0.005122455 0.004614565 1000 0.005994423 0.005718368 0.004941435 0.005122455 0.004614565 1000
lala 14 2.4 0 first 15 1 212 5 4.250001 1.45999693870544 0 1 -1 1 0.002101167 0.003123782 0.002882563 1000 1000 1000 0.002101167 0.003123782 0.002882563 1000 1000 1000 0.001194478 0.00180925 0.00216006 0.00170205 0.001220435 1000 0.001194478 0.00180925 0.00216006 0.00170205 0.001220435 1000
lala 27 0.0046875 1 second 5 1 213 6 3.578438 1.07999730110168 -1 1 1 0 -0.003365121 -0.004350878 -0.003975565 -0.00287394 -0.001180396 1000 -0.003365121 -0.004350878 -0.003975565 -0.00287394 -0.001180396 1000 0.004479035 0.003649594 0.003052254 0.001759383 0.001203114 1000 0.004479035 0.003649594 0.003052254 0.001759383 0.001203114 1000
lala 16 1.2 0 first 7 1 214 4 6.52 0.559997797012329 1 1 -1 0 0.001989985 0.002513629 0.002806702 1000 1000 1000 0.001989985 0.002513629 0.002806702 1000 1000 1000 0.01896343 0.01732111 0.01702325 0.01712369 0.01450921 1000 0.01896343 0.01732111 0.01702325 0.01712369 0.01450921 1000
lala 8 1.2 0 first 6 1 215 4 3.84 0.339998006820679 1 0 -1 0 -0.002318945 0.002615823 0.0025669 1000 1000 1000 -0.002318945 0.002615823 0.0025669 1000 1000 1000 0.009255276 0.009027226 0.009654857 0.009478541 0.008640507 1000 0.009255276 0.009027226 0.009654857 0.009478541 0.008640507 1000
lala 15 1.2 1 first 15 1 216 5 5.450001 0.879997491836548 0 1 1 1 0.005759951 0.006332328 0.008061968 1000 1000 1000 0.005759951 0.006332328 0.008061968 1000 1000 1000 0.009558197 0.009955921 0.009540444 0.01002014 0.00988414 1000 0.009558197 0.009955921 0.009540444 0.01002014 0.00988414 1000
lala 15 0.15 1 second 3 1 217 5 3.350001 1.37999701499939 -1 1 1 1 0.01099929 0.01093501 0.01067279 0.01157739 0.01182657 1000 0.01099929 0.01093501 0.01067279 0.01157739 0.01182657 1000 0.01042686 0.01112472 0.01123521 0.01074614 0.01139325 1000 0.01042686 0.01112472 0.01123521 0.01074614 0.01139325 1000
lala 15 0.075 0 first 17 1 218 6 4.905001 0.439997911453247 0 1 -1 1 0.01412184 0.01415132 0.0135095 1000 1000 1000 0.01412184 0.01415132 0.0135095 1000 1000 1000 0.01072354 0.01163436 0.0122785 0.0121541 0.012362 1000 0.01072354 0.01163436 0.0122785 0.0121541 0.012362 1000
lala 8 1.2 0 first 0 1 219 4 1.44 1.13999724388123 -1 0 -1 1 0.01243224 0.01196409 0.01168604 1000 1000 1000 0.01243224 0.01196409 0.01168604 1000 1000 1000 0.009602677 0.008643088 0.00809903 0.008236101 0.008482522 1000 0.009602677 0.008643088 0.00809903 0.008236101 0.008482522 1000
lala 7 1.2 0 first 4 1 220 6 6.36 1.15999722480774 -1 0 -1 0 0.01295665 0.01285317 0.01384869 1000 1000 1000 0.01295665 0.01285317 0.01384869 1000 1000 1000 -0.002143723 -0.003921517 -0.002444218 -0.003242222 -0.005811175 1000 -0.002143723 -0.003921517 -0.002444218 -0.003242222 -0.005811175 1000
lala 14 0.15 1 first 8 1 221 5 5.85 0.459997892379761 1 0 1 0 -0.01597578 -0.01740009 -0.01878153 1000 1000 1000 -0.01597578 -0.01740009 -0.01878153 1000 1000 1000 0.01860101 0.01871539 0.01889154 0.01984639 0.02135269 1000 0.01860101 0.01871539 0.01889154 0.01984639 0.02135269 1000
lala 12 0.15 0 first 16 1 222 6 3.51 0.519997835159302 0 0 -1 0 0.01304251 0.01334151 0.01400904 1000 1000 1000 0.01304251 0.01334151 0.01400904 1000 1000 1000 0.01297074 0.01310314 0.01460024 0.01570195 0.01512232 1000 0.01297074 0.01310314 0.01460024 0.01570195 0.01512232 1000
lala 8 1.2 1 second 4 1 223 6 7.559999 0.519997835159302 -1 0 1 1 0.009866428 0.01036658 0.01096592 0.01022338 0.01079178 1000 0.009866428 0.01036658 0.01096592 0.01022338 0.01079178 1000 -0.0007838208 -0.0003610105 0.00200575 0.003271024 0.004298851 1000 -0.0007838208 -0.0003610105 0.00200575 0.003271024 0.004298851 1000
lala 8 1.2 1 second 9 1 224 5 7.85 0.319998025894165 1 1 1 0 0.009093837 0.008822537 0.01196454 0.01499886 0.01632574 1000 0.009093837 0.008822537 0.01196454 0.01499886 0.01632574 1000 0.006602374 0.006125547 0.007546877 0.008803179 0.009542146 1000 0.006602374 0.006125547 0.007546877 0.008803179 0.009542146 1000
lala 11 0.3 1 second 11 1 225 6 7.680001 0.419997930526733 1 1 1 1 -0.0004809829 -0.0003611566 0.001132474 0.002598687 0.003783659 1000 -0.0004809829 -0.0003611566 0.001132474 0.002598687 0.003783659 1000 -2.353033E-05 -0.002072318 -0.002463171 -0.003048812 -0.003117116 1000 -2.353033E-05 -0.002072318 -0.002463171 -0.003048812 -0.003117116 1000
lala 9 1.2 1 second 9 1 226 5 6.650001 0.559997797012329 1 1 1 1 -0.00434272 -0.005351751 -0.005307148 -0.005406873 -0.004404693 1000 -0.00434272 -0.005351751 -0.005307148 -0.005406873 -0.004404693 1000 0.001188211 -0.001800774 -0.0037669 -0.00610166 -0.008491779 1000 0.001188211 -0.001800774 -0.0037669 -0.00610166 -0.008491779 1000
lala 13 0.15 0 first 10 1 227 6 4.11 0.39999794960022 1 0 -1 1 0.00325101 0.00207177 -0.001041414 1000 1000 1000 0.00325101 0.00207177 -0.001041414 1000 1000 1000 -0.001557353 -0.001021903 -0.0015615 -0.003591394 -0.005927169 1000 -0.001557353 -0.001021903 -0.0015615 -0.003591394 -0.005927169 1000
lala 6 1.2 0 second 13 1 228 4 6.52 0.739997625350952 0 1 -1 0 0.002854415 0.002742165 0.0009789175 -0.00162857 -0.003436152 1000 0.002854415 0.002742165 0.0009789175 -0.00162857 -0.003436152 1000 -0.006173921 -0.004328772 -0.002163259 0.0008029718 0.002251278 1000 -0.006173921 -0.004328772 -0.002163259 0.0008029718 0.002251278 1000
lala 17 1.2 1 first 7 1 229 4 7.719999 0.299998044967651 1 1 1 0 -0.00428575 -0.001652228 0.000164169 1000 1000 1000 -0.00428575 -0.001652228 0.000164169 1000 1000 1000 -0.008000445 -0.0055828 -0.003109707 -0.001197741 0.0008842903 1000 -0.008000445 -0.0055828 -0.003109707 -0.001197741 0.0008842903 1000
lala 16 0.075 1 first 3 1 230 5 3.275001 2.63999605178833 -1 1 1 0 -0.006094563 -0.007696677 -0.008144255 1000 1000 1000 -0.006094563 -0.007696677 -0.008144255 1000 1000 1000 -0.005817244 -0.006290465 -0.005707437 -0.006161317 -0.007362483 1000 -0.005817244 -0.006290465 -0.005707437 -0.006161317 -0.007362483 1000
lala 17 0.075 1 first 3 1 231 5 3.200001 0.679997682571411 -1 1 1 1 -0.003335421 -0.003879596 -0.005792066 1000 1000 1000 -0.003335421 -0.003879596 -0.005792066 1000 1000 1000 -0.002552328 -0.004087293 -0.00478233 -0.006547818 -0.008296354 1000 -0.002552328 -0.004087293 -0.00478233 -0.006547818 -0.008296354 1000
lala 16 0.6 0 second 15 1 232 5 4.850001 0.439997911453247 0 1 -1 1 -0.06746636 -0.07434244 -0.07527544 -0.06939547 -0.05880575 1000 -0.06746636 -0.07434244 -0.07527544 -0.06939547 -0.05880575 1000 0.00925776 0.01373258 0.01537385 0.01715827 0.01947988 1000 0.00925776 0.01373258 0.01537385 0.01715827 0.01947988 1000
lala 11 0.6 1 first 12 1 233 4 3.84 0.579997777938843 0 0 1 1 0.002954748 0.003397451 0.005179307 1000 1000 1000 0.002954748 0.003397451 0.005179307 1000 1000 1000 0.005845104 0.005674887 0.005471366 0.004253459 0.004321129 1000 0.005845104 0.005674887 0.005471366 0.004253459 0.004321129 1000
lala 10 1.2 1 second 9 1 234 5 5.450001 0.419997930526733 1 1 1 0 0.004820564 0.005659446 0.005739773 0.006396382 0.005509518 1000 0.004820564 0.005659446 0.005739773 0.006396382 0.005509518 1000 0.004833263 0.005164369 0.004496006 0.005515386 0.006399557 1000 0.004833263 0.005164369 0.004496006 0.005515386 0.006399557 1000
lala 13 0.075 1 first 16 1 235 6 3.585 0.559997797012329 0 0 1 1 0.007437195 0.00718754 0.007177297 1000 1000 1000 0.007437195 0.00718754 0.007177297 1000 1000 1000 0.002911183 0.003737734 0.00448632 0.004879182 0.005233033 1000 0.002911183 0.003737734 0.00448632 0.004879182 0.005233033 1000
lala 15 2.4 0 second 14 1 236 5 1.65 1.25999712944031 0 0 -1 0 0.004705822 0.003997783 0.004414273 0.004432997 0.004203474 1000 0.004705822 0.003997783 0.004414273 0.004432997 0.004203474 1000 0.01266173 0.01243678 0.01248354 0.01231491 0.01045434 1000 0.01266173 0.01243678 0.01248354 0.01231491 0.01045434 1000
lala 14 0.0375 0 second 16 1 237 6 3.5475 0.339998006820679 0 0 -1 1 0.0001157898 -0.001071832 -0.002225125 -0.004855071 -0.004005431 1000 0.0001157898 -0.001071832 -0.002225125 -0.004855071 -0.004005431 1000 0.002583646 0.003848504 0.004480096 0.007761735 0.006821822 1000 0.002583646 0.003848504 0.004480096 0.007761735 0.006821822 1000
lala 14 0.15 1 first 2 1 238 5 3 1.29999709129334 -1 0 1 0 0.02617278 0.0252336 0.02503816 1000 1000 1000 0.02617278 0.0252336 0.02503816 1000 1000 1000 0.01468487 0.01553121 0.01452705 0.01326447 0.01233955 1000 0.01468487 0.01553121 0.01452705 0.01326447 0.01233955 1000
lala 9 1.2 0 first 0 1 239 4 2.64 0.379997968673706 -1 0 -1 1 0.003764537 0.003650006 0.002658416 1000 1000 1000 0.003764537 0.003650006 0.002658416 1000 1000 1000 0.006146298 0.00650767 0.006601043 0.006423075 0.00683325 1000 0.006146298 0.00650767 0.006601043 0.006423075 0.00683325 1000
lala 11 2.4 1 second 9 1 240 5 3.050001 0.499997854232788 1 1 1 0 0.004758257 0.005854469 0.006492751 0.005766082 0.005652876 1000 0.004758257 0.005854469 0.006492751 0.005766082 0.005652876 1000 0.006085123 0.005499357 0.006259488 0.006704188 0.006310969 1000 0.006085123 0.005499357 0.006259488 0.006704188 0.006310969 1000
lala 7 1.2 1 first 13 1 241 4 7.719999 0.319998025894165 0 1 1 1 0.00565144 0.006885338 0.006591937 1000 1000 1000 0.00565144 0.006885338 0.006591937 1000 1000 1000 0.005340184 0.005203821 0.005561113 0.005212883 0.004800812 1000 0.005340184 0.005203821 0.005561113 0.005212883 0.004800812 1000
lala 16 1.2 0 second 14 1 242 5 2.85 0.539997816085815 0 0 -1 0 0.006904673 0.006169659 0.006547953 0.006964182 0.006613556 1000 0.006904673 0.006169659 0.006547953 0.006964182 0.006613556 1000 0.008335109 0.008711057 0.008080125 0.008545582 0.009623959 1000 0.008335109 0.008711057 0.008080125 0.008545582 0.009623959 1000
lala 17 0.3 0 second 15 1 243 5 5.150001 0.459997892379761 0 1 -1 1 0.009504315 0.009085758 0.009226173 0.009566428 0.009244924 1000 0.009504315 0.009085758 0.009226173 0.009566428 0.009244924 1000 0.008897398 0.009457672 0.009174366 0.008669798 0.009213145 1000 0.008897398 0.009457672 0.009174366 0.008669798 0.009213145 1000
lala 9 1.2 0 second 6 1 244 4 5.04 0.419997930526733 1 0 -1 1 0.005445742 0.005150712 0.003928782 0.003380824 0.003802141 1000 0.005445742 0.005150712 0.003928782 0.003380824 0.003802141 1000 0.009011701 0.008542484 0.009137027 0.009362426 0.008911171 1000 0.009011701 0.008542484 0.009137027 0.009362426 0.008911171 1000
lala 18 0.3 1 first 15 1 245 5 5.450001 1.73999691009521 0 1 1 1 0.009265156 0.00818351 0.008339943 1000 1000 1000 0.009265156 0.00818351 0.008339943 1000 1000 1000 0.008933452 0.009089314 0.009290193 0.009897244 0.01045623 1000 0.008933452 0.009089314 0.009290193 0.009897244 0.01045623 1000
lala 15 0.15 1 first 2 1 246 5 2.849999 1.03999733924866 -1 0 1 1 0.01051205 0.0101674 0.01053571 1000 1000 1000 0.01051205 0.0101674 0.01053571 1000 1000 1000 0.01089742 0.01105241 0.01082753 0.01133745 0.0111043 1000 0.01089742 0.01105241 0.01082753 0.01133745 0.0111043 1000
lala 12 4.8 0 first 9 1 247 5 1.65 0.539997816085815 1 1 -1 0 0.01094896 0.01126683 0.01089536 1000 1000 1000 0.01094896 0.01126683 0.01089536 1000 1000 1000 0.01182146 0.01168283 0.01243226 0.0130555 0.01230803 1000 0.01182146 0.01168283 0.01243226 0.0130555 0.01230803 1000
lala 28 0.0046875 1 second 5 1 248 6 3.57375 1.41999697685242 -1 1 1 1 0.0222026 0.02218958 0.02365612 0.02663347 0.03416481 1000 0.0222026 0.02218958 0.02365612 0.02663347 0.03416481 1000 0.02749127 0.02465346 0.01924729 0.01655856 0.0111322 1000 0.02749127 0.02465346 0.01924729 0.01655856 0.0111322 1000
lala 16 0.3 1 first 2 1 249 5 2.549999 1.73999691009521 -1 0 1 0 -0.005767411 -0.003285419 -0.009831272 1000 1000 1000 -0.005767411 -0.003285419 -0.009831272 1000 1000 1000 -0.002683217 -0.001611317 -0.0006712413 -0.002348928 -0.003544263 1000 -0.002683217 -0.001611317 -0.0006712413 -0.002348928 -0.003544263 1000
lala 13 2.4 0 first 9 1 250 5 4.05 0.639997720718384 1 1 -1 0 0.01387479 0.01904299 0.01977867 0.01594821 0.01300514 0.01094477 0.01387479 0.01904299 0.01977867 0.01594821 0.01300514 0.01094477 0.002514375 0.001420564 0.0009870818 0.001335188 0.001433273 1000 0.002514375 0.001420564 0.0009870818 0.001335188 0.001433273 1000
lala 12 0.6 1 second 12 1 251 4 3.24 0.459997892379761 0 0 1 0 -0.0009134597 -0.0007288374 -0.001310467 -0.001096677 -0.0008439625 1000 -0.0009134597 -0.0007288374 -0.001310467 -0.001096677 -0.0008439625 1000 -0.0009221543 -0.001173194 -0.001095218 -0.001908472 -0.001895018 1000 -0.0009221543 -0.001173194 -0.001095218 -0.001908472 -0.001895018 1000
lala 15 0.01875 1 second 16 1 252 6 3.56625 0.339998006820679 0 0 1 1 -0.002858231 -0.002547241 -0.00227222 -0.002122981 -0.002081377 1000 -0.002858231 -0.002547241 -0.00227222 -0.002122981 -0.002081377 1000 -0.002891301 -0.002834512 -0.002113922 -0.002152295 -0.002163233 1000 -0.002891301 -0.002834512 -0.002113922 -0.002152295 -0.002163233 1000
lala 29 0.0046875 0 second 5 1 253 6 3.569063 0.859997510910034 -1 1 -1 0 -0.002986652 -0.002966581 -0.003092935 -0.002883221 -0.002727602 1000 -0.002986652 -0.002966581 -0.003092935 -0.002883221 -0.002727602 1000 -0.003972974 -0.00333923 -0.003339539 -0.003221082 -0.003196465 1000 -0.003972974 -0.00333923 -0.003339539 -0.003221082 -0.003196465 1000
lala 16 0.009375 0 second 16 1 254 6 3.556875 1.45999693870544 0 0 -1 0 -0.003742363 -0.00347467 -0.003511448 -0.004042618 -0.00413541 1000 -0.003742363 -0.00347467 -0.003511448 -0.004042618 -0.00413541 1000 -0.004198335 -0.004056804 -0.003543714 -0.003506338 -0.003566819 1000 -0.004198335 -0.004056804 -0.003543714 -0.003506338 -0.003566819 1000
lala 17 1.2 1 first 14 1 255 5 4.05 1.25999712944031 0 0 1 1 -0.002795243 -0.00288202 -0.003213499 1000 1000 1000 -0.002795243 -0.00288202 -0.003213499 1000 1000 1000 -0.002814905 -0.002671256 -0.002897963 -0.003110617 -0.002680566 1000 -0.002814905 -0.002671256 -0.002897963 -0.003110617 -0.002680566 1000
lala 8 1.2 1 first 13 1 256 4 6.52 1.17999720573425 0 1 1 1 -0.002484817 -0.002307301 -0.002446944 1000 1000 1000 -0.002484817 -0.002307301 -0.002446944 1000 1000 1000 -0.003469883 -0.003003161 -0.002287077 -0.002359831 -0.002907823 1000 -0.003469883 -0.003003161 -0.002287077 -0.002359831 -0.002907823 1000
lala 15 0.15 0 second 8 1 257 5 5.7 0.699997663497925 1 0 -1 1 -0.002885042 -0.003401965 -0.004181288 -0.003743585 -0.003003093 1000 -0.002885042 -0.003401965 -0.004181288 -0.003743585 -0.003003093 1000 -0.002063013 -0.002497311 -0.002294552 -0.002960346 -0.002725661 1000 -0.002063013 -0.002497311 -0.002294552 -0.002960346 -0.002725661 1000
lala 17 0.0046875 0 second 16 1 258 6 3.561562 3.1799955368042 0 0 -1 1 -0.002387739 -0.002803979 -0.003132059 -0.003489604 -0.003963975 1000 -0.002387739 -0.002803979 -0.003132059 -0.003489604 -0.003963975 1000 -0.001376055 -0.0008983349 -0.0009169162 -0.001359193 -0.001233865 1000 -0.001376055 -0.0008983349 -0.0009169162 -0.001359193 -0.001233865 1000
lala 13 1.2 0 first 12 1 259 4 2.04 1.17999720573425 0 0 -1 1 0.003162952 0.003208813 0.002866928 1000 1000 1000 0.003162952 0.003208813 0.002866928 1000 1000 1000 0.00196027 0.001307716 0.0005854944 0.001751089 0.002300442 1000 0.00196027 0.001307716 0.0005854944 0.001751089 0.002300442 1000
lala 14 0.6 0 first 12 1 260 4 2.64 0.699997663497925 0 0 -1 1 0.002255248 0.002370015 0.003452701 1000 1000 1000 0.002255248 0.002370015 0.003452701 1000 1000 1000 0.001886579 0.002318111 0.002576257 0.002296762 0.002265371 1000 0.001886579 0.002318111 0.002576257 0.002296762 0.002265371 1000
lala 16 0.0375 1 second 17 1 261 6 4.942501 0.359997987747192 0 1 1 0 0.003270626 0.002944146 0.003590621 0.003336329 0.003224495 1000 0.003270626 0.002944146 0.003590621 0.003336329 0.003224495 1000 0.002087665 0.002319087 0.002152071 0.002719722 0.003296822 1000 0.002087665 0.002319087 0.002152071 0.002719722 0.003296822 1000
lala 17 0.01875 1 first 17 1 262 6 4.923751 1.79999685287476 0 1 1 0 0.003070457 0.002873902 0.003336866 1000 1000 1000 0.003070457 0.002873902 0.003336866 1000 1000 1000 0.001618933 0.001325913 0.002232496 0.00290558 0.002885783 1000 0.001618933 0.001325913 0.002232496 0.00290558 0.002885783 1000
lala 10 1.2 0 second 0 1 263 4 3.84 1.29999709129334 -1 0 -1 0 0.003501956 0.003039292 0.003055797 0.002456242 0.002112387 1000 0.003501956 0.003039292 0.003055797 0.002456242 0.002112387 1000 0.002216122 0.002508846 0.002538376 0.002205044 0.002244069 1000 0.002216122 0.002508846 0.002538376 0.002205044 0.002244069 1000
lala 17 0.6 1 second 2 1 264 5 1.949999 0.639997720718384 -1 0 1 0 -0.00977591 -0.01804806 -0.01989337 -0.02336946 -0.02877971 1000 -0.00977591 -0.01804806 -0.01989337 -0.02336946 -0.02877971 1000 -0.04163045 -0.03441387 -0.03013008 -0.03056158 -0.03181442 1000 -0.04163045 -0.03441387 -0.03013008 -0.03056158 -0.03181442 1000
lala 9 1.2 1 second 13 1 265 4 5.32 0.859997510910034 0 1 1 1 -0.008238856 -0.00507873 -0.0133941 -0.01538188 -0.01206102 1000 -0.008238856 -0.00507873 -0.0133941 -0.01538188 -0.01206102 1000 0.0088762 0.003247893 0.0008869537 0.00401149 0.003388867 1000 0.0088762 0.003247893 0.0008869537 0.00401149 0.003388867 1000
lala 18 0.6 0 second 14 1 266 5 3.45 1.49999690055847 0 0 -1 1 0.02532053 0.02576718 0.0258256 0.02666218 0.02659403 1000 0.02532053 0.02576718 0.0258256 0.02666218 0.02659403 1000 0.0266473 0.01672621 -0.004666503 -0.03313789 -0.04956288 1000 0.0266473 0.01672621 -0.004666503 -0.03313789 -0.04956288 1000
lala 30 0.00234375 1 second 5 1 267 6 3.571407 0.0599982738494873 -1 1 1 1 -0.01154806 -0.01106375 -0.01086595 -0.009199216 -0.002881427 1000 -0.01154806 -0.01106375 -0.01086595 -0.009199216 -0.002881427 1000 -0.009039375 -0.008182721 -0.007151114 -0.006163003 -0.005287823 1000 -0.009039375 -0.008182721 -0.007151114 -0.006163003 -0.005287823 1000
lala 15 0.6 1 second 12 1 268 4 3.24 0.439997911453247 0 0 1 1 -0.00684999 -0.007010316 -0.007056917 -0.00620812 -0.005959772 1000 -0.00684999 -0.007010316 -0.007056917 -0.00620812 -0.005959772 1000 -0.005282234 -0.005884879 -0.00565802 -0.005223685 -0.005078794 1000 -0.005282234 -0.005884879 -0.00565802 -0.005223685 -0.005078794 1000
lala 10 2.4 0 second 13 1 269 4 2.92 0.479997873306274 0 1 -1 0 -0.005342465 -0.005280489 -0.005335844 -0.005258991 -0.005459154 1000 -0.005342465 -0.005280489 -0.005335844 -0.005258991 -0.005459154 1000 -0.003837749 -0.003867266 -0.003638743 -0.003632719 -0.003384249 1000 -0.003837749 -0.003867266 -0.003638743 -0.003632719 -0.003384249 1000
lala 11 2.4 1 second 0 1 270 4 6.24 0.159998178482056 -1 0 1 0 -0.002951751 -0.002949154 -0.002993739 -0.002838293 -0.00258702 1000 -0.002951751 -0.002949154 -0.002993739 -0.002838293 -0.00258702 1000 -0.001264008 -0.0009694438 -0.0005889139 -0.0005933321 -0.0002840018 1000 -0.001264008 -0.0009694438 -0.0005889139 -0.0005933321 -0.0002840018 1000
lala 11 1.2 0 first 13 1 271 4 4.12 0.379997968673706 0 1 -1 1 -0.0009536049 -0.0009089966 -0.0004598923 1000 1000 1000 -0.0009536049 -0.0009089966 -0.0004598923 1000 1000 1000 0.0006341931 0.0009258267 0.001169121 0.001584997 0.001696306 1000 0.0006341931 0.0009258267 0.001169121 0.001584997 0.001696306 1000
lala 19 0.3 1 first 14 1 272 5 3.75 2.35999631881714 0 0 1 0 0.001668997 0.001516055 0.00146044 1000 1000 1000 0.001668997 0.001516055 0.00146044 1000 1000 1000 0.001101655 0.001461094 0.001529893 0.001842475 0.002351902 1000 0.001101655 0.001461094 0.001529893 0.001842475 0.002351902 1000
lala 12 0.15 1 first 11 1 273 6 7.530001 0.539997816085815 1 1 1 0 0.003744168 0.003578844 0.003965929 1000 1000 1000 0.003744168 0.003578844 0.003965929 1000 1000 1000 0.006699472 0.006178091 0.006703665 0.006219496 0.0066177 1000 0.006699472 0.006178091 0.006703665 0.006219496 0.0066177 1000
lala 9 1.2 1 first 4 1 274 6 6.36 0.379997968673706 -1 0 1 0 -0.02142944 -0.02992743 -0.03407577 1000 1000 1000 -0.02142944 -0.02992743 -0.03407577 1000 1000 1000 0.003377424 0.004210017 0.002255576 0.001359965 0.001599758 1000 0.003377424 0.004210017 0.002255576 0.001359965 0.001599758 1000
lala 10 1.2 1 second 6 1 275 4 6.24 0.319998025894165 1 0 1 0 0.006199827 0.006758119 0.007515405 0.008126901 0.008535342 1000 0.006199827 0.006758119 0.007515405 0.008126901 0.008535342 1000 0.009089647 0.009491094 0.009173208 0.009276441 0.009249603 1000 0.009089647 0.009491094 0.009173208 0.009276441 0.009249603 1000
lala 14 0.15 0 first 10 1 276 6 4.26 2.2999963760376 1 0 -1 1 0.01080432 0.01052089 0.01098037 1000 1000 1000 0.01080432 0.01052089 0.01098037 1000 1000 1000 0.01024927 0.009232203 0.01050457 0.006508555 0.006235463 1000 0.01024927 0.009232203 0.01050457 0.006508555 0.006235463 1000
lala 16 0.075 0 first 8 1 277 5 5.775 0.699997663497925 1 0 -1 1 0.008444979 0.009878783 0.009902592 1000 1000 1000 0.008444979 0.009878783 0.009902592 1000 1000 1000 0.008130958 0.008366361 0.008746029 0.008210217 0.008319006 1000 0.008130958 0.008366361 0.008746029 0.008210217 0.008319006 1000
lala 12 1.2 1 second 13 1 278 4 5.32 0.459997892379761 0 1 1 1 0.01236875 0.01224726 0.01270417 0.01178059 0.0113105 1000 0.01236875 0.01224726 0.01270417 0.01178059 0.0113105 1000 0.01104046 0.01092776 0.01106474 0.01145827 0.01151174 1000 0.01104046 0.01092776 0.01106474 0.01145827 0.01151174 1000
lala 18 1.2 0 first 2 1 279 5 1.65 0.99999737739563 -1 0 -1 0 0.01231303 0.01252309 0.01268438 1000 1000 1000 0.01231303 0.01252309 0.01268438 1000 1000 1000 0.01466481 0.01426046 0.01492163 0.01554301 0.01561374 1000 0.01466481 0.01426046 0.01492163 0.01554301 0.01561374 1000
lala 18 0.6 1 first 7 1 280 4 7.119999 0.259998083114624 1 1 1 1 0.01737329 0.01678621 0.01639436 1000 1000 1000 0.01737329 0.01678621 0.01639436 1000 1000 1000 0.01790202 0.01801895 0.01843794 0.01843526 0.01815923 1000 0.01790202 0.01801895 0.01843794 0.01843526 0.01815923 1000
lala 20 0.15 0 first 14 1 281 5 3.6 5.05999374389648 0 0 -1 1 0.01968863 0.02019619 0.01967053 1000 1000 1000 0.01968863 0.02019619 0.01967053 1000 1000 1000 0.020263 0.02003574 0.02060097 0.02148372 0.02095792 1000 0.020263 0.02003574 0.02060097 0.02148372 0.02095792 1000
lala 12 1.2 1 first 0 1 282 4 5.04 0.819997549057007 -1 0 1 1 0.01555473 0.01470138 0.01532325 1000 1000 1000 0.01555473 0.01470138 0.01532325 1000 1000 1000 0.01658403 0.01685995 0.01692844 0.0169176 0.0173915 1000 0.01658403 0.01685995 0.01692844 0.0169176 0.0173915 1000
lala 17 0.075 0 second 8 1 283 5 5.849999 0.319998025894165 1 0 -1 0 0.01878178 0.01888402 0.01888571 0.01888927 0.01925603 1000 0.01878178 0.01888402 0.01888571 0.01888927 0.01925603 1000 0.01946471 0.01992072 0.02001221 0.02062983 0.02016785 1000 0.01946471 0.01992072 0.02001221 0.02062983 0.02016785 1000
lala 18 0.01875 1 second 17 1 284 6 4.905001 2.63999605178833 0 1 1 0 0.02113235 0.02153452 0.02136189 0.02173368 0.02269022 1000 0.02113235 0.02153452 0.02136189 0.02173368 0.02269022 1000 0.02400682 0.02459925 0.02465431 0.02503048 0.02477648 1000 0.02400682 0.02459925 0.02465431 0.02503048 0.02477648 1000
lala 19 0.6 1 first 2 1 285 5 2.25 0.939997434616089 -1 0 1 0 0.01775087 0.01883941 0.01937668 1000 1000 1000 0.01775087 0.01883941 0.01937668 1000 1000 1000 0.02166733 0.02158954 0.02156418 0.02151129 0.02213468 1000 0.02166733 0.02158954 0.02156418 0.02151129 0.02213468 1000
lala 14 2.4 1 second 9 1 286 5 6.45 2.79999589920044 1 1 1 0 0.02359105 0.02359471 0.02350759 0.0242114 0.02425811 1000 0.02359105 0.02359471 0.02350759 0.0242114 0.02425811 1000 0.02454307 0.02453857 0.02493689 0.0245995 0.02427445 1000 0.02454307 0.02453857 0.02493689 0.0245995 0.02427445 1000
lala 13 0.6 0 second 13 1 287 4 4.72 4.69999408721924 0 1 -1 0 0.02221735 0.02270031 0.02216494 0.02239785 0.02271447 1000 0.02221735 0.02270031 0.02216494 0.02239785 0.02271447 1000 0.02274382 0.02342086 0.02359309 0.02385885 0.02380466 1000 0.02274382 0.02342086 0.02359309 0.02385885 0.02380466 1000
lala 19 0.01875 1 second 17 1 288 6 4.88625 0.61999773979187 0 1 1 0 0.01539736 0.01590547 0.01607859 0.01579233 0.01565622 1000 0.01539736 0.01590547 0.01607859 0.01579233 0.01565622 1000 0.01597206 0.01645032 0.01632043 0.01643581 0.01698018 1000 0.01597206 0.01645032 0.01632043 0.01643581 0.01698018 1000
lala 15 1.2 0 second 9 1 289 5 5.25 0.159998178482056 1 1 -1 1 0.01906866 0.01959187 0.01945999 0.0197361 0.01917468 1000 0.01906866 0.01959187 0.01945999 0.0197361 0.01917468 1000 0.01862538 0.01894642 0.01863397 0.01916485 0.01923072 1000 0.01862538 0.01894642 0.01863397 0.01916485 0.01923072 1000
lala 19 0.15 0 second 15 1 290 5 5.300001 0.899997472763062 0 1 -1 1 0.01914594 0.01898336 0.01843324 0.01886827 0.01903767 1000 0.01914594 0.01898336 0.01843324 0.01886827 0.01903767 1000 0.01889773 0.0188843 0.01882935 0.01905803 0.0191397 1000 0.01889773 0.0188843 0.01882935 0.01905803 0.0191397 1000
lala 20 0.3 1 first 2 1 291 5 1.95 1.11999726295471 -1 0 1 0 0.02005511 0.01990778 0.02070314 1000 1000 1000 0.02005511 0.01990778 0.02070314 1000 1000 1000 0.02110337 0.02099244 0.02127898 0.02096239 0.02134176 1000 0.02110337 0.02099244 0.02127898 0.02096239 0.02134176 1000
lala 31 0.001171875 0 first 5 1 292 6 3.570235 0.499997854232788 -1 1 -1 1 0.02412419 0.02441766 0.02449405 1000 1000 1000 0.02412419 0.02441766 0.02449405 1000 1000 1000 0.02378304 0.02385969 0.0236342 0.02355635 0.0234603 1000 0.02378304 0.02385969 0.0236342 0.02355635 0.0234603 1000
lala 21 0.075 0 second 14 1 293 5 3.675 3.83999490737915 0 0 -1 0 0.02488632 0.02528283 0.02612126 0.02624057 0.0257793 1000 0.02488632 0.02528283 0.02612126 0.02624057 0.0257793 1000 0.03013652 0.03031742 0.02965239 0.02954753 0.03002491 1000 0.03013652 0.03031742 0.02965239 0.02954753 0.03002491 1000
lala 10 1.2 0 first 4 1 295 6 5.16 1.55999684333801 -1 0 -1 0 0.01640431 0.01647475 0.01708574 1000 1000 1000 0.01640431 0.01647475 0.01708574 1000 1000 1000 0.01147965 0.0101571 0.007178799 0.004433904 0.009452347 1000 0.01147965 0.0101571 0.007178799 0.004433904 0.009452347 1000
lala 14 0.3 1 second 13 1 296 4 5.02 0.139998197555542 0 1 1 0 -0.005399371 -0.004410506 -0.006836003 -0.01204207 -0.01554019 1000 -0.005399371 -0.004410506 -0.006836003 -0.01204207 -0.01554019 1000 -0.01596208 -0.01687082 -0.01863325 -0.02007781 -0.0212146 1000 -0.01596208 -0.01687082 -0.01863325 -0.02007781 -0.0212146 1000
lala 18 0.0046875 0 second 16 1 297 6 3.56625 0.279998064041138 0 0 -1 0 -0.009194036 -0.007965897 -0.007008991 -0.007072638 -0.007756245 1000 -0.009194036 -0.007965897 -0.007008991 -0.007072638 -0.007756245 1000 -0.004473127 -0.004324685 -0.00533231 -0.005369113 -0.006038531 1000 -0.004473127 -0.004324685 -0.00533231 -0.005369113 -0.006038531 1000
lala 19 0.6 0 second 7 1 299 4 6.52 0.339998006820679 1 1 -1 1 -0.0009684416 -0.001502068 -0.002017924 -0.002082186 -0.002156828 1000 -0.0009684416 -0.001502068 -0.002017924 -0.002082186 -0.002156828 1000 -0.001249428 -0.000757225 -0.001406314 -0.00169047 -0.001742564 1000 -0.001249428 -0.000757225 -0.001406314 -0.00169047 -0.001742564 1000
lala 16 0.3 0 first 12 1 300 4 2.94 0.379997968673706 0 0 -1 0 -0.02154948 -0.01792813 -0.01535537 -0.01367589 -0.01312762 -0.01316626 -0.02154948 -0.01792813 -0.01535537 -0.01367589 -0.01312762 -0.01316626 -0.01044442 -0.0102277 -0.01077203 -0.01051678 -0.01018744 1000 -0.01044442 -0.0102277 -0.01077203 -0.01051678 -0.01018744 1000
lala 19 0.0046875 0 first 16 1 301 6 3.570937 0.379997968673706 0 0 -1 1 -0.008389615 -0.008230932 -0.008804547 1000 1000 1000 -0.008389615 -0.008230932 -0.008804547 1000 1000 1000 -0.009550293 -0.009381903 -0.009411815 -0.009520289 -0.009198028 1000 -0.009550293 -0.009381903 -0.009411815 -0.009520289 -0.009198028 1000
lala 20 0.075 0 second 15 1 302 5 5.375001 0.379997968673706 0 1 -1 1 -0.007631555 -0.007075226 -0.007734627 -0.008331262 -0.008657563 1000 -0.007631555 -0.007075226 -0.007734627 -0.008331262 -0.008657563 1000 -0.009645913 -0.009452571 -0.009264332 -0.01027016 -0.01029944 1000 -0.009645913 -0.009452571 -0.009264332 -0.01027016 -0.01029944 1000
lala 20 0.0375 1 second 17 1 303 6 4.848751 0.319998025894165 0 1 1 0 -0.01025087 -0.009519807 -0.009011282 -0.008975028 -0.008711578 1000 -0.01025087 -0.009519807 -0.009011282 -0.008975028 -0.008711578 1000 -0.009074233 -0.009785097 -0.009244272 -0.009210212 -0.009332384 1000 -0.009074233 -0.009785097 -0.009244272 -0.009210212 -0.009332384 1000
lala 15 0.3 1 second 1 1 304 4 2.22 2.09999656677246 -1 1 1 1 -0.009727703 -0.009461184 -0.009581505 -0.00949729 -0.009196798 1000 -0.009727703 -0.009461184 -0.009581505 -0.00949729 -0.009196798 1000 -0.009015089 -0.009016093 -0.008804291 -0.008584601 -0.008800962 1000 -0.009015089 -0.009016093 -0.008804291 -0.008584601 -0.008800962 1000
lala 13 1.2 1 second 0 1 305 4 3.84 0.559997797012329 -1 0 1 1 -0.008732017 -0.009100699 -0.009023336 -0.009034196 -0.009081452 1000 -0.008732017 -0.009100699 -0.009023336 -0.009034196 -0.009081452 1000 -0.009277002 -0.00945284 -0.01000098 -0.009927663 -0.009838336 1000 -0.009277002 -0.00945284 -0.01000098 -0.009927663 -0.009838336 1000
lala 18 0.075 0 second 3 1 306 5 3.125001 1.73999691009521 -1 1 -1 0 -0.01062759 -0.01034342 -0.009647026 -0.00980605 -0.009706685 1000 -0.01062759 -0.01034342 -0.009647026 -0.00980605 -0.009706685 1000 -0.01033773 -0.01019884 -0.009960737 -0.00954049 -0.008590975 1000 -0.01033773 -0.01019884 -0.009960737 -0.00954049 -0.008590975 1000
lala 13 0.15 0 second 11 1 307 6 7.380001 0.61999773979187 1 1 -1 0 -0.009935319 -0.01032989 -0.01034237 -0.01027684 -0.01054532 1000 -0.009935319 -0.01032989 -0.01034237 -0.01027684 -0.01054532 1000 -0.01089146 -0.0112471 -0.01295446 -0.01299552 -0.01155726 1000 -0.01089146 -0.0112471 -0.01295446 -0.01299552 -0.01155726 1000
lala 20 0.3 1 first 7 1 309 4 6.82 0.359997987747192 1 1 1 1 -0.01096608 -0.01098943 -0.01059172 1000 1000 1000 -0.01096608 -0.01098943 -0.01059172 1000 1000 1000 -0.008958163 -0.009135566 -0.009277551 -0.01123614 -0.01283049 1000 -0.008958163 -0.009135566 -0.009277551 -0.01123614 -0.01283049 1000
lala 16 0.15 0 second 1 1 310 4 2.07 1.25999712944031 -1 1 -1 0 -0.01035573 -0.01172836 -0.01193658 -0.01148469 -0.01166715 1000 -0.01035573 -0.01172836 -0.01193658 -0.01148469 -0.01166715 1000 -0.01343015 -0.0128699 -0.01297311 -0.01341606 -0.01336327 1000 -0.01343015 -0.0128699 -0.01297311 -0.01341606 -0.01336327 1000
lala 15 0.15 0 first 10 1 311 6 4.41 0.61999773979187 1 0 -1 1 -0.01143314 -0.01208568 -0.01267411 1000 1000 1000 -0.01143314 -0.01208568 -0.01267411 1000 1000 1000 -0.01421435 -0.01481229 -0.0152739 -0.01519547 -0.01400961 1000 -0.01421435 -0.01481229 -0.0152739 -0.01519547 -0.01400961 1000
lala 17 0.075 1 first 1 1 312 4 2.145 0.559997797012329 -1 1 1 0 -0.01464269 -0.01410394 -0.01438059 1000 1000 1000 -0.01464269 -0.01410394 -0.01438059 1000 1000 1000 -0.01586105 -0.0159797 -0.01584508 -0.01620655 -0.01619763 1000 -0.01586105 -0.0159797 -0.01584508 -0.01620655 -0.01619763 1000
lala 16 0.3 0 second 10 1 314 6 4.71 0.39999794960022 1 0 -1 0 -0.01454941 -0.01523844 -0.01565508 -0.01527122 -0.01542031 1000 -0.01454941 -0.01523844 -0.01565508 -0.01527122 -0.01542031 1000 -0.01691364 -0.01686254 -0.01754933 -0.01800759 -0.01730098 1000 -0.01691364 -0.01686254 -0.01754933 -0.01800759 -0.01730098 1000
lala 17 0.15 1 first 12 1 315 4 3.09 3.99999475479126 0 0 1 1 -0.01724786 -0.0169856 -0.01661222 1000 1000 1000 -0.01724786 -0.0169856 -0.01661222 1000 1000 1000 -0.01698274 -0.01715684 -0.01669503 -0.01676998 -0.01651 1000 -0.01698274 -0.01715684 -0.01669503 -0.01676998 -0.01651 1000
lala 11 0.6 1 second 4 1 316 6 5.76 0.0999982357025146 -1 0 1 0 -0.01766426 -0.01760195 -0.01709338 -0.01680431 -0.01765113 1000 -0.01766426 -0.01760195 -0.01709338 -0.01680431 -0.01765113 1000 -0.01091722 -0.01035233 -0.0104548 -0.008701405 -0.006073184 1000 -0.01091722 -0.01035233 -0.0104548 -0.008701405 -0.006073184 1000
lala 12 0.3 1 second 4 1 318 6 5.46 0.23999810218811 -1 0 1 0 0.01285941 0.01579963 0.008650872 -0.005497019 -0.007210166 1000 0.01285941 0.01579963 0.008650872 -0.005497019 -0.007210166 1000 -0.01142019 -0.007977744 -0.005767712 -0.004880154 -0.0061334 1000 -0.01142019 -0.007977744 -0.005767712 -0.004880154 -0.0061334 1000
lala 11 0.6 1 second 6 1 319 4 5.64 0.339998006820679 1 0 1 1 0.005602485 0.005995634 0.006267345 0.005528288 0.00491061 1000 0.005602485 0.005995634 0.006267345 0.005528288 0.00491061 1000 -0.0007424264 -0.001040197 -0.001425709 -0.0008884731 -0.0003488339 1000 -0.0007424264 -0.001040197 -0.001425709 -0.0008884731 -0.0003488339 1000
lala 19 0.0375 1 first 3 1 320 5 3.162501 0.659997701644897 -1 1 1 0 -0.002467106 -0.002404899 -0.002641489 1000 1000 1000 -0.002467106 -0.002404899 -0.002641489 1000 1000 1000 -0.004587548 -0.004807177 -0.004976603 -0.004498764 -0.004738202 1000 -0.004587548 -0.004807177 -0.004976603 -0.004498764 -0.004738202 1000
lala 16 0.6 0 second 9 1 321 5 5.85 0.119998216629028 1 1 -1 1 -0.003753708 -0.003912288 -0.004471783 -0.004519529 -0.00452914 1000 -0.003753708 -0.003912288 -0.004471783 -0.004519529 -0.00452914 1000 -0.006337398 -0.005420927 -0.005530625 -0.005514601 -0.005372622 1000 -0.006337398 -0.005420927 -0.005530625 -0.005514601 -0.005372622 1000
lala 15 0.15 1 first 13 1 322 4 4.87 0.259998083114624 0 1 1 0 -0.007378713 -0.007513558 -0.00752132 1000 1000 1000 -0.007378713 -0.007513558 -0.00752132 1000 1000 1000 -0.005509937 -0.005504274 -0.006142328 -0.005942099 -0.005667573 1000 -0.005509937 -0.005504274 -0.006142328 -0.005942099 -0.005667573 1000
lala 20 0.009375 1 first 16 1 323 6 3.580312 0.499997854232788 0 0 1 1 -0.006795201 -0.006555975 -0.005369324 1000 1000 1000 -0.006795201 -0.006555975 -0.005369324 1000 1000 1000 -0.004866944 -0.004864225 -0.005196463 -0.005194305 -0.00467563 1000 -0.004866944 -0.004864225 -0.005196463 -0.005194305 -0.00467563 1000
lala 21 0.3 1 first 2 1 325 5 1.65 0.559997797012329 -1 0 1 0 -0.003134022 -0.002356044 -0.004406746 1000 1000 1000 -0.003134022 -0.002356044 -0.004406746 1000 1000 1000 -0.01748919 -0.0215213 -0.01673891 -0.01476076 -0.01563032 1000 -0.01748919 -0.0215213 -0.01673891 -0.01476076 -0.01563032 1000
