subject PestNr Step_Size_OnTrial Pest_Faster Pest_Interval Condition block trial velH velH_Pest Reaction_Time velH_Subject Start_Above Response_MotionEstimation RightOrLeftxRotations_first0 xRotations_first1 xRotations_first2 xRotations_first3 xRotations_first4 xRotations_first5 yRotations_first0 yRotations_first1 yRotations_first2 yRotations_first3 yRotations_first4 yRotations_first5 xRotations_second0 xRotations_second1 xRotations_second2 xRotations_second3 xRotations_second4 xRotations_second5 yRotations_second0 yRotations_second1 yRotations_second2 yRotations_second3 yRotations_second4 yRotations_second5
lala 1 1.2 1 first 8 1 1 5 3.3 0.539997816085815 1 0 1 1 -0.01382693 -0.01080461 -0.01325986 -0.0114378 -0.009847289 -0.005760682 -0.01382693 -0.01080461 -0.01325986 -0.0114378 -0.009847289 -0.005760682 0.003925877 0.003231595 0.003110243 0.001924466 0.00161582 1000 0.003925877 0.003231595 0.003110243 0.001924466 0.00161582 1000
lala 1 1.2 0 second 12 1 2 4 2.64 0.739997625350952 0 0 -1 1 0.0005880561 0.001175881 0.0004361208 0.0008640633 0.0008893273 1000 0.0005880561 0.001175881 0.0004361208 0.0008640633 0.0008893273 1000 0.002038555 0.00194082 0.00215139 0.002289963 0.002571029 1000 0.002038555 0.00194082 0.00215139 0.002289963 0.002571029 1000
lala 1 1.2 0 first 14 1 3 5 3.3 1.91999673843384 0 0 -1 1 0.00428595 0.006392995 0.007540029 1000 1000 1000 0.00428595 0.006392995 0.007540029 1000 1000 1000 0.006247059 0.006460709 0.006866894 0.006733788 0.006395674 1000 0.006247059 0.006460709 0.006866894 0.006733788 0.006395674 1000
lala 2 1.2 1 first 14 1 4 5 4.5 0.079998254776001 0 0 1 1 0.004299223 0.004688848 0.004555413 1000 1000 1000 0.004299223 0.004688848 0.004555413 1000 1000 1000 0.006977259 0.007010865 0.006397873 0.006068698 0.006200394 1000 0.006977259 0.007010865 0.006397873 0.006068698 0.006200394 1000
lala 1 1.2 0 first 2 1 5 5 3.3 0.61999773979187 -1 0 -1 0 0.004400128 0.003630067 0.003963625 1000 1000 1000 0.004400128 0.003630067 0.003963625 1000 1000 1000 0.002972821 0.002377709 0.002386107 0.003366874 0.004091816 1000 0.002972821 0.002377709 0.002386107 0.003366874 0.004091816 1000
lala 1 1.2 1 first 17 1 6 6 7.98 0.339998006820679 0 1 1 1 0.002156208 0.002381878 0.00152439 1000 1000 1000 0.002156208 0.002381878 0.00152439 1000 1000 1000 -0.002392962 -0.0027011 -0.00222904 -0.001453038 -0.001455345 1000 -0.002392962 -0.0027011 -0.00222904 -0.001453038 -0.001455345 1000
lala 1 1.2 0 first 6 1 7 4 2.64 1.25999712944031 1 0 -1 1 -0.001513609 -0.001375973 -0.0006231865 1000 1000 1000 -0.001513609 -0.001375973 -0.0006231865 1000 1000 1000 0.0001835065 0.0001307468 0.0003156938 0.0002255674 -0.0002140007 1000 0.0001835065 0.0001307468 0.0003156938 0.0002255674 -0.0002140007 1000
lala 2 1.2 1 first 12 1 8 4 3.84 1.61999702453613 0 0 1 1 -0.001838087 -0.002022684 -0.00154933 1000 1000 1000 -0.001838087 -0.002022684 -0.00154933 1000 1000 1000 0.0008164453 -0.0006057633 -0.002520817 -0.005139413 -0.006866208 1000 0.0008164453 -0.0006057633 -0.002520817 -0.005139413 -0.006866208 1000
lala 1 1.2 1 first 7 1 9 4 5.32 0.23999810218811 1 1 1 1 0.007471923 0.006540577 0.006274338 1000 1000 1000 0.007471923 0.006540577 0.006274338 1000 1000 1000 0.02695885 0.01958069 0.006193701 -0.00137638 -0.004529913 1000 0.02695885 0.01958069 0.006193701 -0.00137638 -0.004529913 1000
lala 1 1.2 1 first 11 1 10 6 7.98 0.639997720718384 1 1 1 1 -0.00536876 -0.01255297 -0.0201744 1000 1000 1000 -0.00536876 -0.01255297 -0.0201744 1000 1000 1000 -0.01429834 -0.01672886 -0.01986107 -0.02057291 -0.02103038 1000 -0.01429834 -0.01672886 -0.01986107 -0.02057291 -0.02103038 1000
lala 1 1.2 1 first 3 1 11 5 6.65 0.879997491836548 -1 1 1 1 -0.01964744 -0.01550471 -0.01057155 1000 1000 1000 -0.01964744 -0.01550471 -0.01057155 1000 1000 1000 -0.003896762 -0.003702911 -0.002776559 -0.001854935 -0.001244224 1000 -0.003896762 -0.003702911 -0.002776559 -0.001854935 -0.001244224 1000
lala 1 1.2 0 second 4 1 12 6 3.96 0.659997701644897 -1 0 -1 1 -0.001853243 -0.001658925 -0.001699693 -0.002657859 -0.003283229 1000 -0.001853243 -0.001658925 -0.001699693 -0.002657859 -0.003283229 1000 -0.004596246 -0.003920372 -0.004022564 -0.004861719 -0.004933231 1000 -0.004596246 -0.003920372 -0.004022564 -0.004861719 -0.004933231 1000
lala 1 1.2 1 second 1 1 13 4 5.32 2.41999626159668 -1 1 1 0 -0.006776392 -0.006510785 -0.004815887 -0.003773004 -0.004703714 1000 -0.006776392 -0.006510785 -0.004815887 -0.003773004 -0.004703714 1000 -0.004805834 -0.005335111 -0.006209393 -0.006115438 -0.006112763 1000 -0.004805834 -0.005335111 -0.006209393 -0.006115438 -0.006112763 1000
lala 2 1.2 1 second 11 1 14 6 6.780001 0.479997873306274 1 1 1 1 -0.007784829 -0.007611423 -0.007668416 -0.007300776 -0.007495187 1000 -0.007784829 -0.007611423 -0.007668416 -0.007300776 -0.007495187 1000 -0.01013796 -0.01008034 -0.01103848 -0.01152797 -0.01142311 1000 -0.01013796 -0.01008034 -0.01103848 -0.01152797 -0.01142311 1000
lala 1 1.2 1 second 15 1 15 5 6.65 1.07999730110168 0 1 1 1 -0.0139543 -0.01375649 -0.01293905 -0.01283415 -0.01319719 1000 -0.0139543 -0.01375649 -0.01293905 -0.01283415 -0.01319719 1000 -0.0157113 -0.01530252 -0.01517724 -0.01555639 -0.01583689 1000 -0.0157113 -0.01530252 -0.01517724 -0.01555639 -0.01583689 1000
lala 1 1.2 1 first 13 1 16 4 5.32 0.39999794960022 0 1 1 1 -0.01106855 -0.009707016 -0.00830841 1000 1000 1000 -0.01106855 -0.009707016 -0.00830841 1000 1000 1000 -0.007395173 -0.007251072 -0.007165063 -0.006594065 -0.006933182 1000 -0.007395173 -0.007251072 -0.007165063 -0.006594065 -0.006933182 1000
lala 2 1.2 1 first 3 1 17 5 5.45 0.459997892379761 -1 1 1 0 -0.004142173 -0.002437868 -0.002458707 1000 1000 1000 -0.004142173 -0.002437868 -0.002458707 1000 1000 1000 -0.003835058 -0.004095006 -0.004732796 -0.005069228 -0.004965747 1000 -0.003835058 -0.004095006 -0.004732796 -0.005069228 -0.004965747 1000
lala 1 1.2 1 first 0 1 18 4 2.64 1.57999682426453 -1 0 1 0 -0.002511334 -0.00220333 -0.003328328 1000 1000 1000 -0.002511334 -0.00220333 -0.003328328 1000 1000 1000 -0.003507329 -0.003090185 -0.002835697 -0.003249452 -0.003985317 1000 -0.003507329 -0.003090185 -0.002835697 -0.003249452 -0.003985317 1000
lala 2 1.2 1 first 4 1 19 6 5.16 1.73999691009521 -1 0 1 1 -0.003186978 -0.002604448 -0.001553643 1000 1000 1000 -0.003186978 -0.002604448 -0.001553643 1000 1000 1000 -0.0005247241 -0.001140936 -0.002116411 -0.001866208 -0.002620562 1000 -0.0005247241 -0.001140936 -0.002116411 -0.001866208 -0.002620562 1000
lala 2 1.2 1 second 13 1 20 4 4.12 2.41999626159668 0 1 1 1 -0.003808008 -0.003952255 -0.003794021 -0.005044338 -0.003639939 1000 -0.003808008 -0.003952255 -0.003794021 -0.005044338 -0.003639939 1000 -0.004715958 -0.005308032 -0.006104523 -0.006123711 -0.005742007 1000 -0.004715958 -0.005308032 -0.006104523 -0.006123711 -0.005742007 1000
lala 1 1.2 1 second 5 1 21 6 7.98 0.519997835159302 -1 1 1 1 -0.007353573 -0.007496089 -0.008065329 -0.008401179 -0.008644754 1000 -0.007353573 -0.007496089 -0.008065329 -0.008401179 -0.008644754 1000 -0.009457676 -0.009411084 -0.008969584 -0.009855337 -0.01081936 1000 -0.009457676 -0.009411084 -0.008969584 -0.009855337 -0.01081936 1000
lala 1 1.2 1 first 9 1 22 5 6.65 0.419997930526733 1 1 1 1 -0.01700715 -0.01441334 -0.01040462 1000 1000 1000 -0.01700715 -0.01441334 -0.01040462 1000 1000 1000 -0.004320628 -0.003577562 -0.001403492 -0.001233154 -0.002918826 1000 -0.004320628 -0.003577562 -0.001403492 -0.001233154 -0.002918826 1000
lala 2 1.2 0 second 6 1 23 4 3.84 0.799997568130493 1 0 -1 1 -0.003745264 -0.004211708 -0.003970305 -0.00388858 -0.004306844 1000 -0.003745264 -0.004211708 -0.003970305 -0.00388858 -0.004306844 1000 -0.00341585 -0.003070614 -0.002968512 -0.00363787 -0.003778487 1000 -0.00341585 -0.003070614 -0.002968512 -0.00363787 -0.003778487 1000
lala 3 1.2 1 second 6 1 24 4 5.04 1.81999683380127 1 0 1 1 -0.003476397 -0.003147839 -0.002719422 -0.00244449 -0.002274276 1000 -0.003476397 -0.003147839 -0.002719422 -0.00244449 -0.002274276 1000 -0.002732744 -0.002957558 -0.003327311 -0.003118055 -0.003251288 1000 -0.002732744 -0.002957558 -0.003327311 -0.003118055 -0.003251288 1000
lala 2 1.2 1 second 9 1 25 5 5.45 0.719997644424438 1 1 1 1 -0.005262953 -0.005690283 -0.005228744 -0.005301885 -0.005839564 1000 -0.005262953 -0.005690283 -0.005228744 -0.005301885 -0.005839564 1000 -0.007444082 -0.007212442 -0.006736082 -0.007035743 -0.007187767 1000 -0.007444082 -0.007212442 -0.006736082 -0.007035743 -0.007187767 1000
lala 2 1.2 1 first 2 1 26 5 4.5 0.919997453689575 -1 0 1 0 -0.007394021 -0.008532894 -0.008355961 1000 1000 1000 -0.007394021 -0.008532894 -0.008355961 1000 1000 1000 -0.01559694 -0.01567246 -0.0156586 -0.01648125 -0.01681931 1000 -0.01559694 -0.01567246 -0.0156586 -0.01648125 -0.01681931 1000
lala 1 1.2 1 second 10 1 27 6 3.96 0.779997587203979 1 0 1 0 -0.04201439 -0.03402942 -0.02526191 -0.01951382 -0.01577088 1000 -0.04201439 -0.03402942 -0.02526191 -0.01951382 -0.01577088 1000 -0.00633341 -0.006681717 -0.006491689 -0.006325642 -0.006016539 1000 -0.00633341 -0.006681717 -0.006491689 -0.006325642 -0.006016539 1000
lala 2 1.2 0 second 8 1 28 5 2.1 0.479997873306274 1 0 -1 0 -0.001307013 -0.001600835 -0.002223937 -0.00262291 -0.002975365 1000 -0.001307013 -0.001600835 -0.002223937 -0.00262291 -0.002975365 1000 -0.001294187 -0.001557993 -0.002185782 -0.002594308 -0.002632124 1000 -0.001294187 -0.001557993 -0.002185782 -0.002594308 -0.002632124 1000
lala 3 1.2 1 first 9 1 29 5 4.25 2.01999664306641 1 1 1 1 -0.0004948735 -0.0009433476 -0.001463348 1000 1000 1000 -0.0004948735 -0.0009433476 -0.001463348 1000 1000 1000 -0.0007724587 -0.001037944 -0.001339218 -0.001702336 -0.002109468 1000 -0.0007724587 -0.001037944 -0.001339218 -0.001702336 -0.002109468 1000
lala 2 1.2 0 second 0 1 30 4 1.44 0.939997434616089 -1 0 -1 1 -0.002106392 -0.002283303 -0.002425749 -0.002261349 -0.002227258 1000 -0.002106392 -0.002283303 -0.002425749 -0.002261349 -0.002227258 1000 -0.005358702 -0.005056962 -0.004700609 -0.003910796 -0.004218461 1000 -0.005358702 -0.005056962 -0.004700609 -0.003910796 -0.004218461 1000
lala 3 1.2 1 first 8 1 31 5 3.3 1.59999680519104 1 0 1 1 -0.006188181 -0.006006968 -0.005943781 1000 1000 1000 -0.006188181 -0.006006968 -0.005943781 1000 1000 1000 -0.004985344 -0.005203095 -0.005872734 -0.006690762 -0.006665792 1000 -0.004985344 -0.005203095 -0.005872734 -0.006690762 -0.006665792 1000
lala 2 1.2 1 first 7 1 32 4 4.12 0.899997472763062 1 1 1 1 -0.006455275 -0.007050774 -0.007792457 1000 1000 1000 -0.006455275 -0.007050774 -0.007792457 1000 1000 1000 -0.008159048 -0.007200091 -0.006813737 -0.00680027 -0.007046236 1000 -0.008159048 -0.007200091 -0.006813737 -0.00680027 -0.007046236 1000
lala 3 1.2 0 first 12 1 33 4 2.64 0.419997930526733 0 0 -1 0 -0.007079177 -0.006613706 -0.006905084 1000 1000 1000 -0.007079177 -0.006613706 -0.006905084 1000 1000 1000 -0.009495907 -0.00926636 -0.008562186 -0.007568563 -0.007178851 1000 -0.009495907 -0.00926636 -0.008562186 -0.007568563 -0.007178851 1000
lala 3 1.2 0 second 2 1 34 5 3.3 1.35999703407288 -1 0 -1 0 -0.008537938 -0.008469248 -0.008765989 -0.008621233 -0.008675192 1000 -0.008537938 -0.008469248 -0.008765989 -0.008621233 -0.008675192 1000 -0.009564394 -0.0100718 -0.01013756 -0.009799094 -0.009201027 1000 -0.009564394 -0.0100718 -0.01013756 -0.009799094 -0.009201027 1000
lala 3 1.2 1 first 11 1 35 6 5.580001 0.819997549057007 1 1 1 0 -0.0113587 -0.0111096 -0.01090862 1000 1000 1000 -0.0113587 -0.0111096 -0.01090862 1000 1000 1000 -0.01134762 -0.0119502 -0.0114303 -0.01135769 -0.01158599 1000 -0.01134762 -0.0119502 -0.0114303 -0.01135769 -0.01158599 1000
lala 2 1.2 0 first 10 1 36 6 2.76 0.699997663497925 1 0 -1 0 -0.01406823 -0.01417203 -0.0145255 1000 1000 1000 -0.01406823 -0.01417203 -0.0145255 1000 1000 1000 -0.01564451 -0.01555495 -0.01505105 -0.01496999 -0.01544973 1000 -0.01564451 -0.01555495 -0.01505105 -0.01496999 -0.01544973 1000
lala 4 1.2 1 first 9 1 37 5 3.05 1.15999722480774 1 1 1 1 -0.01865732 -0.01846991 -0.01834823 1000 1000 1000 -0.01865732 -0.01846991 -0.01834823 1000 1000 1000 -0.01760388 -0.01777968 -0.01809847 -0.01830276 -0.01802519 1000 -0.01760388 -0.01777968 -0.01809847 -0.01830276 -0.01802519 1000
lala 3 1.2 0 first 13 1 38 4 2.92 0.739997625350952 0 1 -1 1 -0.02167546 -0.0206007 -0.01987942 1000 1000 1000 -0.02167546 -0.0206007 -0.01987942 1000 1000 1000 -0.02217836 -0.02258426 -0.02285693 -0.02290745 -0.02301521 1000 -0.02217836 -0.02258426 -0.02285693 -0.02290745 -0.02301521 1000
lala 3 1.2 0 first 3 1 39 5 4.25 1.5399968624115 -1 1 -1 1 0.01564055 0.0116947 0.004014324 1000 1000 1000 0.01564055 0.0116947 0.004014324 1000 1000 1000 -0.06598636 -0.06368604 -0.06008393 -0.06449841 -0.06830395 1000 -0.06598636 -0.06368604 -0.06008393 -0.06449841 -0.06830395 1000
lala 4 1.2 0 second 13 1 40 4 4.12 0.919997453689575 0 1 -1 1 -0.01467714 -0.02701768 -0.03093369 -0.02831555 -0.01906449 1000 -0.01467714 -0.02701768 -0.03093369 -0.02831555 -0.01906449 1000 -0.01733373 -0.007988575 0.00201605 0.003159111 -0.001198362 1000 -0.01733373 -0.007988575 0.00201605 0.003159111 -0.001198362 1000
lala 2 1.2 1 second 17 1 41 6 6.780001 0.61999773979187 0 1 1 1 -0.006360027 -0.005095502 -0.007535506 -0.009670987 -0.009783013 1000 -0.006360027 -0.005095502 -0.007535506 -0.009670987 -0.009783013 1000 -0.01489881 -0.01380992 -0.01658432 -0.01930567 -0.02141386 1000 -0.01489881 -0.01380992 -0.01658432 -0.01930567 -0.02141386 1000
lala 4 1.2 0 first 2 1 42 5 4.5 0.519997835159302 -1 0 -1 1 -0.02191254 -0.02163609 -0.02142594 1000 1000 1000 -0.02191254 -0.02163609 -0.02142594 1000 1000 1000 -0.02450021 -0.0231851 -0.02197083 -0.02085355 -0.02047208 1000 -0.02450021 -0.0231851 -0.02197083 -0.02085355 -0.02047208 1000
lala 3 1.2 0 second 7 1 43 4 2.92 0.419997930526733 1 1 -1 1 -0.02322848 -0.02247841 -0.02267926 -0.02348225 -0.02447687 1000 -0.02322848 -0.02247841 -0.02267926 -0.02348225 -0.02447687 1000 -0.02328065 -0.02015958 -0.01903035 -0.01950013 -0.01947748 1000 -0.02328065 -0.02015958 -0.01903035 -0.01950013 -0.01947748 1000
lala 3 1.2 1 first 10 1 44 6 3.96 0.299998044967651 1 0 1 0 -0.01564493 -0.01480569 -0.01438763 1000 1000 1000 -0.01564493 -0.01480569 -0.01438763 1000 1000 1000 -0.01201394 -0.01203866 -0.01133132 -0.01122073 -0.01088018 1000 -0.01201394 -0.01203866 -0.01133132 -0.01122073 -0.01088018 1000
lala 4 1.2 1 first 6 1 45 4 3.84 0.759997606277466 1 0 1 0 -0.01010412 -0.0103055 -0.01031922 1000 1000 1000 -0.01010412 -0.0103055 -0.01031922 1000 1000 1000 -0.006197898 -0.005199288 -0.00535036 -0.006369814 -0.006345962 1000 -0.006197898 -0.005199288 -0.00535036 -0.006369814 -0.006345962 1000
lala 3 1.2 0 first 14 1 46 5 3.3 0.279998064041138 0 0 -1 1 -0.004582458 -0.0040551 -0.003387761 1000 1000 1000 -0.004582458 -0.0040551 -0.003387761 1000 1000 1000 -0.0006544158 -0.0004349325 -0.0001064297 -0.001016316 -0.0008056385 1000 -0.0006544158 -0.0004349325 -0.0001064297 -0.001016316 -0.0008056385 1000
lala 4 1.2 1 first 14 1 47 5 4.5 0.179998159408569 0 0 1 0 -2.499016E-05 0.0006655891 0.0001539911 1000 1000 1000 -2.499016E-05 0.0006655891 0.0001539911 1000 1000 1000 -0.0001879017 -0.00080122 -0.0002797048 4.066758E-05 0.0006375944 1000 -0.0001879017 -0.00080122 -0.0002797048 4.066758E-05 0.0006375944 1000
lala 3 1.2 1 first 17 1 48 6 5.580001 0.319998025894165 0 1 1 0 0.001513707 0.001890556 0.002659739 1000 1000 1000 0.001513707 0.001890556 0.002659739 1000 1000 1000 0.001951653 0.001633836 0.002086174 0.002495178 0.002870528 1000 0.001951653 0.001633836 0.002086174 0.002495178 0.002870528 1000
lala 2 1.2 0 second 1 1 49 4 4.12 0.419997930526733 -1 1 -1 0 0.003206526 0.003897522 0.004285029 0.004350357 0.003307086 1000 0.003206526 0.003897522 0.004285029 0.004350357 0.003307086 1000 0.003094726 0.003375133 0.003689653 0.003344716 0.003011512 1000 0.003094726 0.003375133 0.003689653 0.003344716 0.003011512 1000
lala 2 1.2 1 first 5 1 50 6 6.780001 0.499997854232788 -1 1 1 1 -0.01672475 -0.01023331 -0.006868183 -0.006040931 -0.007555947 -0.007552814 -0.01672475 -0.01023331 -0.006868183 -0.006040931 -0.007555947 -0.007552814 -0.007948445 -0.007782536 -0.008298081 -0.009243906 -0.01038772 1000 -0.007948445 -0.007782536 -0.008298081 -0.009243906 -0.01038772 1000
lala 4 1.2 0 second 7 1 51 4 4.12 2.41999626159668 1 1 -1 0 -0.008929216 -0.008154879 -0.008699848 -0.009525751 -0.009478659 1000 -0.008929216 -0.008154879 -0.008699848 -0.009525751 -0.009478659 1000 -0.01038508 -0.01009521 -0.010091 -0.01022635 -0.01033719 1000 -0.01038508 -0.01009521 -0.010091 -0.01022635 -0.01033719 1000
lala 4 1.2 0 first 8 1 52 5 2.1 0.179998159408569 1 0 -1 0 -0.01161432 -0.01138304 -0.01073837 1000 1000 1000 -0.01161432 -0.01138304 -0.01073837 1000 1000 1000 -0.008899758 -0.008854715 -0.009252638 -0.009045122 -0.009689081 1000 -0.008899758 -0.008854715 -0.009252638 -0.009045122 -0.009689081 1000
lala 5 1.2 0 second 6 1 53 4 2.64 0.319998025894165 1 0 -1 1 -0.01118969 -0.01095122 -0.01063279 -0.01005935 -0.01055004 1000 -0.01118969 -0.01095122 -0.01063279 -0.01005935 -0.01055004 1000 -0.0106267 -0.01020846 -0.00973806 -0.009450091 -0.00940434 1000 -0.0106267 -0.01020846 -0.00973806 -0.009450091 -0.00940434 1000
lala 1 1.2 0 first 16 1 54 6 3.96 0.179998159408569 0 0 -1 1 -0.01102092 -0.01182856 -0.01189241 1000 1000 1000 -0.01102092 -0.01182856 -0.01189241 1000 1000 1000 -0.01127679 -0.01139406 -0.0113227 -0.01084535 -0.01043944 1000 -0.01127679 -0.01139406 -0.0113227 -0.01084535 -0.01043944 1000
lala 5 1.2 1 second 7 1 55 4 5.32 0.959997415542603 1 1 1 1 -0.01414574 -0.01400759 -0.01408386 -0.01394855 -0.01432502 1000 -0.01414574 -0.01400759 -0.01408386 -0.01394855 -0.01432502 1000 -0.01561769 -0.01508776 -0.0141501 -0.01345227 -0.01333563 1000 -0.01561769 -0.01508776 -0.0141501 -0.01345227 -0.01333563 1000
lala 4 1.2 0 second 12 1 56 4 3.84 0.359997987747192 0 0 -1 1 -0.01630452 -0.01688329 -0.01850863 -0.02062091 -0.02219864 1000 -0.01630452 -0.01688329 -0.01850863 -0.02062091 -0.02219864 1000 -0.02650964 -0.02551529 -0.0260617 -0.02581422 -0.02538976 1000 -0.02650964 -0.02551529 -0.0260617 -0.02581422 -0.02538976 1000
lala 3 1.2 0 first 4 1 57 6 3.96 1.37999701499939 -1 0 -1 1 -0.02179064 -0.01553017 -0.0117786 1000 1000 1000 -0.02179064 -0.01553017 -0.0117786 1000 1000 1000 -0.009662413 -0.009695529 -0.009529251 -0.009314979 -0.009231643 1000 -0.009662413 -0.009695529 -0.009529251 -0.009314979 -0.009231643 1000
lala 4 1.2 0 first 10 1 58 6 2.76 0.259998083114624 1 0 -1 1 -0.008935413 -0.009017025 -0.009001405 1000 1000 1000 -0.008935413 -0.009017025 -0.009001405 1000 1000 1000 -0.004534282 -0.004750995 -0.004774759 -0.004618246 -0.004309124 1000 -0.004534282 -0.004750995 -0.004774759 -0.004618246 -0.004309124 1000
lala 5 1.2 0 first 2 1 59 5 5.7 0.659997701644897 -1 0 -1 1 -0.00444884 -0.005340423 -0.005633013 1000 1000 1000 -0.00444884 -0.005340423 -0.005633013 1000 1000 1000 -0.00406152 -0.003232125 -0.003376508 -0.004565123 -0.005399165 1000 -0.00406152 -0.003232125 -0.003376508 -0.004565123 -0.005399165 1000
lala 6 1.2 0 first 6 1 60 4 3.84 0.719997644424438 1 0 -1 0 -0.006003921 -0.006029823 -0.006398653 1000 1000 1000 -0.006003921 -0.006029823 -0.006398653 1000 1000 1000 -0.006032005 -0.006721166 -0.007354401 -0.008026473 -0.00777911 1000 -0.006032005 -0.006721166 -0.007354401 -0.008026473 -0.00777911 1000
lala 5 1.2 1 second 8 1 61 5 3.3 1.67999696731567 1 0 1 1 -0.008313559 -0.008731945 -0.009019755 -0.008501605 -0.008479197 1000 -0.008313559 -0.008731945 -0.009019755 -0.008501605 -0.008479197 1000 -0.008328536 -0.008371003 -0.008576131 -0.009317624 -0.009364044 1000 -0.008328536 -0.008371003 -0.008576131 -0.009317624 -0.009364044 1000
lala 5 1.2 0 second 12 1 62 4 5.04 0.559997797012329 0 0 -1 0 -0.01130194 -0.01098922 -0.01074626 -0.01115116 -0.011642 1000 -0.01130194 -0.01098922 -0.01074626 -0.01115116 -0.011642 1000 -0.01289999 -0.01264193 -0.01212338 -0.01221683 -0.0122899 1000 -0.01289999 -0.01264193 -0.01212338 -0.01221683 -0.0122899 1000
lala 5 1.2 0 second 10 1 63 6 3.96 0.599997758865356 1 0 -1 1 -0.01154021 -0.01152156 -0.01091312 -0.01076795 -0.01157021 1000 -0.01154021 -0.01152156 -0.01091312 -0.01076795 -0.01157021 1000 -0.01301836 -0.01289375 -0.01279559 -0.01252685 -0.01273834 1000 -0.01301836 -0.01289375 -0.01279559 -0.01252685 -0.01273834 1000
lala 6 1.2 1 second 2 1 64 5 6.9 0.599997758865356 -1 0 1 0 -0.01525747 -0.01512366 -0.01464794 -0.01444899 -0.01491047 1000 -0.01525747 -0.01512366 -0.01464794 -0.01444899 -0.01491047 1000 -0.01728561 -0.01720301 -0.01683847 -0.01567077 -0.01639411 1000 -0.01728561 -0.01720301 -0.01683847 -0.01567077 -0.01639411 1000
lala 6 1.2 0 second 10 1 65 6 5.16 1.55999684333801 1 0 -1 1 -0.01660797 -0.01641267 -0.01598909 -0.01599441 -0.01686619 1000 -0.01660797 -0.01641267 -0.01598909 -0.01599441 -0.01686619 1000 -0.01898715 -0.01890002 -0.01872091 -0.01834725 -0.01865435 1000 -0.01898715 -0.01890002 -0.01872091 -0.01834725 -0.01865435 1000
lala 7 1.2 1 first 10 1 66 6 6.36 0.139998197555542 1 0 1 0 -0.01999072 -0.0170167 -0.01365762 1000 1000 1000 -0.01999072 -0.0170167 -0.01365762 1000 1000 1000 -0.01432207 -0.01456007 -0.01435497 -0.01387385 -0.01414405 1000 -0.01432207 -0.01456007 -0.01435497 -0.01387385 -0.01414405 1000
lala 8 1.2 1 second 10 1 67 6 5.16 0.579997777938843 1 0 1 1 -0.01387079 -0.01428843 -0.01386031 -0.01329299 -0.0129259 1000 -0.01387079 -0.01428843 -0.01386031 -0.01329299 -0.0129259 1000 -0.0154136 -0.01538887 -0.01483694 -0.0145966 -0.01413952 1000 -0.0154136 -0.01538887 -0.01483694 -0.0145966 -0.01413952 1000
lala 9 1.2 0 second 10 1 68 6 3.96 1.23999714851379 1 0 -1 1 -0.01405782 -0.01494742 -0.01401979 -0.01319363 -0.01248201 1000 -0.01405782 -0.01494742 -0.01401979 -0.01319363 -0.01248201 1000 -0.01341538 -0.01417937 -0.01445135 -0.0142314 -0.01344698 1000 -0.01341538 -0.01417937 -0.01445135 -0.0142314 -0.01344698 1000
lala 5 1.2 1 first 13 1 69 4 5.32 0.319998025894165 0 1 1 0 -0.01404741 -0.01309271 -0.01335457 1000 1000 1000 -0.01404741 -0.01309271 -0.01335457 1000 1000 1000 -0.01426123 -0.01440837 -0.01333683 -0.012575 -0.01272557 1000 -0.01426123 -0.01440837 -0.01333683 -0.012575 -0.01272557 1000
lala 3 1.2 0 first 0 1 70 4 2.64 0.61999773979187 -1 0 -1 1 -0.01134684 -0.01036862 -0.009226553 1000 1000 1000 -0.01134684 -0.01036862 -0.009226553 1000 1000 1000 -0.01080297 -0.01062823 -0.01108675 -0.01114423 -0.01243145 1000 -0.01080297 -0.01062823 -0.01108675 -0.01114423 -0.01243145 1000
lala 4 1.2 0 second 3 1 71 5 5.45 3.53999519348145 -1 1 -1 1 -0.01248574 -0.01281331 -0.01133586 -0.008619539 -0.009370238 1000 -0.01248574 -0.01281331 -0.01133586 -0.008619539 -0.009370238 1000 -0.02014017 -0.01678673 -0.01400434 -0.01342675 -0.01269837 1000 -0.02014017 -0.01678673 -0.01400434 -0.01342675 -0.01269837 1000
lala 4 1.2 1 second 4 1 72 6 5.16 0.299998044967651 -1 0 1 1 -0.01606675 -0.01588481 -0.01565441 -0.01465479 -0.01519165 1000 -0.01606675 -0.01588481 -0.01565441 -0.01465479 -0.01519165 1000 -0.02241144 -0.02120594 -0.02009521 -0.01998344 -0.02064742 1000 -0.02241144 -0.02120594 -0.02009521 -0.01998344 -0.02064742 1000
lala 4 1.2 0 first 17 1 73 6 4.380001 0.179998159408569 0 1 -1 0 -0.02381794 -0.02370686 -0.02286247 1000 1000 1000 -0.02381794 -0.02370686 -0.02286247 1000 1000 1000 -0.01623468 -0.01715217 -0.01873182 -0.01986846 -0.01955924 1000 -0.01623468 -0.01715217 -0.01873182 -0.01986846 -0.01955924 1000
lala 5 1.2 0 first 4 1 74 6 3.96 0.539997816085815 -1 0 -1 1 -0.01993043 -0.01972855 -0.01952299 1000 1000 1000 -0.01993043 -0.01972855 -0.01952299 1000 1000 1000 -0.01935726 -0.01900108 -0.01897623 -0.0190405 -0.01938635 1000 -0.01935726 -0.01900108 -0.01897623 -0.0190405 -0.01938635 1000
lala 3 1.2 1 second 5 1 75 6 5.580001 1.0999972820282 -1 1 1 1 -0.01690877 -0.01735771 -0.01775836 -0.01883522 -0.01948999 1000 -0.01690877 -0.01735771 -0.01775836 -0.01883522 -0.01948999 1000 -0.01802608 -0.01815845 -0.01809973 -0.01839936 -0.01795628 1000 -0.01802608 -0.01815845 -0.01809973 -0.01839936 -0.01795628 1000
lala 3 1.2 1 first 1 1 76 4 5.32 1.11999726295471 -1 1 1 0 -0.01765959 -0.01827367 -0.01837179 1000 1000 1000 -0.01765959 -0.01827367 -0.01837179 1000 1000 1000 -0.0178003 -0.01708917 -0.01749665 -0.01872282 -0.020115 1000 -0.0178003 -0.01708917 -0.01749665 -0.01872282 -0.020115 1000
lala 2 1.2 1 first 15 1 77 5 5.45 0.61999773979187 0 1 1 1 -0.02087115 -0.02137442 -0.0218729 1000 1000 1000 -0.02087115 -0.02137442 -0.0218729 1000 1000 1000 -0.0238689 -0.02352396 -0.02279452 -0.02217384 -0.02245853 1000 -0.0238689 -0.02352396 -0.02279452 -0.02217384 -0.02245853 1000
lala 6 1.2 1 first 7 1 78 4 4.12 0.539997816085815 1 1 1 1 -0.02427085 -0.02294096 -0.02253009 1000 1000 1000 -0.02427085 -0.02294096 -0.02253009 1000 1000 1000 -0.02104202 -0.02097449 -0.02174185 -0.02264672 -0.02189712 1000 -0.02104202 -0.02097449 -0.02174185 -0.02264672 -0.02189712 1000
lala 6 1.2 0 first 4 1 79 6 5.16 0.719997644424438 -1 0 -1 1 -0.02303793 -0.02382507 -0.02455115 1000 1000 1000 -0.02303793 -0.02382507 -0.02455115 1000 1000 1000 -0.02253777 -0.02243503 -0.02228815 -0.02218939 -0.02234314 1000 -0.02253777 -0.02243503 -0.02228815 -0.02218939 -0.02234314 1000
lala 4 1.2 0 first 1 1 80 4 4.12 0.599997758865356 -1 1 -1 1 -0.02380654 -0.02365871 -0.02443338 1000 1000 1000 -0.02380654 -0.02365871 -0.02443338 1000 1000 1000 -0.01814212 -0.01809629 -0.01772394 -0.01748987 -0.01687817 1000 -0.01814212 -0.01809629 -0.01772394 -0.01748987 -0.01687817 1000
lala 7 1.2 1 second 6 1 81 4 5.04 0.799997568130493 1 0 1 0 -0.0203143 -0.02005694 -0.01955426 -0.01898518 -0.0184234 1000 -0.0203143 -0.02005694 -0.01955426 -0.01898518 -0.0184234 1000 -0.02030994 -0.0200509 -0.01935462 -0.0192113 -0.01896323 1000 -0.02030994 -0.0200509 -0.01935462 -0.0192113 -0.01896323 1000
lala 4 1.2 0 first 0 1 82 4 3.84 0.61999773979187 -1 0 -1 0 -0.01961752 -0.01985779 -0.01963238 1000 1000 1000 -0.01961752 -0.01985779 -0.01963238 1000 1000 1000 -0.01857756 -0.01823525 -0.01859538 -0.01849865 -0.0184047 1000 -0.01857756 -0.01823525 -0.01859538 -0.01849865 -0.0184047 1000
lala 5 1.2 1 second 3 1 83 5 6.65 1.63999700546265 -1 1 1 1 -0.01919629 -0.01964805 -0.0207826 -0.02113269 -0.02061522 1000 -0.01919629 -0.01964805 -0.0207826 -0.02113269 -0.02061522 1000 -0.02126839 -0.02149485 -0.02182946 -0.0216666 -0.02158204 1000 -0.02126839 -0.02149485 -0.02182946 -0.0216666 -0.02158204 1000
lala 6 1.2 0 second 8 1 84 5 2.1 1.41999697685242 1 0 -1 1 -0.01748088 -0.01557216 -0.01338766 -0.01182016 -0.01319667 1000 -0.01748088 -0.01557216 -0.01338766 -0.01182016 -0.01319667 1000 -0.01290764 -0.01214744 -0.01135792 -0.01219966 -0.01299881 1000 -0.01290764 -0.01214744 -0.01135792 -0.01219966 -0.01299881 1000
lala 7 1.2 1 second 4 1 85 6 6.36 1.55999684333801 -1 0 1 0 -0.009528574 -0.009523896 -0.00977016 -0.01116793 -0.01084255 1000 -0.009528574 -0.009523896 -0.00977016 -0.01116793 -0.01084255 1000 -0.01217918 -0.01227964 -0.01230802 -0.01145483 -0.0113188 1000 -0.01217918 -0.01227964 -0.01230802 -0.01145483 -0.0113188 1000
lala 8 1.2 0 second 6 1 86 4 3.84 0.419997930526733 1 0 -1 1 -0.0119921 -0.01323908 -0.01314166 -0.01223872 -0.01136508 1000 -0.0119921 -0.01323908 -0.01314166 -0.01223872 -0.01136508 1000 -0.01340834 -0.01434013 -0.01516708 -0.01611396 -0.01534483 1000 -0.01340834 -0.01434013 -0.01516708 -0.01611396 -0.01534483 1000
lala 5 1.2 0 second 0 1 87 4 5.04 0.459997892379761 -1 0 -1 1 -0.006814441 -0.005833235 -0.006531439 -0.01027817 -0.01037686 1000 -0.006814441 -0.005833235 -0.006531439 -0.01027817 -0.01037686 1000 -0.01771672 -0.01499853 -0.01500428 -0.01543237 -0.01381641 1000 -0.01771672 -0.01499853 -0.01500428 -0.01543237 -0.01381641 1000
lala 6 1.2 1 second 13 1 88 4 4.12 0.539997816085815 0 1 1 0 -0.0116822 -0.01204938 -0.01258993 -0.01223535 -0.01211967 1000 -0.0116822 -0.01204938 -0.01258993 -0.01223535 -0.01211967 1000 -0.01045023 -0.0109465 -0.01136188 -0.01090721 -0.01046807 1000 -0.01045023 -0.0109465 -0.01136188 -0.01090721 -0.01046807 1000
lala 4 1.2 1 second 11 1 89 6 4.380001 0.459997892379761 1 1 1 1 -0.0104995 -0.01028658 -0.0107062 -0.01090466 -0.01093819 1000 -0.0104995 -0.01028658 -0.0107062 -0.01090466 -0.01093819 1000 -0.01142011 -0.01164207 -0.01179247 -0.01205561 -0.01199374 1000 -0.01142011 -0.01164207 -0.01179247 -0.01205561 -0.01199374 1000
lala 4 1.2 0 first 5 1 90 6 4.380001 0.439997911453247 -1 1 -1 1 -0.01179128 -0.01246142 -0.01271655 1000 1000 1000 -0.01179128 -0.01246142 -0.01271655 1000 1000 1000 -0.01057 -0.01004713 -0.01065419 -0.01116992 -0.01148443 1000 -0.01057 -0.01004713 -0.01065419 -0.01116992 -0.01148443 1000
lala 9 1.2 1 second 6 1 91 4 5.04 0.459997892379761 1 0 1 0 -0.01186896 -0.01149921 -0.01099071 -0.01091928 -0.01146333 1000 -0.01186896 -0.01149921 -0.01099071 -0.01091928 -0.01146333 1000 -0.01196072 -0.01166573 -0.0109312 -0.01104801 -0.0111556 1000 -0.01196072 -0.01166573 -0.0109312 -0.01104801 -0.0111556 1000
lala 2 1.2 0 first 16 1 92 6 5.16 1.23999714851379 0 0 -1 0 -0.01251875 -0.01192308 -0.01165352 1000 1000 1000 -0.01251875 -0.01192308 -0.01165352 1000 1000 1000 -0.01157232 -0.01219924 -0.01135815 -0.01143785 -0.01144221 1000 -0.01157232 -0.01219924 -0.01135815 -0.01143785 -0.01144221 1000
lala 7 1.2 1 second 2 1 93 5 5.7 0.319998025894165 -1 0 1 0 -0.01223734 -0.01253386 -0.01260567 -0.01219999 -0.01297269 1000 -0.01223734 -0.01253386 -0.01260567 -0.01219999 -0.01297269 1000 -0.01518563 -0.01470423 -0.01412178 -0.0130362 -0.01306901 1000 -0.01518563 -0.01470423 -0.01412178 -0.0130362 -0.01306901 1000
lala 6 1.2 1 first 3 1 94 5 5.45 0.519997835159302 -1 1 1 1 -0.01471545 -0.01377532 -0.01427666 1000 1000 1000 -0.01471545 -0.01377532 -0.01427666 1000 1000 1000 -0.01829357 -0.01841788 -0.01886461 -0.01908358 -0.01895033 1000 -0.01829357 -0.01841788 -0.01886461 -0.01908358 -0.01895033 1000
lala 7 1.2 0 second 7 1 95 4 2.92 0.379997968673706 1 1 -1 1 -0.02112256 -0.02132489 -0.02220633 -0.02306435 -0.02380886 1000 -0.02112256 -0.02132489 -0.02220633 -0.02306435 -0.02380886 1000 -0.02692611 -0.02661537 -0.02679338 -0.02681366 -0.02701658 1000 -0.02692611 -0.02661537 -0.02679338 -0.02681366 -0.02701658 1000
lala 5 1.2 0 second 11 1 96 6 3.180001 0.319998025894165 1 1 -1 1 -0.02517438 -0.02479961 -0.02506491 -0.02491176 -0.02453017 1000 -0.02517438 -0.02479961 -0.02506491 -0.02491176 -0.02453017 1000 -0.02452616 -0.02519894 -0.02491907 -0.02429202 -0.02387733 1000 -0.02452616 -0.02519894 -0.02491907 -0.02429202 -0.02387733 1000
lala 6 1.2 1 first 12 1 97 4 6.24 0.559997797012329 0 0 1 1 -0.02262576 -0.02315684 -0.02340825 1000 1000 1000 -0.02262576 -0.02315684 -0.02340825 1000 1000 1000 -0.0217063 -0.02200087 -0.02194796 -0.02275127 -0.02257829 1000 -0.0217063 -0.02200087 -0.02194796 -0.02275127 -0.02257829 1000
lala 5 1.2 1 first 5 1 98 6 5.580001 0.479997873306274 -1 1 1 0 -0.02037564 -0.02069144 -0.02100034 1000 1000 1000 -0.02037564 -0.02069144 -0.02100034 1000 1000 1000 -0.01789478 -0.01736604 -0.0171831 -0.01758463 -0.01828502 1000 -0.01789478 -0.01736604 -0.0171831 -0.01758463 -0.01828502 1000
lala 6 1.2 0 first 5 1 99 6 4.380001 0.739997625350952 -1 1 -1 0 -0.01650015 -0.01637756 -0.0161996 1000 1000 1000 -0.01650015 -0.01637756 -0.0161996 1000 1000 1000 -0.006353837 -0.005091537 -0.00632282 -0.007265927 -0.007738674 1000 -0.006353837 -0.005091537 -0.00632282 -0.007265927 -0.007738674 1000
lala 5 1.2 1 first 14 1 100 5 3.3 1.3999969959259 0 0 1 1 -0.01472235 -0.01087162 -0.01049024 -0.008325351 -0.006899725 -0.007014395 -0.01472235 -0.01087162 -0.01049024 -0.008325351 -0.006899725 -0.007014395 -0.006436907 -0.007211864 -0.006207358 -0.00488701 -0.005172449 1000 -0.006436907 -0.007211864 -0.006207358 -0.00488701 -0.005172449 1000
lala 8 1.2 1 second 2 1 101 5 4.5 1.05999732017517 -1 0 1 1 -0.009837109 -0.01032658 -0.01022846 -0.01031785 -0.01022644 1000 -0.009837109 -0.01032658 -0.01022846 -0.01031785 -0.01022644 1000 -0.009159815 -0.009641838 -0.009318319 -0.009601726 -0.009496229 1000 -0.009159815 -0.009641838 -0.009318319 -0.009601726 -0.009496229 1000
lala 5 1.2 1 second 17 1 102 6 5.580001 0.379997968673706 0 1 1 1 -0.008492047 -0.008892759 -0.00884575 -0.00898739 -0.008505469 1000 -0.008492047 -0.008892759 -0.00884575 -0.00898739 -0.008505469 1000 -0.01107278 -0.01155078 -0.01136707 -0.01052261 -0.01016143 1000 -0.01107278 -0.01155078 -0.01136707 -0.01052261 -0.01016143 1000
lala 9 1.2 0 first 2 1 103 5 3.3 0.439997911453247 -1 0 -1 1 -0.01218216 -0.01264415 -0.01235878 1000 1000 1000 -0.01218216 -0.01264415 -0.01235878 1000 1000 1000 -0.01146829 -0.01158209 -0.0110766 -0.0106349 -0.01013787 1000 -0.01146829 -0.01158209 -0.0110766 -0.0106349 -0.01013787 1000
lala 7 1.2 1 first 13 1 104 4 2.92 1.51999688148499 0 1 1 0 -0.01282479 -0.01268385 -0.01197976 1000 1000 1000 -0.01282479 -0.01268385 -0.01197976 1000 1000 1000 -0.0186408 -0.01942463 -0.02051997 -0.02003158 -0.01989906 1000 -0.0186408 -0.01942463 -0.02051997 -0.02003158 -0.01989906 1000
lala 10 0.6 1 first 2 1 105 5 3.9 0.899997472763062 -1 0 1 0 -0.02105892 -0.02007535 -0.01962331 1000 1000 1000 -0.02105892 -0.02007535 -0.01962331 1000 1000 1000 -0.02780928 -0.02583003 -0.02341514 -0.02156219 -0.02174325 1000 -0.02780928 -0.02583003 -0.02341514 -0.02156219 -0.02174325 1000
lala 10 0.6 0 second 6 1 106 4 4.44 0.299998044967651 1 0 -1 1 -0.01511803 -0.01071188 -0.007393826 -0.009389515 -0.01117187 1000 -0.01511803 -0.01071188 -0.007393826 -0.009389515 -0.01117187 1000 -0.009177301 -0.009829829 -0.01042749 -0.01054901 -0.009648928 1000 -0.009177301 -0.009829829 -0.01042749 -0.01054901 -0.009648928 1000
lala 11 0.3 0 second 2 1 107 5 3.6 0.499997854232788 -1 0 -1 0 -0.010991 -0.01082705 -0.01125177 -0.01108291 -0.01070628 1000 -0.010991 -0.01082705 -0.01125177 -0.01108291 -0.01070628 1000 -0.008878868 -0.008673353 -0.009137835 -0.009021237 -0.009304312 1000 -0.008878868 -0.008673353 -0.009137835 -0.009021237 -0.009304312 1000
lala 5 1.2 1 first 9 1 108 5 1.85 0.319998025894165 1 1 1 0 -0.01004595 -0.01009036 -0.009637785 1000 1000 1000 -0.01004595 -0.01009036 -0.009637785 1000 1000 1000 -0.007226159 -0.006867182 -0.007117309 -0.00719761 -0.007301876 1000 -0.007226159 -0.006867182 -0.007117309 -0.00719761 -0.007301876 1000
lala 6 1.2 1 first 17 1 109 6 4.380001 0.559997797012329 0 1 1 0 -0.004989942 -0.004951922 -0.005259379 1000 1000 1000 -0.004989942 -0.004951922 -0.005259379 1000 1000 1000 -0.006448963 -0.005793399 -0.005320047 -0.005180432 -0.006095047 1000 -0.006448963 -0.005793399 -0.005320047 -0.005180432 -0.006095047 1000
lala 6 1.2 1 second 0 1 110 4 6.24 0.579997777938843 -1 0 1 1 -0.007912213 -0.007549717 -0.007449853 -0.007828503 -0.008471456 1000 -0.007912213 -0.007549717 -0.007449853 -0.007828503 -0.008471456 1000 -0.009572479 -0.009153016 -0.009376753 -0.009592319 -0.01019218 1000 -0.009572479 -0.009153016 -0.009376753 -0.009592319 -0.01019218 1000
lala 7 1.2 1 second 0 1 111 4 5.04 0.639997720718384 -1 0 1 0 -0.01190932 -0.01163745 -0.01165821 -0.01200879 -0.0121665 1000 -0.01190932 -0.01163745 -0.01165821 -0.01200879 -0.0121665 1000 -0.01191559 -0.01144599 -0.01145908 -0.01179412 -0.01152826 1000 -0.01191559 -0.01144599 -0.01145908 -0.01179412 -0.01152826 1000
lala 11 0.3 1 first 6 1 112 4 4.74 0.519997835159302 1 0 1 0 -0.01454787 -0.01554239 -0.01508073 1000 1000 1000 -0.01454787 -0.01554239 -0.01508073 1000 1000 1000 -0.01488409 -0.01513227 -0.01422321 -0.01323319 -0.01258758 1000 -0.01488409 -0.01513227 -0.01422321 -0.01323319 -0.01258758 1000
lala 12 0.15 0 second 2 1 113 5 3.75 0.459997892379761 -1 0 -1 1 -0.01444837 -0.01446567 -0.01450288 -0.01403488 -0.01407538 1000 -0.01444837 -0.01446567 -0.01450288 -0.01403488 -0.01407538 1000 -0.01540912 -0.01497268 -0.01484978 -0.01393176 -0.01421288 1000 -0.01540912 -0.01497268 -0.01484978 -0.01393176 -0.01421288 1000
lala 8 1.2 0 second 13 1 114 4 1.72 0.659997701644897 0 1 -1 1 -0.0149419 -0.01511443 -0.01831438 -0.01675567 -0.01633408 1000 -0.0149419 -0.01511443 -0.01831438 -0.01675567 -0.01633408 1000 -0.02124439 -0.02149031 -0.02035084 -0.02079323 -0.02091879 1000 -0.02124439 -0.02149031 -0.02035084 -0.02079323 -0.02091879 1000
lala 7 1.2 1 second 12 1 115 4 5.04 0.159998178482056 0 0 1 0 -0.02068526 -0.02052812 -0.01980148 -0.01897459 -0.01814024 1000 -0.02068526 -0.02052812 -0.01980148 -0.01897459 -0.01814024 1000 -0.02151546 -0.02116488 -0.02037513 -0.02002001 -0.0197444 1000 -0.02151546 -0.02116488 -0.02037513 -0.02002001 -0.0197444 1000
lala 12 0.15 1 second 6 1 116 4 4.59 0.159998178482056 1 0 1 0 -0.02018443 -0.01977219 -0.01963394 -0.01968893 -0.02040423 1000 -0.02018443 -0.01977219 -0.01963394 -0.01968893 -0.02040423 1000 -0.01891138 -0.01918036 -0.01923469 -0.02022175 -0.02073037 1000 -0.01891138 -0.01918036 -0.01923469 -0.02022175 -0.02073037 1000
lala 5 1.2 1 first 1 1 117 4 5.32 1.43999695777893 -1 1 1 1 -0.01957072 -0.01933295 -0.01824308 1000 1000 1000 -0.01957072 -0.01933295 -0.01824308 1000 1000 1000 -0.01877523 -0.0181607 -0.01697311 -0.01751776 -0.01820194 1000 -0.01877523 -0.0181607 -0.01697311 -0.01751776 -0.01820194 1000
lala 6 1.2 1 first 11 1 118 6 4.380001 0.699997663497925 1 1 1 1 -0.01997298 -0.02084324 -0.02111322 1000 1000 1000 -0.01997298 -0.02084324 -0.02111322 1000 1000 1000 -0.02185029 -0.02209931 -0.02186178 -0.02182816 -0.02158446 1000 -0.02185029 -0.02209931 -0.02186178 -0.02182816 -0.02158446 1000
lala 13 0.15 0 second 2 1 119 5 3.9 1.21999716758728 -1 0 -1 1 -0.02402554 -0.02373611 -0.02267877 -0.02218881 -0.02259217 1000 -0.02402554 -0.02373611 -0.02267877 -0.02218881 -0.02259217 1000 -0.0228751 -0.02210466 -0.02206178 -0.02211677 -0.02247659 1000 -0.0228751 -0.02210466 -0.02206178 -0.02211677 -0.02247659 1000
lala 8 1.2 0 first 12 1 120 4 3.84 2.03999662399292 0 0 -1 0 -0.01728728 -0.01756142 -0.01763389 1000 1000 1000 -0.01728728 -0.01756142 -0.01763389 1000 1000 1000 -0.01592791 -0.01588964 -0.01524937 -0.01469065 -0.01506469 1000 -0.01592791 -0.01588964 -0.01524937 -0.01469065 -0.01506469 1000
lala 7 1.2 1 second 5 1 121 6 5.580001 2.37999629974365 -1 1 1 1 -0.01210305 -0.0129528 -0.01327792 -0.01355577 -0.01321523 1000 -0.01210305 -0.0129528 -0.01327792 -0.01355577 -0.01321523 1000 -0.01344555 -0.01374672 -0.0141188 -0.01395093 -0.01362265 1000 -0.01344555 -0.01374672 -0.0141188 -0.01395093 -0.01362265 1000
lala 7 1.2 0 first 17 1 122 6 3.180001 0.439997911453247 0 1 -1 1 -0.01680292 -0.01705964 -0.01819474 1000 1000 1000 -0.01680292 -0.01705964 -0.01819474 1000 1000 1000 -0.02339624 -0.02303424 -0.02172181 -0.01890216 -0.01740305 1000 -0.02339624 -0.02303424 -0.02172181 -0.01890216 -0.01740305 1000
lala 10 0.6 1 second 10 1 123 6 4.56 1.65999698638916 1 0 1 0 -0.007783575 -0.009054577 -0.01162496 -0.01318211 -0.01352807 1000 -0.007783575 -0.009054577 -0.01162496 -0.01318211 -0.01352807 1000 -0.01187767 -0.01112482 -0.01209823 -0.01165219 -0.01168801 1000 -0.01187767 -0.01112482 -0.01209823 -0.01165219 -0.01168801 1000
lala 8 1.2 1 second 4 1 124 6 5.16 1.29999709129334 -1 0 1 1 -0.006529917 -0.007403614 -0.007869714 -0.008132395 -0.007823064 1000 -0.006529917 -0.007403614 -0.007869714 -0.008132395 -0.007823064 1000 -0.007156363 -0.007628046 -0.007292292 -0.007000022 -0.006635735 1000 -0.007156363 -0.007628046 -0.007292292 -0.007000022 -0.006635735 1000
lala 8 1.2 0 second 5 1 125 6 4.380001 1.15999722480774 -1 1 -1 0 -0.01069606 -0.01009619 -0.009080907 -0.008313664 -0.0091317 1000 -0.01069606 -0.01009619 -0.009080907 -0.008313664 -0.0091317 1000 -0.009674932 -0.009040913 -0.007864052 -0.008142859 -0.00821869 1000 -0.009674932 -0.009040913 -0.007864052 -0.008142859 -0.00821869 1000
lala 13 0.15 1 second 6 1 126 4 4.44 0.339998006820679 1 0 1 0 -0.02224721 -0.0221979 -0.0193681 -0.02056849 -0.02007449 1000 -0.02224721 -0.0221979 -0.0193681 -0.02056849 -0.02007449 1000 -0.02328909 -0.02232629 -0.02269168 -0.0235517 -0.02187233 1000 -0.02328909 -0.02232629 -0.02269168 -0.0235517 -0.02187233 1000
lala 9 1.2 1 second 5 1 127 6 5.580001 0.299998044967651 -1 1 1 0 -0.02245098 -0.02099192 -0.01853672 -0.01754717 -0.0168263 1000 -0.02245098 -0.02099192 -0.01853672 -0.01754717 -0.0168263 1000 -0.0149026 -0.01476576 -0.01500605 -0.01514932 -0.01524756 1000 -0.0149026 -0.01476576 -0.01500605 -0.01514932 -0.01524756 1000
lala 9 1.2 1 first 12 1 128 4 5.04 0.699997663497925 0 0 1 1 -0.01069835 -0.01073034 -0.009906939 1000 1000 1000 -0.01069835 -0.01073034 -0.009906939 1000 1000 1000 -0.009503358 -0.008803901 -0.009327408 -0.01004466 -0.009916124 1000 -0.009503358 -0.008803901 -0.009327408 -0.01004466 -0.009916124 1000
lala 9 1.2 0 second 13 1 129 4 2.92 0.379997968673706 0 1 -1 0 -0.006729295 -0.006558909 -0.007090399 -0.007376308 -0.007429463 1000 -0.006729295 -0.006558909 -0.007090399 -0.007376308 -0.007429463 1000 -0.006339089 -0.007253577 -0.007210421 -0.007117604 -0.007241936 1000 -0.006339089 -0.007253577 -0.007210421 -0.007117604 -0.007241936 1000
lala 7 1.2 0 second 8 1 130 5 3.3 0.339998006820679 1 0 -1 0 -0.004621286 -0.004998487 -0.005527574 -0.005720311 -0.005465572 1000 -0.004621286 -0.004998487 -0.005527574 -0.005720311 -0.005465572 1000 -0.005442932 -0.006086651 -0.007064924 -0.007104747 -0.006602075 1000 -0.005442932 -0.006086651 -0.007064924 -0.007104747 -0.006602075 1000
lala 9 1.2 1 first 4 1 131 6 3.96 0.0999982357025146 -1 0 1 0 -0.004863045 -0.005164865 -0.005550158 1000 1000 1000 -0.004863045 -0.005164865 -0.005550158 1000 1000 1000 -0.003646609 -0.002581511 -0.00153815 -0.00197465 -0.00294955 1000 -0.003646609 -0.002581511 -0.00153815 -0.00197465 -0.00294955 1000
lala 6 1.2 0 first 9 1 132 5 1.65 0.0999982357025146 1 1 -1 0 -0.00358097 -0.003958915 -0.003710017 1000 1000 1000 -0.00358097 -0.003958915 -0.003710017 1000 1000 1000 6.173023E-05 0.0002471484 0.0003005065 0.0003579558 0.0005979254 1000 6.173023E-05 0.0002471484 0.0003005065 0.0003579558 0.0005979254 1000
lala 3 1.2 1 first 15 1 133 5 4.25 0.119998216629028 0 1 1 0 -0.0004933968 0.0008323821 0.001698242 1000 1000 1000 -0.0004933968 0.0008323821 0.001698242 1000 1000 1000 0.0008121256 0.001070189 0.001240643 0.001979796 0.002711193 1000 0.0008121256 0.001070189 0.001240643 0.001979796 0.002711193 1000
lala 10 0.6 1 second 12 1 134 4 4.44 1.01999735832214 0 0 1 0 0.002072824 0.002241631 0.002298459 0.002153362 0.001834268 1000 0.002072824 0.002241631 0.002298459 0.002153362 0.001834268 1000 0.001763547 0.002535438 0.003254324 0.003064481 0.002739376 1000 0.001763547 0.002535438 0.003254324 0.003064481 0.002739376 1000
lala 7 1.2 0 first 9 1 135 5 2.85 0.439997911453247 1 1 -1 1 0.003219011 0.004408825 0.004368959 1000 1000 1000 0.003219011 0.004408825 0.004368959 1000 1000 1000 0.004472751 0.004401918 0.004756085 0.004513992 0.003783579 1000 0.004472751 0.004401918 0.004756085 0.004513992 0.003783579 1000
lala 11 0.3 1 second 10 1 136 6 4.26 0.279998064041138 1 0 1 0 -0.004199031 -0.005708806 -0.005338241 -0.0046702 -0.002198944 1000 -0.004199031 -0.005708806 -0.005338241 -0.0046702 -0.002198944 1000 -0.02034717 -0.02268668 -0.02397057 -0.02413324 -0.02480962 1000 -0.02034717 -0.02268668 -0.02397057 -0.02413324 -0.02480962 1000
lala 7 1.2 0 first 11 1 137 6 3.180001 0.259998083114624 1 1 -1 0 -0.01686965 -0.007008804 -0.005372038 1000 1000 1000 -0.01686965 -0.007008804 -0.005372038 1000 1000 1000 -0.01127514 -0.01144786 -0.01200543 -0.01165645 -0.01231185 1000 -0.01127514 -0.01144786 -0.01200543 -0.01165645 -0.01231185 1000
lala 8 1.2 0 second 9 1 138 5 4.05 0.819997549057007 1 1 -1 1 -0.01565163 -0.01556666 -0.01473434 -0.01496354 -0.01551041 1000 -0.01565163 -0.01556666 -0.01473434 -0.01496354 -0.01551041 1000 -0.01184026 -0.01115492 -0.009658653 -0.008872531 -0.009946126 1000 -0.01184026 -0.01115492 -0.009658653 -0.008872531 -0.009946126 1000
lala 8 1.2 1 second 17 1 139 6 4.380001 0.219998121261597 0 1 1 0 -0.01569637 -0.01663953 -0.0180566 -0.0186856 -0.01869553 1000 -0.01569637 -0.01663953 -0.0180566 -0.0186856 -0.01869553 1000 -0.01771086 -0.01775329 -0.01784278 -0.01830857 -0.01849148 1000 -0.01771086 -0.01775329 -0.01784278 -0.01830857 -0.01849148 1000
lala 11 0.6 1 first 12 1 140 4 3.84 0.679997682571411 0 0 1 1 -0.01745035 -0.01675389 -0.01666249 1000 1000 1000 -0.01745035 -0.01675389 -0.01666249 1000 1000 1000 -0.0170608 -0.01702749 -0.01650215 -0.01578461 -0.015184 1000 -0.0170608 -0.01702749 -0.01650215 -0.01578461 -0.015184 1000
lala 10 1.2 1 first 13 1 141 4 4.12 0.359997987747192 0 1 1 1 -0.0161608 -0.01578602 -0.0161561 1000 1000 1000 -0.0161608 -0.01578602 -0.0161561 1000 1000 1000 -0.01557819 -0.01576108 -0.01582855 -0.015019 -0.01485277 1000 -0.01557819 -0.01576108 -0.01582855 -0.015019 -0.01485277 1000
lala 10 0.6 1 second 5 1 142 6 4.980001 0.359997987747192 -1 1 1 1 -0.01396864 -0.01438613 -0.01437776 -0.0144426 -0.01419268 1000 -0.01396864 -0.01438613 -0.01437776 -0.0144426 -0.01419268 1000 -0.01404094 -0.01455442 -0.01450315 -0.01455981 -0.01392572 1000 -0.01404094 -0.01455442 -0.01450315 -0.01455981 -0.01392572 1000
lala 6 1.2 0 second 1 1 143 4 4.12 0.539997816085815 -1 1 -1 1 -0.01325367 -0.01300745 -0.01334848 -0.01397829 -0.01409534 1000 -0.01325367 -0.01300745 -0.01334848 -0.01397829 -0.01409534 1000 -0.01436358 -0.01419341 -0.01475702 -0.01473033 -0.01411887 1000 -0.01436358 -0.01419341 -0.01475702 -0.01473033 -0.01411887 1000
lala 8 1.2 0 first 11 1 144 6 4.380001 0.779997587203979 1 1 -1 1 -0.01316237 -0.01342888 -0.01349823 1000 1000 1000 -0.01316237 -0.01342888 -0.01349823 1000 1000 1000 -0.0129617 -0.01250832 -0.0126024 -0.01307236 -0.01334767 1000 -0.0129617 -0.01250832 -0.0126024 -0.01307236 -0.01334767 1000
lala 10 2.4 1 first 4 1 145 6 1.98 0.379997968673706 -1 0 1 1 -0.01448451 -0.01446161 -0.01395426 1000 1000 1000 -0.01448451 -0.01446161 -0.01395426 1000 1000 1000 -0.01307921 -0.01358852 -0.01371043 -0.01366028 -0.0130289 1000 -0.01307921 -0.01358852 -0.01371043 -0.01366028 -0.0130289 1000
lala 8 1.2 0 first 8 1 146 5 4.5 0.839997529983521 1 0 -1 0 -0.0139055 -0.01475576 -0.01529944 1000 1000 1000 -0.0139055 -0.01475576 -0.01529944 1000 1000 1000 -0.01547954 -0.01575444 -0.01620593 -0.01638783 -0.01606371 1000 -0.01547954 -0.01575444 -0.01620593 -0.01638783 -0.01606371 1000
lala 8 1.2 0 first 0 1 147 4 3.84 1.47999691963196 -1 0 -1 0 -0.01885175 -0.01853656 -0.01843255 1000 1000 1000 -0.01885175 -0.01853656 -0.01843255 1000 1000 1000 -0.03386016 -0.02965155 -0.02195233 -0.01867934 -0.01697394 1000 -0.03386016 -0.02965155 -0.02195233 -0.01867934 -0.01697394 1000
lala 6 1.2 0 second 14 1 148 5 2.1 0.679997682571411 0 0 -1 1 -0.01087162 -0.01635448 -0.01895229 -0.01736489 -0.01651942 1000 -0.01087162 -0.01635448 -0.01895229 -0.01736489 -0.01651942 1000 -0.01614858 -0.01817773 -0.01611894 -0.01485667 -0.015404 1000 -0.01614858 -0.01817773 -0.01611894 -0.01485667 -0.015404 1000
lala 9 1.2 1 second 11 1 149 6 5.580001 0.339998006820679 1 1 1 0 -0.00345171 -0.002816225 -0.004719099 -0.005067001 -0.006048649 1000 -0.00345171 -0.002816225 -0.004719099 -0.005067001 -0.006048649 1000 -0.01275108 -0.01272296 -0.01315645 -0.0143087 -0.01337908 1000 -0.01275108 -0.01272296 -0.01315645 -0.0143087 -0.01337908 1000
lala 10 0.6 1 second 11 1 150 6 4.980001 0.379997968673706 1 1 1 0 -0.00552645 -0.00491023 -0.004620061 -0.003714705 -0.003343262 1000 -0.00552645 -0.00491023 -0.004620061 -0.003714705 -0.003343262 1000 -0.0217447 -0.02491471 -0.02849751 -0.03416817 -0.03955951 1000 -0.0217447 -0.02491471 -0.02849751 -0.03416817 -0.03955951 1000
lala 11 0.6 1 second 11 1 151 6 4.380001 0.39999794960022 1 1 1 0 -0.01542875 -0.01216399 -0.008796417 -0.009707953 -0.01061887 1000 -0.01542875 -0.01216399 -0.008796417 -0.009707953 -0.01061887 1000 -0.005013729 0.001579919 0.003420751 0.002531285 0.001601672 1000 -0.005013729 0.001579919 0.003420751 0.002531285 0.001601672 1000
lala 14 0.15 0 second 6 1 152 4 4.29 0.319998025894165 1 0 -1 1 0.005265181 0.004009899 0.004233581 0.005233212 0.004673774 1000 0.005265181 0.004009899 0.004233581 0.005233212 0.004673774 1000 0.0002277564 0.001567585 0.002269509 0.002542646 0.002996134 1000 0.0002277564 0.001567585 0.002269509 0.002542646 0.002996134 1000
lala 12 0.3 0 first 10 1 153 6 3.96 0.39999794960022 1 0 -1 0 0.002451513 0.001846758 0.00143581 1000 1000 1000 0.002451513 0.001846758 0.00143581 1000 1000 1000 0.0003300674 0.0003852125 0.0004364584 0.0008815186 0.0007582653 1000 0.0003300674 0.0003852125 0.0004364584 0.0008815186 0.0007582653 1000
lala 15 0.075 1 second 6 1 154 4 4.365 0.159998178482056 1 0 1 0 0.002370913 0.001535785 0.002244735 0.002263032 0.002101483 1000 0.002370913 0.001535785 0.002244735 0.002263032 0.002101483 1000 0.001748897 0.001881584 0.001875577 0.002289375 0.002394071 1000 0.001748897 0.001881584 0.001875577 0.002289375 0.002394071 1000
lala 3 1.2 1 first 16 1 155 6 6.36 1.57999682426453 0 0 1 0 0.002432806 0.002596435 0.0021006 1000 1000 1000 0.002432806 0.002596435 0.0021006 1000 1000 1000 0.00230021 0.002771823 0.003276419 0.003054933 0.002180627 1000 0.00230021 0.002771823 0.003276419 0.003054933 0.002180627 1000
lala 12 0.6 0 first 11 1 156 6 3.780001 0.519997835159302 1 1 -1 1 0.002435243 0.002909438 0.002876072 1000 1000 1000 0.002435243 0.002909438 0.002876072 1000 1000 1000 0.0004315191 0.0008046131 0.0008637668 0.0006500748 -5.110558E-05 1000 0.0004315191 0.0008046131 0.0008637668 0.0006500748 -5.110558E-05 1000
lala 12 0.6 0 second 12 1 157 4 3.24 0.379997968673706 0 0 -1 0 -0.001488795 -0.0006420376 -0.0003029033 -9.834336E-05 -0.0005806386 1000 -0.001488795 -0.0006420376 -0.0003029033 -9.834336E-05 -0.0005806386 1000 -0.001038478 -0.0004471666 -0.0004270264 -0.0005281465 -0.001231382 1000 -0.001038478 -0.0004471666 -0.0004270264 -0.0005281465 -0.001231382 1000
lala 8 1.2 0 second 7 1 158 4 4.12 0.699997663497925 1 1 -1 0 -0.003097258 -0.002944335 -0.00217775 -0.001164867 -0.001019696 1000 -0.003097258 -0.002944335 -0.00217775 -0.001164867 -0.001019696 1000 -0.00395793 -0.004144424 -0.003232471 -0.002784978 -0.002825958 1000 -0.00395793 -0.004144424 -0.003232471 -0.002784978 -0.002825958 1000
lala 11 4.8 1 first 4 1 159 6 1.98 0.639997720718384 -1 0 1 0 -0.005185092 -0.006243091 -0.007392093 1000 1000 1000 -0.005185092 -0.006243091 -0.007392093 1000 1000 1000 -0.01114309 -0.0104614 -0.01036211 -0.01097547 -0.01174393 1000 -0.01114309 -0.0104614 -0.01036211 -0.01097547 -0.01174393 1000
lala 13 0.15 0 first 10 1 160 6 4.11 1.67999696731567 1 0 -1 1 -0.01407568 -0.01460164 -0.01481981 1000 1000 1000 -0.01407568 -0.01460164 -0.01481981 1000 1000 1000 -0.01590524 -0.01615522 -0.01683502 -0.01745148 -0.01753154 1000 -0.01590524 -0.01615522 -0.01683502 -0.01745148 -0.01753154 1000
lala 13 0.3 1 second 12 1 161 4 3.54 0.139998197555542 0 0 1 1 -0.01798292 -0.01775776 -0.01828013 -0.01827051 -0.01830716 1000 -0.01798292 -0.01775776 -0.01828013 -0.01827051 -0.01830716 1000 -0.01489858 -0.01509753 -0.01701679 -0.01854141 -0.01799537 1000 -0.01489858 -0.01509753 -0.01701679 -0.01854141 -0.01799537 1000
lala 14 0.15 1 second 2 1 162 5 4.05 0.319998025894165 -1 0 1 1 -0.02040984 -0.01961068 -0.01956898 -0.01934239 -0.02064856 1000 -0.02040984 -0.01961068 -0.01956898 -0.01934239 -0.02064856 1000 -0.01937406 -0.0203546 -0.02017515 -0.01978707 -0.01961395 1000 -0.01937406 -0.0203546 -0.02017515 -0.01978707 -0.01961395 1000
lala 13 0.3 1 first 11 1 163 6 4.080001 0.899997472763062 1 1 1 1 -0.01904136 -0.01943956 -0.01930045 1000 1000 1000 -0.01904136 -0.01943956 -0.01930045 1000 1000 1000 -0.01531049 -0.01531033 -0.01544568 -0.01565939 -0.01535265 1000 -0.01531049 -0.01531033 -0.01544568 -0.01565939 -0.01535265 1000
lala 14 0.15 0 first 10 1 164 6 4.26 0.559997797012329 1 0 -1 1 -0.01531824 -0.01480308 -0.01479983 1000 1000 1000 -0.01531824 -0.01480308 -0.01479983 1000 1000 1000 -0.012936 -0.01268518 -0.01256742 -0.01250073 -0.01275445 1000 -0.012936 -0.01268518 -0.01256742 -0.01250073 -0.01275445 1000
lala 7 1.2 0 first 1 1 165 4 5.32 0.679997682571411 -1 1 -1 0 -0.01289112 -0.01265659 -0.01351091 1000 1000 1000 -0.01289112 -0.01265659 -0.01351091 1000 1000 1000 -0.02120826 -0.01678081 -0.01764262 -0.01537515 -0.01712296 1000 -0.02120826 -0.01678081 -0.01764262 -0.01537515 -0.01712296 1000
lala 9 1.2 1 first 0 1 166 4 5.04 0.479997873306274 -1 0 1 1 -0.01419403 -0.01217228 -0.01153763 1000 1000 1000 -0.01419403 -0.01217228 -0.01153763 1000 1000 1000 -0.01312957 -0.009612874 -0.01207108 -0.01430237 -0.01547754 1000 -0.01312957 -0.009612874 -0.01207108 -0.01430237 -0.01547754 1000
lala 14 0.15 1 first 12 1 167 4 3.39 0.719997644424438 0 0 1 0 -0.02079451 -0.02158987 -0.0187294 1000 1000 1000 -0.02079451 -0.02158987 -0.0187294 1000 1000 1000 -0.01353109 -0.01372387 -0.01310213 -0.01341225 -0.01290851 1000 -0.01353109 -0.01372387 -0.01310213 -0.01341225 -0.01290851 1000
lala 15 0.075 1 second 2 1 168 5 3.975 2.93999576568604 -1 0 1 1 -0.01215832 -0.01111164 -0.01079712 -0.01070665 -0.01038298 1000 -0.01215832 -0.01111164 -0.01079712 -0.01070665 -0.01038298 1000 -0.00992891 -0.009352781 -0.009027729 -0.009079938 -0.009469521 1000 -0.00992891 -0.009352781 -0.009027729 -0.009079938 -0.009469521 1000
lala 10 0.6 1 second 0 1 169 4 4.44 0.879997491836548 -1 0 1 0 -0.00411037 -0.00363982 -0.003868763 -0.004212385 -0.004040249 1000 -0.00411037 -0.00363982 -0.003868763 -0.004212385 -0.004040249 1000 -0.003950371 -0.00390449 -0.004269395 -0.004419554 -0.004066695 1000 -0.003950371 -0.00390449 -0.004269395 -0.004419554 -0.004066695 1000
lala 9 1.2 0 second 17 1 170 6 3.180001 0.459997892379761 0 1 -1 1 -0.004800913 -0.004974406 -0.002582042 -0.001459477 -0.00297192 1000 -0.004800913 -0.004974406 -0.002582042 -0.001459477 -0.00297192 1000 -0.003432523 -0.003570396 -0.003207803 -0.003130728 -0.003735256 1000 -0.003432523 -0.003570396 -0.003207803 -0.003130728 -0.003735256 1000
lala 15 0.15 1 second 12 1 171 4 3.24 0.539997816085815 0 0 1 0 -0.004794869 -0.004524219 -0.00463165 -0.005058544 -0.005356521 1000 -0.004794869 -0.004524219 -0.00463165 -0.005058544 -0.005356521 1000 -0.006123745 -0.00600807 -0.005922492 -0.005826595 -0.005916012 1000 -0.006123745 -0.00600807 -0.005922492 -0.005826595 -0.005916012 1000
lala 12 9.6 0 second 4 1 172 6 1.98 2.67999601364136 -1 0 -1 1 -0.005800568 -0.005624861 -0.00570856 -0.006034086 -0.006262617 1000 -0.005800568 -0.005624861 -0.00570856 -0.006034086 -0.006262617 1000 -0.005774135 -0.005556434 -0.00587358 -0.006120148 -0.00571588 1000 -0.005774135 -0.005556434 -0.00587358 -0.006120148 -0.00571588 1000
lala 9 1.2 1 first 8 1 173 5 5.7 0.299998044967651 1 0 1 0 -0.003204317 -0.003199799 -0.003674255 1000 1000 1000 -0.003204317 -0.003199799 -0.003674255 1000 1000 1000 -0.002959007 -0.002700712 -0.002220591 -0.002437579 -0.00259937 1000 -0.002959007 -0.002700712 -0.002220591 -0.002437579 -0.00259937 1000
lala 11 0.6 0 second 13 1 174 4 3.52 0.719997644424438 0 1 -1 0 -0.002613503 -0.003023105 -0.002857133 -0.002775391 -0.002230811 1000 -0.002613503 -0.003023105 -0.002857133 -0.002775391 -0.002230811 1000 -0.003292495 -0.003105431 -0.002570983 -0.002342442 -0.001138086 1000 -0.003292495 -0.003105431 -0.002570983 -0.002342442 -0.001138086 1000
lala 11 0.6 1 first 5 1 175 6 4.380001 0.319998025894165 -1 1 1 1 -0.003580228 -0.00369084 -0.003893745 1000 1000 1000 -0.003580228 -0.00369084 -0.003893745 1000 1000 1000 -0.005282333 -0.005458927 -0.005596269 -0.005545226 -0.005854005 1000 -0.005282333 -0.005458927 -0.005596269 -0.005545226 -0.005854005 1000
lala 9 1.2 1 second 9 1 176 5 5.25 0.379997968673706 1 1 1 1 -0.00582861 -0.005404108 -0.00513199 -0.004782358 -0.004530491 1000 -0.00582861 -0.005404108 -0.00513199 -0.004782358 -0.004530491 1000 -0.00474973 -0.004972779 -0.005011208 -0.004514509 -0.00401034 1000 -0.00474973 -0.004972779 -0.005011208 -0.004514509 -0.00401034 1000
lala 7 1.2 1 first 14 1 177 5 3.3 0.679997682571411 0 0 1 0 -0.006918434 -0.006420589 -0.005620927 1000 1000 1000 -0.006918434 -0.006420589 -0.005620927 1000 1000 1000 -0.006031686 -0.006737891 -0.006908 -0.006411393 -0.006031134 1000 -0.006031686 -0.006737891 -0.006908 -0.006411393 -0.006031134 1000
lala 12 0.3 1 second 13 1 178 4 3.82 0.499997854232788 0 1 1 1 -0.006421502 -0.006324671 -0.006235927 -0.006259824 -0.008068739 1000 -0.006421502 -0.006324671 -0.006235927 -0.006259824 -0.008068739 1000 -0.02346218 -0.02317783 -0.02283856 -0.02206465 -0.02355713 1000 -0.02346218 -0.02317783 -0.02283856 -0.02206465 -0.02355713 1000
lala 14 0.15 1 second 11 1 179 6 3.930001 1.27999711036682 1 1 1 0 -0.01666502 -0.01445417 -0.01223821 -0.008927221 -0.009895874 1000 -0.01666502 -0.01445417 -0.01223821 -0.008927221 -0.009895874 1000 0.01585356 0.02855808 0.03504251 0.03333171 0.03490863 1000 0.01585356 0.02855808 0.03504251 0.03333171 0.03490863 1000
lala 8 1.2 0 first 14 1 180 5 2.1 0.119998216629028 0 0 -1 1 -0.00068014 -0.0198333 -0.03208224 1000 1000 1000 -0.00068014 -0.0198333 -0.03208224 1000 1000 1000 -0.01890083 -0.01436197 -0.01477102 -0.01597726 -0.01562554 1000 -0.01890083 -0.01436197 -0.01477102 -0.01597726 -0.01562554 1000
lala 16 0.15 1 second 12 1 181 4 3.09 0.439997911453247 0 0 1 0 -0.01127263 -0.01117631 -0.01445523 -0.01439529 -0.01160697 1000 -0.01127263 -0.01117631 -0.01445523 -0.01439529 -0.01160697 1000 -0.003783693 -0.003668626 -0.004564217 -0.004327967 -0.003795127 1000 -0.003783693 -0.003668626 -0.004564217 -0.004327967 -0.003795127 1000
lala 12 0.6 0 first 5 1 182 6 3.780001 0.219998121261597 -1 1 -1 0 -0.005294024 -0.005220576 -0.004739043 1000 1000 1000 -0.005294024 -0.005220576 -0.004739043 1000 1000 1000 -0.004726069 -0.004611068 -0.004619972 -0.004440102 -0.004344827 1000 -0.004726069 -0.004611068 -0.004619972 -0.004440102 -0.004344827 1000
lala 10 0.6 1 first 8 1 183 5 5.1 2.39999628067017 1 0 1 1 -0.003681678 -0.003550116 -0.003561447 1000 1000 1000 -0.003681678 -0.003550116 -0.003561447 1000 1000 1000 -0.002369318 -0.001406934 -0.0005812884 -0.0002630529 -0.001353174 1000 -0.002369318 -0.001406934 -0.0005812884 -0.0002630529 -0.001353174 1000
lala 7 1.2 1 second 3 1 184 5 4.25 0.859997510910034 -1 1 1 1 0.001245286 0.0007457365 0.000674787 0.0008892792 0.0008893834 1000 0.001245286 0.0007457365 0.000674787 0.0008892792 0.0008893834 1000 0.001644262 0.00167421 0.001634037 0.002012937 0.00217125 1000 0.001644262 0.00167421 0.001634037 0.002012937 0.00217125 1000
lala 13 0.15 1 second 13 1 185 4 3.67 0.419997930526733 0 1 1 0 0.009667824 0.009984589 0.01010311 0.009321705 0.008652386 1000 0.009667824 0.009984589 0.01010311 0.009321705 0.008652386 1000 0.007526069 0.008619762 0.009017168 0.008520762 0.007645497 1000 0.007526069 0.008619762 0.009017168 0.008520762 0.007645497 1000
lala 16 0.0375 1 second 6 1 186 4 4.3275 0.299998044967651 1 0 1 1 0.009774713 0.008159682 0.007009332 0.006168054 0.004557918 1000 0.009774713 0.008159682 0.007009332 0.006168054 0.004557918 1000 0.004191228 0.005166282 0.004507147 0.003814729 0.00425964 1000 0.004191228 0.005166282 0.004507147 0.003814729 0.00425964 1000
lala 10 0.6 1 first 9 1 187 5 4.65 0.479997873306274 1 1 1 0 0.005687485 0.00637541 0.006706801 1000 1000 1000 0.005687485 0.00637541 0.006706801 1000 1000 1000 0.009705689 0.00867891 0.007716573 0.007589404 0.006680927 1000 0.009705689 0.00867891 0.007716573 0.007589404 0.006680927 1000
lala 13 0.3 0 first 5 1 188 6 4.080001 0.699997663497925 -1 1 -1 0 0.003278317 0.003548377 0.003487601 1000 1000 1000 0.003278317 0.003548377 0.003487601 1000 1000 1000 0.002463269 0.002605538 0.002792839 0.003504897 0.003364125 1000 0.002463269 0.002605538 0.002792839 0.003504897 0.003364125 1000
lala 16 0.075 0 first 2 1 189 5 3.9 0.519997835159302 -1 0 -1 1 0.003046258 0.002823918 0.002792529 1000 1000 1000 0.003046258 0.002823918 0.002792529 1000 1000 1000 0.002876526 0.003690447 0.003825976 0.003589606 0.00306603 1000 0.002876526 0.003690447 0.003825976 0.003589606 0.00306603 1000
lala 13 4.8 1 second 4 1 190 6 6.78 0.219998121261597 -1 0 1 1 0.001578757 0.002354657 0.002467494 0.00203597 0.002000582 1000 0.001578757 0.002354657 0.002467494 0.00203597 0.002000582 1000 0.001932555 0.002804747 0.002858103 0.00258745 0.002419147 1000 0.001932555 0.002804747 0.002858103 0.00258745 0.002419147 1000
lala 17 0.3 1 first 12 1 191 4 2.79 0.39999794960022 0 0 1 0 0.0006751416 0.001034076 0.001016603 1000 1000 1000 0.0006751416 0.001034076 0.001016603 1000 1000 1000 0.001755106 0.002135665 0.002341175 0.002908256 0.002654936 1000 0.001755106 0.002135665 0.002341175 0.002908256 0.002654936 1000
lala 14 0.3 1 second 5 1 192 6 4.380002 0.959997415542603 -1 1 1 0 0.00276452 0.001867311 0.001522498 0.001053546 0.001033565 1000 0.00276452 0.001867311 0.001522498 0.001053546 0.001033565 1000 5.818997E-05 -0.0002209798 0.0001985383 0.0007209526 0.001165692 1000 5.818997E-05 -0.0002209798 0.0001985383 0.0007209526 0.001165692 1000
lala 17 0.0375 1 first 6 1 193 4 4.29 0.699997663497925 1 0 1 1 -0.007860177 -0.01280877 -0.01649617 1000 1000 1000 -0.007860177 -0.01280877 -0.01649617 1000 1000 1000 -0.01564774 -0.0147651 -0.01515018 -0.01602345 -0.01661264 1000 -0.01564774 -0.0147651 -0.01515018 -0.01602345 -0.01661264 1000
lala 18 0.6 0 first 12 1 194 4 2.19 0.659997701644897 0 0 -1 1 -0.01450484 -0.01396239 -0.01409962 1000 1000 1000 -0.01450484 -0.01396239 -0.01409962 1000 1000 1000 -0.01511952 -0.01542096 -0.01460709 -0.01426228 -0.01481484 1000 -0.01511952 -0.01542096 -0.01460709 -0.01426228 -0.01481484 1000
lala 8 1.2 1 first 1 1 195 4 6.52 0.39999794960022 -1 1 1 1 -0.01727785 -0.01789792 -0.01771967 1000 1000 1000 -0.01727785 -0.01789792 -0.01771967 1000 1000 1000 -0.01791431 -0.01721486 -0.01743077 -0.0178641 -0.01752714 1000 -0.01791431 -0.01721486 -0.01743077 -0.0178641 -0.01752714 1000
lala 15 0.15 1 first 11 1 196 6 3.780001 1.23999714851379 1 1 1 0 -0.01731575 -0.017492 -0.01730855 1000 1000 1000 -0.01731575 -0.017492 -0.01730855 1000 1000 1000 -0.01712603 -0.01652728 -0.01693426 -0.01746748 -0.01742117 1000 -0.01712603 -0.01652728 -0.01693426 -0.01746748 -0.01742117 1000
lala 10 0.6 0 second 17 1 197 6 3.780001 1.23999714851379 0 1 -1 0 -0.01473554 -0.01346678 -0.01297134 -0.01264673 -0.01257661 1000 -0.01473554 -0.01346678 -0.01297134 -0.01264673 -0.01257661 1000 -0.01354623 -0.01407738 -0.01430274 -0.01355998 -0.01385938 1000 -0.01354623 -0.01407738 -0.01430274 -0.01355998 -0.01385938 1000
lala 19 0.3 1 first 12 1 198 4 2.49 0.319998025894165 0 0 1 0 -0.01053171 -0.01048531 -0.01125176 1000 1000 1000 -0.01053171 -0.01048531 -0.01125176 1000 1000 1000 -0.009371609 -0.008692843 -0.009266649 -0.01055094 -0.01075039 1000 -0.009371609 -0.008692843 -0.009266649 -0.01055094 -0.01075039 1000
lala 20 0.15 0 first 12 1 199 4 2.34 0.379997968673706 0 0 -1 0 -0.009930345 -0.00984938 -0.01078146 1000 1000 1000 -0.009930345 -0.00984938 -0.01078146 1000 1000 1000 -0.01020818 -0.01005027 -0.009472366 -0.009587079 -0.01025814 1000 -0.01020818 -0.01005027 -0.009472366 -0.009587079 -0.01025814 1000
lala 17 0.0375 0 first 2 1 200 5 3.9375 0.779997587203979 -1 0 -1 0 -0.0196026 -0.01427899 -0.010134 -0.01083513 -0.01000412 -0.009386573 -0.0196026 -0.01427899 -0.010134 -0.01083513 -0.01000412 -0.009386573 -0.005242822 -0.004301572 -0.003463489 -0.003738044 -0.00398953 1000 -0.005242822 -0.004301572 -0.003463489 -0.003738044 -0.00398953 1000
lala 11 0.6 1 first 0 1 201 4 3.84 0.279998064041138 -1 0 1 1 -0.0006427274 -0.0004130003 -0.0003947561 1000 1000 1000 -0.0006427274 -0.0004130003 -0.0003947561 1000 1000 1000 -0.0007896295 -0.001495672 -0.00131536 -0.001036526 -0.0006670345 1000 -0.0007896295 -0.001495672 -0.00131536 -0.001036526 -0.0006670345 1000
lala 11 0.6 0 first 17 1 202 6 4.380001 0.419997930526733 0 1 -1 1 -0.002376124 -0.002979238 -0.002963048 1000 1000 1000 -0.002376124 -0.002979238 -0.002963048 1000 1000 1000 -0.00332563 -0.003549618 -0.004185292 -0.004178766 -0.00405337 1000 -0.00332563 -0.003549618 -0.004185292 -0.004178766 -0.00405337 1000
lala 9 1.2 1 first 1 1 203 4 5.32 0.219998121261597 -1 1 1 0 -0.004392926 -0.004007517 -0.003724244 1000 1000 1000 -0.004392926 -0.004007517 -0.003724244 1000 1000 1000 -0.003470221 -0.003365333 -0.004072674 -0.00450943 -0.004100426 1000 -0.003470221 -0.003365333 -0.004072674 -0.00450943 -0.004100426 1000
lala 14 0.15 0 first 13 1 204 4 3.52 0.319998025894165 0 1 -1 1 -0.003358728 -0.003240158 -0.003672884 1000 1000 1000 -0.003358728 -0.003240158 -0.003672884 1000 1000 1000 -0.003477292 -0.003171278 -0.002545979 -0.002685563 -0.003000868 1000 -0.003477292 -0.003171278 -0.002545979 -0.002685563 -0.003000868 1000
lala 15 0.075 0 first 13 1 205 4 3.595 0.199998140335083 0 1 -1 0 -0.003292139 -0.00258009 -0.002461773 1000 1000 1000 -0.003292139 -0.00258009 -0.002461773 1000 1000 1000 -0.002732297 -0.002550842 -0.002290781 -0.001837807 -0.002156456 1000 -0.002732297 -0.002550842 -0.002290781 -0.001837807 -0.002156456 1000
lala 12 0.6 1 second 17 1 206 6 4.980001 0.159998178482056 0 1 1 0 -0.002408867 -0.00290199 -0.003023325 -0.002753656 -0.002687458 1000 -0.002408867 -0.00290199 -0.003023325 -0.002753656 -0.002687458 1000 -0.002637647 -0.002949056 -0.003058349 -0.003065866 -0.002318825 1000 -0.002637647 -0.002949056 -0.003058349 -0.003065866 -0.002318825 1000
lala 4 1.2 1 first 16 1 207 6 5.16 0.39999794960022 0 0 1 0 -0.002409258 -0.00221937 -0.002721798 1000 1000 1000 -0.002409258 -0.00221937 -0.002721798 1000 1000 1000 -0.002834864 -0.002371131 -0.002509739 -0.002631726 -0.003597928 1000 -0.002834864 -0.002371131 -0.002509739 -0.002631726 -0.003597928 1000
lala 16 0.15 0 first 11 1 208 6 3.630001 0.259998083114624 1 1 -1 0 -0.002649104 -0.002382142 -0.002947428 1000 1000 1000 -0.002649104 -0.002382142 -0.002947428 1000 1000 1000 -0.003665012 -0.003812589 -0.003787736 -0.003432979 -0.003833983 1000 -0.003665012 -0.003812589 -0.003787736 -0.003432979 -0.003833983 1000
lala 21 0.075 0 first 12 1 209 4 2.415 0.639997720718384 0 0 -1 0 -0.003938954 -0.003778273 -0.003388669 1000 1000 1000 -0.003938954 -0.003778273 -0.003388669 1000 1000 1000 -0.003485277 -0.004405281 -0.004559106 -0.004110435 -0.003538763 1000 -0.003485277 -0.004405281 -0.004559106 -0.004110435 -0.003538763 1000
lala 17 0.075 1 first 11 1 210 6 3.705001 0.519997835159302 1 1 1 1 -0.004441929 -0.003971408 -0.004480695 1000 1000 1000 -0.004441929 -0.003971408 -0.004480695 1000 1000 1000 -0.005370351 -0.005606598 -0.00505623 -0.005129041 -0.005978227 1000 -0.005370351 -0.005606598 -0.00505623 -0.005129041 -0.005978227 1000
lala 22 0.075 1 first 12 1 211 4 2.49 1.59999680519104 0 0 1 0 -0.006982807 -0.007505352 -0.008067779 1000 1000 1000 -0.006982807 -0.007505352 -0.008067779 1000 1000 1000 -0.008315722 -0.007460285 -0.006893287 -0.007808663 -0.008527426 1000 -0.008315722 -0.007460285 -0.006893287 -0.007808663 -0.008527426 1000
lala 13 0.3 0 first 17 1 212 6 4.680001 0.479997873306274 0 1 -1 1 -0.01183612 -0.01183417 -0.01210204 1000 1000 1000 -0.01183612 -0.01183417 -0.01210204 1000 1000 1000 -0.01448126 -0.01360148 -0.01339171 -0.01360356 -0.01407155 1000 -0.01448126 -0.01360148 -0.01339171 -0.01360356 -0.01407155 1000
lala 9 1.2 1 first 7 1 213 4 5.32 0.559997797012329 1 1 1 1 -0.0142963 -0.01371897 -0.01408525 1000 1000 1000 -0.0142963 -0.01371897 -0.01408525 1000 1000 1000 -0.01539927 -0.01460589 -0.01491758 -0.01541348 -0.01574479 1000 -0.01539927 -0.01460589 -0.01491758 -0.01541348 -0.01574479 1000
lala 14 2.4 0 second 4 1 214 6 4.38 0.419997930526733 -1 0 -1 0 -0.01623841 -0.01651707 -0.01714484 -0.01709474 -0.01714264 1000 -0.01623841 -0.01651707 -0.01714484 -0.01709474 -0.01714264 1000 -0.01633174 -0.01685154 -0.0180859 -0.01845215 -0.01848928 1000 -0.01633174 -0.01685154 -0.0180859 -0.01845215 -0.01848928 1000
lala 16 0.075 0 first 13 1 215 4 3.67 0.519997835159302 0 1 -1 0 -0.02043429 -0.02111366 -0.02039655 1000 1000 1000 -0.02043429 -0.02111366 -0.02039655 1000 1000 1000 -0.01994149 -0.0200029 -0.02036541 -0.02055011 -0.02078097 1000 -0.01994149 -0.0200029 -0.02036541 -0.02055011 -0.02078097 1000
lala 15 1.2 1 second 4 1 216 6 5.58 0.759997606277466 -1 0 1 1 -0.02068921 -0.02085672 -0.02055592 -0.02064699 -0.02034019 1000 -0.02068921 -0.02085672 -0.02055592 -0.02064699 -0.02034019 1000 -0.02096558 -0.02179832 -0.02194144 -0.02168597 -0.02171681 1000 -0.02096558 -0.02179832 -0.02194144 -0.02168597 -0.02171681 1000
lala 8 1.2 0 second 3 1 217 5 3.05 0.799997568130493 -1 1 -1 1 -0.0238515 -0.02113347 -0.02331857 -0.02334739 -0.02329995 1000 -0.0238515 -0.02113347 -0.02331857 -0.02334739 -0.02329995 1000 -0.0286429 -0.02972124 -0.02852648 -0.02549388 -0.02418214 1000 -0.0286429 -0.02972124 -0.02852648 -0.02549388 -0.02418214 1000
lala 18 0.0375 1 first 6 1 218 4 4.2525 0.779997587203979 1 0 1 0 -0.01975318 -0.01415396 -0.01407338 1000 1000 1000 -0.01975318 -0.01415396 -0.01407338 1000 1000 1000 -0.00499168 -0.004737321 -0.01014659 -0.01080028 -0.01132403 1000 -0.00499168 -0.004737321 -0.01014659 -0.01080028 -0.01132403 1000
lala 15 0.15 1 second 10 1 219 6 4.41 0.61999773979187 1 0 1 0 -0.01248934 -0.0127327 -0.01257038 -0.0124487 -0.01275444 1000 -0.01248934 -0.0127327 -0.01257038 -0.0124487 -0.01275444 1000 -0.0119367 -0.01119215 -0.01065717 -0.01041272 -0.01046558 1000 -0.0119367 -0.01119215 -0.01065717 -0.01041272 -0.01046558 1000
lala 16 0.075 1 second 10 1 220 6 4.335 0.279998064041138 1 0 1 0 -0.007383379 -0.007950851 -0.008059649 -0.007498866 -0.006889496 1000 -0.007383379 -0.007950851 -0.008059649 -0.007498866 -0.006889496 1000 -0.006741385 -0.006664688 -0.007073453 -0.006858462 -0.006507375 1000 -0.006741385 -0.006664688 -0.007073453 -0.006858462 -0.006507375 1000
lala 11 0.6 0 second 9 1 221 5 4.05 0.839997529983521 1 1 -1 0 -0.006084064 -0.006820744 -0.007639814 -0.007803739 -0.007890453 1000 -0.006084064 -0.006820744 -0.007639814 -0.007803739 -0.007890453 1000 -0.006715969 -0.007274595 -0.007682022 -0.007901635 -0.007834463 1000 -0.006715969 -0.007274595 -0.007682022 -0.007901635 -0.007834463 1000
lala 12 0.6 0 second 0 1 222 4 3.24 0.499997854232788 -1 0 -1 1 -0.006752948 -0.006682437 -0.006267832 -0.006263002 -0.006298534 1000 -0.006752948 -0.006682437 -0.006267832 -0.006263002 -0.006298534 1000 -0.007334539 -0.006120746 -0.005840875 -0.006191854 -0.006804339 1000 -0.007334539 -0.006120746 -0.005840875 -0.006191854 -0.006804339 1000
lala 12 0.3 1 second 9 1 223 5 4.35 0.39999794960022 1 1 1 0 -0.007224764 -0.006924504 -0.005960553 -0.005620514 -0.006320047 1000 -0.007224764 -0.006924504 -0.005960553 -0.005620514 -0.006320047 1000 -0.007222601 -0.006591551 -0.006590574 -0.006813019 -0.006919707 1000 -0.007222601 -0.006591551 -0.006590574 -0.006813019 -0.006919707 1000
lala 18 0.0375 0 first 2 1 224 5 3.975 1.79999685287476 -1 0 -1 1 -0.005092502 -0.004549897 -0.004628417 1000 1000 1000 -0.005092502 -0.004549897 -0.004628417 1000 1000 1000 -0.006292253 -0.006755849 -0.006409427 -0.006234515 -0.006666054 1000 -0.006292253 -0.006755849 -0.006409427 -0.006234515 -0.006666054 1000
lala 4 1.2 0 second 15 1 225 5 3.05 0.279998064041138 0 1 -1 1 -0.006116664 -0.006238521 -0.005950048 -0.005628171 -0.006260082 1000 -0.006116664 -0.006238521 -0.005950048 -0.005628171 -0.006260082 1000 -0.006434616 -0.006441049 -0.006278129 -0.006471464 -0.006774908 1000 -0.006434616 -0.006441049 -0.006278129 -0.006471464 -0.006774908 1000
lala 23 0.0375 0 first 12 1 226 4 2.4525 0.179998159408569 0 0 -1 1 -0.007104068 -0.006802037 -0.006732032 1000 1000 1000 -0.007104068 -0.006802037 -0.006732032 1000 1000 1000 -0.00667059 -0.007503198 -0.007551006 -0.007390543 -0.007229891 1000 -0.00667059 -0.007503198 -0.007551006 -0.007390543 -0.007229891 1000
lala 13 0.3 0 second 0 1 227 4 3.54 0.419997930526733 -1 0 -1 1 -0.00741265 -0.007004843 -0.006146012 -0.006032555 -0.006778099 1000 -0.00741265 -0.007004843 -0.006146012 -0.006032555 -0.006778099 1000 -0.00884539 -0.009089935 -0.009218534 -0.009404139 -0.009879774 1000 -0.00884539 -0.009089935 -0.009218534 -0.009404139 -0.009879774 1000
lala 13 0.15 1 first 9 1 228 5 4.2 0.199998140335083 1 1 1 1 -0.0105815 -0.01043041 -0.01059041 1000 1000 1000 -0.0105815 -0.01043041 -0.01059041 1000 1000 1000 -0.009518228 -0.009605882 -0.009028917 -0.008896976 -0.009064031 1000 -0.009518228 -0.009605882 -0.009028917 -0.008896976 -0.009064031 1000
lala 10 1.2 1 second 1 1 229 4 4.12 0.639997720718384 -1 1 1 0 -0.01306032 -0.01325429 -0.01320193 -0.01300605 -0.01281967 1000 -0.01306032 -0.01325429 -0.01320193 -0.01300605 -0.01281967 1000 -0.01599719 -0.01504334 -0.01510742 -0.01532645 -0.01581133 1000 -0.01599719 -0.01504334 -0.01510742 -0.01532645 -0.01581133 1000
lala 11 2.4 0 second 1 1 230 4 1.72 0.919997453689575 -1 1 -1 0 -0.005238301 -0.005400548 -0.005095866 -0.004941243 -0.004429538 1000 -0.005238301 -0.005400548 -0.005095866 -0.004941243 -0.004429538 1000 -0.005440947 -0.005316282 -0.004758876 -0.00477214 -0.004668667 1000 -0.005440947 -0.005316282 -0.004758876 -0.00477214 -0.004668667 1000
lala 18 0.0375 0 first 11 1 231 6 3.667501 1.0999972820282 1 1 -1 1 -0.005388334 -0.005084651 -0.004947958 1000 1000 1000 -0.005388334 -0.005084651 -0.004947958 1000 1000 1000 -0.004157105 -0.004440048 -0.004542897 -0.003810396 -0.003200381 1000 -0.004157105 -0.004440048 -0.004542897 -0.003810396 -0.003200381 1000
lala 11 0.6 0 first 8 1 232 5 4.5 0.759997606277466 1 0 -1 0 -0.003529435 -0.002776746 -0.002348254 1000 1000 1000 -0.003529435 -0.002776746 -0.002348254 1000 1000 1000 -0.002924769 -0.003249121 -0.003420612 -0.003606978 -0.003362374 1000 -0.002924769 -0.003249121 -0.003420612 -0.003606978 -0.003362374 1000
lala 14 0.3 1 first 0 1 233 4 3.84 0.819997549057007 -1 0 1 1 -0.003710133 -0.003823605 -0.004145932 1000 1000 1000 -0.003710133 -0.003823605 -0.004145932 1000 1000 1000 -0.00638282 -0.007083653 -0.006621749 -0.006415009 -0.006943515 1000 -0.00638282 -0.007083653 -0.006621749 -0.006415009 -0.006943515 1000
lala 9 1.2 0 second 3 1 234 5 4.25 1.23999714851379 -1 1 -1 0 -0.03610589 -0.03690424 -0.0338977 -0.0298991 -0.02783457 1000 -0.03610589 -0.03690424 -0.0338977 -0.0298991 -0.02783457 1000 -0.02141766 -0.02678959 -0.02804224 -0.02778753 -0.02991261 1000 -0.02141766 -0.02678959 -0.02804224 -0.02778753 -0.02991261 1000
lala 24 0.01875 0 second 12 1 235 4 2.47125 0.539997816085815 0 0 -1 1 -0.01614496 -0.01668224 -0.01635266 -0.01643949 -0.01649326 1000 -0.01614496 -0.01668224 -0.01635266 -0.01643949 -0.01649326 1000 -0.01040762 -0.01083313 -0.01003573 -0.008850606 -0.008673282 1000 -0.01040762 -0.01083313 -0.01003573 -0.008850606 -0.008673282 1000
lala 14 0.15 0 second 9 1 236 5 4.05 0.519997835159302 1 1 -1 1 -0.01064519 -0.01162488 -0.01174789 -0.01151537 -0.01257141 1000 -0.01064519 -0.01162488 -0.01174789 -0.01151537 -0.01257141 1000 -0.01685949 -0.01662597 -0.01574462 -0.01603942 -0.01686738 1000 -0.01685949 -0.01662597 -0.01574462 -0.01603942 -0.01686738 1000
lala 17 0.075 1 first 13 1 237 4 3.745 0.719997644424438 0 1 1 0 -0.01241372 -0.01811183 -0.02407147 1000 1000 1000 -0.01241372 -0.01811183 -0.02407147 1000 1000 1000 -0.05769058 -0.05273363 -0.0451003 -0.04077413 -0.04470759 1000 -0.05769058 -0.05273363 -0.0451003 -0.04077413 -0.04470759 1000
lala 19 0.01875 1 first 11 1 238 6 3.686251 0.379997968673706 1 1 1 0 -0.01962156 -0.01897039 -0.01978709 1000 1000 1000 -0.01962156 -0.01897039 -0.01978709 1000 1000 1000 -0.05896975 -0.05606278 -0.05030772 -0.04412338 -0.04138996 1000 -0.05896975 -0.05606278 -0.05030772 -0.04412338 -0.04138996 1000
lala 5 1.2 1 second 15 1 239 5 4.25 0.39999794960022 0 1 1 0 0.00305981 -0.002045798 0.003544076 0.008048339 0.01189511 1000 0.00305981 -0.002045798 0.003544076 0.008048339 0.01189511 1000 0.001115449 0.002896235 0.004225416 0.007125712 0.008492998 1000 0.001115449 0.002896235 0.004225416 0.007125712 0.008492998 1000
lala 9 1.2 0 second 14 1 240 5 3.3 0.339998006820679 0 0 -1 0 -0.006029605 -0.007518931 -0.00813993 -0.006346729 -0.00720411 1000 -0.006029605 -0.007518931 -0.00813993 -0.006346729 -0.00720411 1000 -0.01683686 -0.01961768 -0.02092056 -0.01962067 -0.01901431 1000 -0.01683686 -0.01961768 -0.02092056 -0.01962067 -0.01901431 1000
lala 19 0.075 1 first 6 1 241 4 4.1775 1.03999733924866 1 0 1 1 -0.007662174 -0.007865599 -0.008400764 1000 1000 1000 -0.007662174 -0.007865599 -0.008400764 1000 1000 1000 -0.01491228 -0.01499736 -0.01454892 -0.01308832 -0.01350623 1000 -0.01491228 -0.01499736 -0.01454892 -0.01308832 -0.01350623 1000
lala 15 0.15 0 first 0 1 242 4 3.69 0.919997453689575 -1 0 -1 0 -0.01712014 -0.01517201 -0.01523525 1000 1000 1000 -0.01712014 -0.01517201 -0.01523525 1000 1000 1000 -0.01712592 -0.01783521 -0.0171441 -0.01652259 -0.01551114 1000 -0.01712592 -0.01783521 -0.0171441 -0.01652259 -0.01551114 1000
lala 5 1.2 0 first 16 1 243 6 3.96 0.799997568130493 0 0 -1 1 -0.01627108 -0.01579519 -0.01432195 1000 1000 1000 -0.01627108 -0.01579519 -0.01432195 1000 1000 1000 -0.01462763 -0.01525606 -0.01577277 -0.01571504 -0.01620647 1000 -0.01462763 -0.01525606 -0.01577277 -0.01571504 -0.01620647 1000
lala 6 1.2 1 first 16 1 244 6 5.16 0.499997854232788 0 0 1 1 -0.01770622 -0.01725284 -0.01750826 1000 1000 1000 -0.01770622 -0.01725284 -0.01750826 1000 1000 1000 -0.01755558 -0.01763082 -0.01760485 -0.01695168 -0.01697673 1000 -0.01755558 -0.01763082 -0.01760485 -0.01695168 -0.01697673 1000
lala 15 0.075 1 first 9 1 245 5 4.125 0.659997701644897 1 1 1 0 -0.01821467 -0.0172897 -0.01624051 1000 1000 1000 -0.01821467 -0.0172897 -0.01624051 1000 1000 1000 -0.01144789 -0.01143791 -0.0117566 -0.01177264 -0.01129924 1000 -0.01144789 -0.01143791 -0.0117566 -0.01177264 -0.01129924 1000
lala 17 0.075 0 second 10 1 246 6 4.26 0.879997491836548 1 0 -1 1 -0.004988042 -0.00435825 -0.003944035 -0.002895224 -0.002738003 1000 -0.004988042 -0.00435825 -0.003944035 -0.002895224 -0.002738003 1000 -0.002987073 -0.00210473 -0.002449831 -0.002635999 -0.003065082 1000 -0.002987073 -0.00210473 -0.002449831 -0.002635999 -0.003065082 1000
lala 12 1.2 0 second 1 1 247 4 2.92 0.679997682571411 -1 1 -1 0 -0.0009691776 -0.0008788547 -0.002150516 -0.00318941 -0.003070804 1000 -0.0009691776 -0.0008788547 -0.002150516 -0.00318941 -0.003070804 1000 -0.003588012 -0.003399629 -0.003594307 -0.003733998 -0.003786631 1000 -0.003588012 -0.003399629 -0.003594307 -0.003733998 -0.003786631 1000
lala 7 1.2 1 first 16 1 248 6 3.96 0.479997873306274 0 0 1 0 -0.003385847 -0.003082876 -0.00243139 1000 1000 1000 -0.003385847 -0.003082876 -0.00243139 1000 1000 1000 -0.003574435 -0.00345489 -0.003016216 -0.002997178 -0.002200637 1000 -0.003574435 -0.00345489 -0.003016216 -0.002997178 -0.002200637 1000
lala 10 1.2 0 first 14 1 249 5 4.5 0.519997835159302 0 0 -1 0 -0.001221882 -0.0005907316 -0.0005679864 1000 1000 1000 -0.001221882 -0.0005907316 -0.0005679864 1000 1000 1000 -0.000895516 -0.001174422 -0.00112214 -0.001187825 -0.0008281763 1000 -0.000895516 -0.001174422 -0.00112214 -0.001187825 -0.0008281763 1000
lala 15 0.15 0 second 5 1 250 6 4.230001 0.339998006820679 -1 1 -1 1 -0.006261451 -0.01290156 -0.01226551 -0.01016356 -0.00707141 1000 -0.006261451 -0.01290156 -0.01226551 -0.01016356 -0.00707141 1000 -0.01142722 -0.01079073 -0.01092176 -0.01419287 -0.01510968 1000 -0.01142722 -0.01079073 -0.01092176 -0.01419287 -0.01510968 1000
lala 13 1.2 1 first 1 1 251 4 4.12 1.21999716758728 -1 1 1 0 -0.009372479 -0.007938124 -0.005565946 1000 1000 1000 -0.009372479 -0.007938124 -0.005565946 1000 1000 1000 -0.004780711 -0.00432121 -0.004432097 -0.004776902 -0.005972496 1000 -0.004780711 -0.00432121 -0.004432097 -0.004776902 -0.005972496 1000
lala 18 0.0375 0 first 13 1 252 4 3.7075 0.379997968673706 0 1 -1 1 -0.005015178 -0.005354207 -0.004950197 1000 1000 1000 -0.005015178 -0.005354207 -0.004950197 1000 1000 1000 -0.00375485 -0.004051252 -0.004076409 -0.003700289 -0.00255178 1000 -0.00375485 -0.004051252 -0.004076409 -0.003700289 -0.00255178 1000
lala 16 0.075 0 second 0 1 253 4 3.765 0.379997968673706 -1 0 -1 1 -0.003610429 -0.003774586 -0.004577047 -0.004869947 -0.005582571 1000 -0.003610429 -0.003774586 -0.004577047 -0.004869947 -0.005582571 1000 -0.003625751 -0.004246142 -0.004631654 -0.004755488 -0.004468974 1000 -0.003625751 -0.004246142 -0.004631654 -0.004755488 -0.004468974 1000
lala 20 0.009375 1 second 11 1 254 6 3.676876 0.459997892379761 1 1 1 1 -0.002338088 -0.002981632 -0.003311678 -0.003054582 -0.00324286 1000 -0.002338088 -0.002981632 -0.003311678 -0.003054582 -0.00324286 1000 -0.004883661 -0.005734983 -0.006175621 -0.005891974 -0.005423727 1000 -0.004883661 -0.005734983 -0.006175621 -0.005891974 -0.005423727 1000
lala 25 0.01875 1 first 12 1 255 4 2.49 0.299998044967651 0 0 1 1 -0.004654989 -0.003922272 -0.003692831 1000 1000 1000 -0.004654989 -0.003922272 -0.003692831 1000 1000 1000 -0.005206427 -0.005608106 -0.005891202 -0.005472574 -0.004829885 1000 -0.005206427 -0.005608106 -0.005891202 -0.005472574 -0.004829885 1000
lala 16 0.6 1 second 4 1 256 6 4.98 0.419997930526733 -1 0 1 0 -0.004134364 -0.003456476 -0.002897236 -0.002788703 -0.003109379 1000 -0.004134364 -0.003456476 -0.002897236 -0.002788703 -0.003109379 1000 -0.004366854 -0.003704571 -0.003177163 -0.002856696 -0.003104064 1000 -0.004366854 -0.003704571 -0.003177163 -0.002856696 -0.003104064 1000
lala 16 0.0375 0 first 9 1 257 5 4.0875 0.01999831199646 1 1 -1 1 -0.003681861 -0.003395442 -0.002738525 1000 1000 1000 -0.003681861 -0.003395442 -0.002738525 1000 1000 1000 -0.001171571 -0.002345205 -0.002386528 -0.001876089 -0.002107597 1000 -0.001171571 -0.002345205 -0.002386528 -0.001876089 -0.002107597 1000
lala 14 0.15 1 first 17 1 258 6 4.830001 0.39999794960022 0 1 1 0 -0.003383115 -0.002749703 -0.002453899 1000 1000 1000 -0.003383115 -0.002749703 -0.002453899 1000 1000 1000 -0.001921895 -0.00217963 -0.002125032 -0.001464967 -0.001696 1000 -0.001921895 -0.00217963 -0.002125032 -0.001464967 -0.001696 1000
lala 16 0.075 1 second 5 1 259 6 4.305001 0.219998121261597 -1 1 1 1 -0.00185163 -0.001975555 -0.001815711 -0.00198391 -0.002189625 1000 -0.00185163 -0.001975555 -0.001815711 -0.00198391 -0.002189625 1000 -0.001480342 -0.001048557 -0.0007137564 -0.0008391794 -0.001079243 1000 -0.001480342 -0.001048557 -0.0007137564 -0.0008391794 -0.001079243 1000
lala 12 0.3 1 second 8 1 260 5 4.8 0.479997873306274 1 0 1 0 0.0002041328 -0.0007279652 -0.0007083476 -0.0004730189 -0.0003325009 1000 0.0002041328 -0.0007279652 -0.0007083476 -0.0004730189 -0.0003325009 1000 -0.0005765128 -0.001072116 -0.00158417 -0.001293077 -0.0006913462 1000 -0.0005765128 -0.001072116 -0.00158417 -0.001293077 -0.0006913462 1000
lala 11 2.4 1 first 14 1 261 5 6.9 0.359997987747192 0 0 1 0 0.001063697 0.001168218 0.001600626 1000 1000 1000 0.001063697 0.001168218 0.001600626 1000 1000 1000 0.0006059558 0.0001459741 -0.0004043598 -0.0002386854 9.660193E-05 1000 0.0006059558 0.0001459741 -0.0004043598 -0.0002386854 9.660193E-05 1000
lala 17 0.01875 0 first 9 1 262 5 4.10625 0.479997873306274 1 1 -1 1 0.0006190558 0.0009541791 0.0005726889 1000 1000 1000 0.0006190558 0.0009541791 0.0005726889 1000 1000 1000 3.873952E-06 0.0002804106 0.0001957433 3.764516E-05 -0.0005484049 1000 3.873952E-06 0.0002804106 0.0001957433 3.764516E-05 -0.0005484049 1000
lala 15 0.075 1 second 17 1 263 6 4.755001 0.179998159408569 0 1 1 0 -0.0001090112 0.0002279328 0.0004833308 0.0007917657 0.0006455764 1000 -0.0001090112 0.0002279328 0.0004833308 0.0007917657 0.0006455764 1000 -0.001348705 -0.001134098 -0.001017416 -0.00119203 -0.00134168 1000 -0.001348705 -0.001134098 -0.001017416 -0.00119203 -0.00134168 1000
lala 19 0.0375 1 second 2 1 264 5 4.0125 0.0599982738494873 -1 0 1 0 -1.47998E-05 -3.790298E-05 -0.000290434 -2.405987E-05 -0.0002546634 1000 -1.47998E-05 -3.790298E-05 -0.000290434 -2.405987E-05 -0.0002546634 1000 -0.002515351 -0.002833905 -0.0031826 -0.002860033 -0.002341188 1000 -0.002515351 -0.002833905 -0.0031826 -0.002860033 -0.002341188 1000
lala 14 0.6 0 first 1 1 265 4 3.52 0.319998025894165 -1 1 -1 0 -5.823516E-05 -0.001162854 -0.001414392 1000 1000 1000 -5.823516E-05 -0.001162854 -0.001414392 1000 1000 1000 -0.0007892998 -0.0003168434 -0.0007419009 -0.00143142 -0.001555646 1000 -0.0007892998 -0.0003168434 -0.0007419009 -0.00143142 -0.001555646 1000
lala 21 0.009375 0 second 11 1 266 6 3.667501 0.359997987747192 1 1 -1 0 -0.002495832 -0.003102881 -0.002905477 -0.001809059 -0.001200698 1000 -0.002495832 -0.003102881 -0.002905477 -0.001809059 -0.001200698 1000 -0.00130984 -0.002658127 -0.003432395 -0.003791344 -0.003626235 1000 -0.00130984 -0.002658127 -0.003432395 -0.003791344 -0.003626235 1000
lala 19 0.01875 0 second 13 1 267 4 3.72625 0.39999794960022 0 1 -1 0 -0.002950111 -0.001666953 -0.001241206 -0.002352393 -0.002733564 1000 -0.002950111 -0.001666953 -0.001241206 -0.002352393 -0.002733564 1000 -0.007924815 -0.007378292 -0.007058648 -0.0071087 -0.007164247 1000 -0.007924815 -0.007378292 -0.007058648 -0.0071087 -0.007164247 1000
lala 17 0.6 0 second 4 1 268 6 4.38 1.11999726295471 -1 0 -1 0 0.001590287 0.00203681 0.001147675 0.001161288 0.001989841 1000 0.001590287 0.00203681 0.001147675 0.001161288 0.001989841 1000 0.0008430267 -0.000102485 -0.001067868 -0.001728642 -0.002114516 1000 0.0008430267 -0.000102485 -0.001067868 -0.001728642 -0.002114516 1000
lala 20 0.15 1 first 6 1 269 4 4.0275 0.759997606277466 1 0 1 1 -0.001012017 -0.0009949277 -0.0002966251 1000 1000 1000 -0.001012017 -0.0009949277 -0.0002966251 1000 1000 1000 -0.0001430933 0.0004371648 0.0007569817 0.0003473983 0.0001982277 1000 -0.0001430933 0.0004371648 0.0007569817 0.0003473983 0.0001982277 1000
lala 18 0.01875 1 first 9 1 270 5 4.125 0.459997892379761 1 1 1 0 0.0007720108 0.001040097 0.001627084 1000 1000 1000 0.0007720108 0.001040097 0.001627084 1000 1000 1000 -0.02485683 -0.01993658 -0.01357319 -0.009247232 -0.007420956 1000 -0.02485683 -0.01993658 -0.01357319 -0.009247232 -0.007420956 1000
lala 10 1.2 1 first 3 1 271 5 5.45 0.159998178482056 -1 1 1 0 -0.007071053 -0.003078548 -0.003060593 1000 1000 1000 -0.007071053 -0.003078548 -0.003060593 1000 1000 1000 -0.03027936 -0.02405512 -0.01942835 -0.01715179 -0.01695657 1000 -0.03027936 -0.02405512 -0.01942835 -0.01715179 -0.01695657 1000
lala 17 0.075 0 second 0 1 272 4 3.84 0.379997968673706 -1 0 -1 0 -0.007690072 -0.008412229 -0.01130634 -0.01176437 -0.01058553 1000 -0.007690072 -0.008412229 -0.01130634 -0.01176437 -0.01058553 1000 -0.01667624 -0.01596639 -0.01407845 -0.01076337 -0.01501577 1000 -0.01667624 -0.01596639 -0.01407845 -0.01076337 -0.01501577 1000
lala 11 0.6 1 second 3 1 273 5 4.85 0.419997930526733 -1 1 1 1 -0.0112519 -0.01239047 -0.008899874 -0.007482369 -0.009153217 1000 -0.0112519 -0.01239047 -0.008899874 -0.007482369 -0.009153217 1000 -0.01399685 -0.01254178 -0.01116487 -0.0101898 -0.01060645 1000 -0.01399685 -0.01254178 -0.01116487 -0.0101898 -0.01060645 1000
lala 10 0.6 1 first 7 1 274 4 4.72 0.859997510910034 1 1 1 0 -0.0006543374 -1.063562E-05 -0.0005668933 1000 1000 1000 -0.0006543374 -1.063562E-05 -0.0005668933 1000 1000 1000 -0.003357785 -0.003585644 -0.003198459 -0.002539132 -0.002140869 1000 -0.003357785 -0.003585644 -0.003198459 -0.002539132 -0.002140869 1000
lala 18 0.3 1 first 4 1 275 6 4.68 0.319998025894165 -1 0 1 0 -0.002538291 -0.002930285 -0.002784065 1000 1000 1000 -0.002538291 -0.002930285 -0.002784065 1000 1000 1000 -0.00178461 -0.001676481 -0.001718554 -0.001431783 -0.001345975 1000 -0.00178461 -0.001676481 -0.001718554 -0.001431783 -0.001345975 1000
lala 12 1.2 0 second 14 1 276 5 5.7 0.519997835159302 0 0 -1 0 -0.0006226584 9.194989E-05 0.0003335827 -0.0002593372 -0.0004282528 1000 -0.0006226584 9.194989E-05 0.0003335827 -0.0002593372 -0.0004282528 1000 -0.000599461 -0.0004381324 -0.0003400941 -0.0001460863 -0.0005020033 1000 -0.000599461 -0.0004381324 -0.0003400941 -0.0001460863 -0.0005020033 1000
lala 16 0.075 1 second 17 1 277 6 4.680001 0.179998159408569 0 1 1 1 0.002112859 0.002518086 0.002214935 0.001283956 -0.0001405161 1000 0.002112859 0.002518086 0.002214935 0.001283956 -0.0001405161 1000 0.001092429 0.0009051349 0.001059977 0.0009719957 0.000523204 1000 0.001092429 0.0009051349 0.001059977 0.0009719957 0.000523204 1000
lala 13 0.6 1 second 14 1 278 5 6.3 0.139998197555542 0 0 1 0 -0.0004971755 -0.00101085 -0.001457 -0.001551082 -0.001667317 1000 -0.0004971755 -0.00101085 -0.001457 -0.001551082 -0.001667317 1000 -0.001364609 -0.00144403 -0.00144478 -0.001088438 -0.001105224 1000 -0.001364609 -0.00144403 -0.00144478 -0.001088438 -0.001105224 1000
lala 17 0.075 1 second 17 1 279 6 4.605001 0.559997797012329 0 1 1 1 -0.001472104 -0.001222017 -0.001098823 -0.0007800926 -0.0006919891 1000 -0.001472104 -0.001222017 -0.001098823 -0.0007800926 -0.0006919891 1000 -0.0005774262 -0.000128807 0.0002740264 0.0008635077 0.0009550287 1000 -0.0005774262 -0.000128807 0.0002740264 0.0008635077 0.0009550287 1000
lala 12 0.6 1 second 3 1 280 5 4.25 1.13999724388123 -1 1 1 1 -0.0004281943 0.0003811543 0.000987815 0.0002833696 0.0001218362 1000 -0.0004281943 0.0003811543 0.000987815 0.0002833696 0.0001218362 1000 -0.001391203 -0.001592263 -0.0007612068 -0.0007864126 -0.001268477 1000 -0.001391203 -0.001592263 -0.0007612068 -0.0007864126 -0.001268477 1000
lala 13 0.6 0 second 3 1 281 5 3.65 0.339998006820679 -1 1 -1 1 -0.002123412 -0.002593275 -0.001497529 -0.00152523 -0.002407832 1000 -0.002123412 -0.002593275 -0.001497529 -0.00152523 -0.002407832 1000 -0.004679591 -0.006173261 -0.00597631 -0.006285654 -0.007729939 1000 -0.004679591 -0.006173261 -0.00597631 -0.006285654 -0.007729939 1000
lala 20 0.01875 1 first 13 1 282 4 3.745 0.899997472763062 0 1 1 1 -0.006443513 -0.005535756 -0.003463876 1000 1000 1000 -0.006443513 -0.005535756 -0.003463876 1000 1000 1000 0.002389598 0.002267881 0.001111882 -0.001757278 -0.004612233 1000 0.002389598 0.002267881 0.001111882 -0.001757278 -0.004612233 1000
lala 21 0.009375 1 second 13 1 283 4 3.735625 0.359997987747192 0 1 1 0 -0.008874489 -0.008752766 -0.00742033 -0.007117496 -0.00722865 1000 -0.008874489 -0.008752766 -0.00742033 -0.007117496 -0.00722865 1000 -0.01266092 -0.01201914 -0.01187124 -0.01230039 -0.01231991 1000 -0.01266092 -0.01201914 -0.01187124 -0.01230039 -0.01231991 1000
lala 6 1.2 0 second 15 1 284 5 3.05 0.459997892379761 0 1 -1 1 -0.007000464 -0.008364482 -0.008014087 -0.008356 -0.00866568 1000 -0.007000464 -0.008364482 -0.008014087 -0.008356 -0.00866568 1000 -0.009946328 -0.00939065 -0.009951621 -0.01003598 -0.009594848 1000 -0.009946328 -0.00939065 -0.009951621 -0.01003598 -0.009594848 1000
lala 17 0.0375 1 second 5 1 285 6 4.267501 0.199998140335083 -1 1 1 0 -0.01021097 -0.009557002 -0.009865682 -0.009697032 -0.009675916 1000 -0.01021097 -0.009557002 -0.009865682 -0.009697032 -0.009675916 1000 -0.01227023 -0.01241949 -0.01210656 -0.01173182 -0.01186874 1000 -0.01227023 -0.01241949 -0.01210656 -0.01173182 -0.01186874 1000
lala 21 0.3 0 first 6 1 286 4 3.7275 0.61999773979187 1 0 -1 1 -0.01449766 -0.01297696 -0.01329549 1000 1000 1000 -0.01449766 -0.01297696 -0.01329549 1000 1000 1000 -0.0104426 -0.01049739 -0.01032353 -0.01086949 -0.01130036 1000 -0.0104426 -0.01049739 -0.01032353 -0.01086949 -0.01130036 1000
lala 15 0.3 0 first 1 1 287 4 3.82 0.579997777938843 -1 1 -1 1 -0.01249434 -0.01286804 -0.01269933 1000 1000 1000 -0.01249434 -0.01286804 -0.01269933 1000 1000 1000 -0.01515354 -0.01491332 -0.01565504 -0.01659385 -0.01716702 1000 -0.01515354 -0.01491332 -0.01565504 -0.01659385 -0.01716702 1000
lala 18 0.075 1 second 0 1 288 4 3.915 0.319998025894165 -1 0 1 1 -0.01501183 -0.01525229 -0.01549975 -0.01500024 -0.01488534 1000 -0.01501183 -0.01525229 -0.01549975 -0.01500024 -0.01488534 1000 -0.01256205 -0.01240127 -0.01198901 -0.01159763 -0.01189499 1000 -0.01256205 -0.01240127 -0.01198901 -0.01159763 -0.01189499 1000
lala 19 0.009375 1 second 9 1 289 5 4.115625 0.339998006820679 1 1 1 0 -0.006091291 -0.006229451 -0.006394572 -0.00653784 -0.00647416 1000 -0.006091291 -0.006229451 -0.006394572 -0.00653784 -0.00647416 1000 -0.006670792 -0.00712632 -0.006627417 -0.006118582 -0.006411928 1000 -0.006670792 -0.00712632 -0.006627417 -0.006118582 -0.006411928 1000
lala 22 0.0046875 0 second 11 1 290 6 3.672189 0.379997968673706 1 1 -1 1 -0.005429083 -0.004691462 -0.004305961 -0.004273654 -0.004851207 1000 -0.005429083 -0.004691462 -0.004305961 -0.004273654 -0.004851207 1000 -0.005285684 -0.004878311 -0.004460176 -0.004880593 -0.005620356 1000 -0.005285684 -0.004878311 -0.004460176 -0.004880593 -0.005620356 1000
lala 19 0.15 0 first 4 1 291 6 4.53 0.459997892379761 -1 0 -1 1 -0.004977712 -0.004119658 -0.003323135 1000 1000 1000 -0.004977712 -0.004119658 -0.003323135 1000 1000 1000 -0.004956211 -0.005114191 -0.005147652 -0.004822036 -0.004215522 1000 -0.004956211 -0.005114191 -0.005147652 -0.004822036 -0.004215522 1000
lala 18 0.0375 0 first 10 1 292 6 4.2975 0.879997491836548 1 0 -1 0 -0.005979784 -0.005312996 -0.005054651 1000 1000 1000 -0.005979784 -0.005312996 -0.005054651 1000 1000 1000 -0.004405431 -0.004895415 -0.00533728 -0.005784731 -0.006067174 1000 -0.004405431 -0.004895415 -0.00533728 -0.005784731 -0.006067174 1000
lala 18 0.0375 1 second 5 1 293 6 4.230001 0.359997987747192 -1 1 1 0 -0.005949194 -0.006331621 -0.007529868 -0.006957448 -0.006629997 1000 -0.005949194 -0.006331621 -0.007529868 -0.006957448 -0.006629997 1000 -0.007110169 -0.007021428 -0.006541857 -0.006158254 -0.006346613 1000 -0.007110169 -0.007021428 -0.006541857 -0.006158254 -0.006346613 1000
lala 19 0.0375 1 first 5 1 294 6 4.192502 0.419997930526733 -1 1 1 1 -0.01067798 -0.01071938 -0.01051954 1000 1000 1000 -0.01067798 -0.01071938 -0.01051954 1000 1000 1000 -0.01302268 -0.01315603 -0.01309778 -0.01330647 -0.01313314 1000 -0.01302268 -0.01315603 -0.01309778 -0.01330647 -0.01313314 1000
lala 23 0.0046875 0 second 11 1 295 6 3.676876 3.29999542236328 1 1 -1 0 0.001840349 0.002180943 0.001696756 0.0009076181 0.0004290483 1000 0.001840349 0.002180943 0.001696756 0.0009076181 0.0004290483 1000 0.0001694364 7.871103E-05 0.0001604819 -0.0001205232 -0.0001318569 1000 0.0001694364 7.871103E-05 0.0001604819 -0.0001205232 -0.0001318569 1000
lala 20 0.075 1 first 4 1 296 6 4.605 0.319998025894165 -1 0 1 1 0.0003603847 0.0008931553 0.002830727 1000 1000 1000 0.0003603847 0.0008931553 0.002830727 1000 1000 1000 0.00341668 0.003979642 0.002880905 0.002364424 0.002630204 1000 0.00341668 0.003979642 0.002880905 0.002364424 0.002630204 1000
lala 22 0.009375 1 first 13 1 297 4 3.72625 0.939997434616089 0 1 1 0 0.002231641 0.002070837 0.002667187 1000 1000 1000 0.002231641 0.002070837 0.002667187 1000 1000 1000 0.003871472 0.003921809 0.00356852 0.003448302 0.003355907 1000 0.003871472 0.003921809 0.00356852 0.003448302 0.003355907 1000
lala 20 0.01875 0 first 2 1 298 5 3.99375 0.519997835159302 -1 0 -1 0 0.003931475 0.003351869 0.003583917 1000 1000 1000 0.003931475 0.003351869 0.003583917 1000 1000 1000 -0.01615763 -0.02535965 -0.03241875 -0.03502193 -0.032381 1000 -0.01615763 -0.02535965 -0.03241875 -0.03502193 -0.032381 1000
lala 24 0.0046875 0 second 11 1 299 6 3.681564 0.499997854232788 1 1 -1 1 0.007322056 0.01559533 0.01576563 0.02136926 0.02754303 1000 0.007322056 0.01559533 0.01576563 0.02136926 0.02754303 1000 0.01104671 0.006523608 -0.0006285859 -0.009663147 -0.01810122 1000 0.01104671 0.006523608 -0.0006285859 -0.009663147 -0.01810122 1000
lala 18 0.15 1 second 17 1 300 6 4.455001 0.499997854232788 0 1 1 1 -0.01716235 -0.01614827 -0.01590491 -0.01635537 -0.0169877 1000 -0.01716235 -0.01614827 -0.01590491 -0.01635537 -0.0169877 1000 -0.01765834 -0.01700216 -0.01695905 -0.01741254 -0.01726729 1000 -0.01765834 -0.01700216 -0.01695905 -0.01741254 -0.01726729 1000
lala 19 0.3 0 second 17 1 301 6 4.155001 1.13999724388123 0 1 -1 1 0.008954613 0.01128083 0.009684823 0.0111931 0.008146191 1000 0.008954613 0.01128083 0.009684823 0.0111931 0.008146191 1000 0.01306003 0.01372702 0.01266128 0.01205863 0.01249295 1000 0.01306003 0.01372702 0.01266128 0.01205863 0.01249295 1000
lala 21 0.009375 0 second 2 1 302 5 4.003125 0.679997682571411 -1 0 -1 0 -0.01436941 -0.01494506 -0.01627336 -0.01679964 -0.01938575 1000 -0.01436941 -0.01494506 -0.01627336 -0.01679964 -0.01938575 1000 -0.02023451 -0.01808078 -0.0168703 -0.0158173 -0.01666311 1000 -0.02023451 -0.01808078 -0.0168703 -0.0158173 -0.01666311 1000
lala 14 0.3 0 first 3 1 303 5 3.95 0.659997701644897 -1 1 -1 0 -0.01548559 -0.01538539 -0.01561974 1000 1000 1000 -0.01548559 -0.01538539 -0.01561974 1000 1000 1000 -0.01126206 -0.01142196 -0.01190889 -0.01178168 -0.01120219 1000 -0.01126206 -0.01142196 -0.01190889 -0.01178168 -0.01120219 1000
lala 20 0.15 0 second 17 1 304 6 4.305001 0.259998083114624 0 1 -1 1 -0.0104483 -0.01056304 -0.01088654 -0.01052175 -0.01001423 1000 -0.0104483 -0.01056304 -0.01088654 -0.01052175 -0.01001423 1000 -0.01064087 -0.0108108 -0.01055302 -0.009570868 -0.009558107 1000 -0.01064087 -0.0108108 -0.01055302 -0.009570868 -0.009558107 1000
lala 19 0.0375 1 second 10 1 305 6 4.335 0.23999810218811 1 0 1 0 -0.006595068 -0.006751796 -0.007116937 -0.007686239 -0.007989746 1000 -0.006595068 -0.006751796 -0.007116937 -0.007686239 -0.007989746 1000 -0.00776505 -0.007792047 -0.007615827 -0.007492898 -0.007052781 1000 -0.00776505 -0.007792047 -0.007615827 -0.007492898 -0.007052781 1000
lala 26 0.009375 0 first 12 1 306 4 2.480625 0.119998216629028 0 0 -1 1 -0.005322801 -0.00549219 -0.00533188 1000 1000 1000 -0.005322801 -0.00549219 -0.00533188 1000 1000 1000 -0.005793312 -0.006188074 -0.006639018 -0.006418552 -0.006005835 1000 -0.005793312 -0.006188074 -0.006639018 -0.006418552 -0.006005835 1000
lala 20 0.01875 1 second 10 1 307 6 4.31625 0.519997835159302 1 0 1 0 -0.005531745 -0.00572514 -0.005849975 -0.005471481 -0.005128533 1000 -0.005531745 -0.00572514 -0.005849975 -0.005471481 -0.005128533 1000 -0.006316303 -0.005921142 -0.005762047 -0.005487129 -0.00561194 1000 -0.006316303 -0.005921142 -0.005762047 -0.005487129 -0.00561194 1000
lala 7 1.2 1 second 15 1 308 5 4.25 0.199998140335083 0 1 1 1 -0.007028708 -0.00697052 -0.006627347 -0.006243088 -0.005675811 1000 -0.007028708 -0.00697052 -0.006627347 -0.006243088 -0.005675811 1000 -0.005643964 -0.005767813 -0.005506639 -0.005588096 -0.005289231 1000 -0.005643964 -0.005767813 -0.005506639 -0.005588096 -0.005289231 1000
lala 21 0.15 0 first 17 1 309 6 4.455001 0.419997930526733 0 1 -1 1 -0.005304114 -0.005640394 -0.006333514 1000 1000 1000 -0.005304114 -0.005640394 -0.006333514 1000 1000 1000 -0.007169904 -0.007803617 -0.007528042 -0.007511886 -0.008384836 1000 -0.007169904 -0.007803617 -0.007528042 -0.007511886 -0.008384836 1000
lala 14 0.3 1 first 14 1 310 5 6 0.419997930526733 0 0 1 1 -0.008359976 -0.006915015 -0.00700994 1000 1000 1000 -0.008359976 -0.006915015 -0.00700994 1000 1000 1000 -0.01515923 -0.01158869 -0.009548891 -0.01016941 -0.01477871 1000 -0.01515923 -0.01158869 -0.009548891 -0.01016941 -0.01477871 1000
lala 8 1.2 0 first 15 1 311 5 3.05 0.479997873306274 0 1 -1 1 -0.02160043 -0.01953843 -0.01608584 1000 1000 1000 -0.02160043 -0.01953843 -0.01608584 1000 1000 1000 -0.01628822 -0.0168447 -0.0162216 -0.01591664 -0.01589603 1000 -0.01628822 -0.0168447 -0.0162216 -0.01591664 -0.01589603 1000
lala 25 0.009375 1 first 11 1 312 6 3.690939 0.439997911453247 1 1 1 0 -0.01660465 -0.0171419 -0.01651957 1000 1000 1000 -0.01660465 -0.0171419 -0.01651957 1000 1000 1000 -0.01644999 -0.01625873 -0.01643131 -0.0160704 -0.01617132 1000 -0.01644999 -0.01625873 -0.01643131 -0.0160704 -0.01617132 1000
lala 22 0.009375 1 second 2 1 313 5 4.0125 0.519997835159302 -1 0 1 1 -0.0147531 -0.01511815 -0.01507559 -0.0150886 -0.01535123 1000 -0.0147531 -0.01511815 -0.01507559 -0.0150886 -0.01535123 1000 -0.01373953 -0.01394968 -0.01366707 -0.01396103 -0.01355102 1000 -0.01373953 -0.01394968 -0.01366707 -0.01396103 -0.01355102 1000
lala 9 1.2 1 second 15 1 314 5 4.25 0.39999794960022 0 1 1 0 -0.01019412 -0.01030073 -0.01011577 -0.01009218 -0.01026338 1000 -0.01019412 -0.01030073 -0.01011577 -0.01009218 -0.01026338 1000 -0.01089784 -0.01027033 -0.01005812 -0.009443074 -0.009259512 1000 -0.01089784 -0.01027033 -0.01005812 -0.009443074 -0.009259512 1000
