subject PestNr Step_Size_OnTrial Pest_Faster Pest_Interval Condition block trial velH velH_Pest Reaction_Time velH_Subject Start_Above Response_MotionEstimation RightOrLeftxRotations_first0 xRotations_first1 xRotations_first2 xRotations_first3 xRotations_first4 xRotations_first5 yRotations_first0 yRotations_first1 yRotations_first2 yRotations_first3 yRotations_first4 yRotations_first5 xRotations_second0 xRotations_second1 xRotations_second2 xRotations_second3 xRotations_second4 xRotations_second5 yRotations_second0 yRotations_second1 yRotations_second2 yRotations_second3 yRotations_second4 yRotations_second5
lala 1 1.2 1 first 17 1 1 6 7.98 0.519997835159302 0 1 1 1 -0.005190942 -0.001340901 -0.002763028 -0.002726066 0.000596696 0.007487655 -0.005190942 -0.001340901 -0.002763028 -0.002726066 0.000596696 0.007487655 0.003099492 0.002603223 0.002511696 0.00281314 0.002544156 1000 0.003099492 0.002603223 0.002511696 0.00281314 0.002544156 1000
lala 1 1.2 1 first 10 1 2 6 3.96 1.59999680519104 1 0 1 0 0.0004709672 6.958497E-05 0.000401647 1000 1000 1000 0.0004709672 6.958497E-05 0.000401647 1000 1000 1000 9.210037E-05 0.0002603079 -3.220067E-05 -0.0004258861 -0.0007936107 1000 9.210037E-05 0.0002603079 -3.220067E-05 -0.0004258861 -0.0007936107 1000
lala 1 1.2 0 first 12 1 3 4 2.64 0.579997777938843 0 0 -1 1 -0.003032384 -0.002689527 -0.002598461 1000 1000 1000 -0.003032384 -0.002689527 -0.002598461 1000 1000 1000 -0.002826911 -0.003019628 -0.003186948 -0.003242264 -0.003193727 1000 -0.002826911 -0.003019628 -0.003186948 -0.003242264 -0.003193727 1000
lala 1 1.2 0 second 2 1 4 5 3.3 0.919997453689575 -1 0 -1 0 -0.004722425 -0.004027109 -0.004080589 -0.00408484 -0.00426107 1000 -0.004722425 -0.004027109 -0.004080589 -0.00408484 -0.00426107 1000 -0.004047016 -0.00378084 -0.003842649 -0.004032318 -0.004074164 1000 -0.004047016 -0.00378084 -0.003842649 -0.004032318 -0.004074164 1000
lala 1 1.2 1 first 3 1 5 5 6.65 0.859997510910034 -1 1 1 1 -0.006184773 -0.006139343 -0.006025454 1000 1000 1000 -0.006184773 -0.006139343 -0.006025454 1000 1000 1000 -0.004684654 -0.004949329 -0.004725331 -0.004638076 -0.004781856 1000 -0.004684654 -0.004949329 -0.004725331 -0.004638076 -0.004781856 1000
lala 1 1.2 1 first 14 1 6 5 3.3 0.679997682571411 0 0 1 0 -0.006832235 -0.006777979 -0.006927745 1000 1000 1000 -0.006832235 -0.006777979 -0.006927745 1000 1000 1000 -0.006758132 -0.006580364 -0.006223791 -0.006078438 -0.006658179 1000 -0.006758132 -0.006580364 -0.006223791 -0.006078438 -0.006658179 1000
lala 2 1.2 1 second 17 1 7 6 6.780001 0.739997625350952 0 1 1 1 -0.006697532 -0.006456809 -0.006955565 -0.006745845 -0.006644661 1000 -0.006697532 -0.006456809 -0.006955565 -0.006745845 -0.006644661 1000 -0.006724259 -0.006936697 -0.007212506 -0.007405321 -0.008023708 1000 -0.006724259 -0.006936697 -0.007212506 -0.007405321 -0.008023708 1000
lala 1 1.2 1 first 13 1 8 4 5.32 1.01999735832214 0 1 1 1 -0.008591182 -0.007797048 -0.008483917 1000 1000 1000 -0.008591182 -0.007797048 -0.008483917 1000 1000 1000 -0.01121534 -0.01118492 -0.01069352 -0.0100046 -0.009449201 1000 -0.01121534 -0.01118492 -0.01069352 -0.0100046 -0.009449201 1000
lala 1 1.2 0 second 8 1 9 5 3.3 0.779997587203979 1 0 -1 1 -0.005411243 -0.005542559 -0.005431928 -0.005360135 -0.005924494 1000 -0.005411243 -0.005542559 -0.005431928 -0.005360135 -0.005924494 1000 -0.006631325 -0.005985319 -0.006412283 -0.006204402 -0.007690581 1000 -0.006631325 -0.005985319 -0.006412283 -0.006204402 -0.007690581 1000
lala 2 1.2 0 first 2 1 10 5 4.5 0.679997682571411 -1 0 -1 1 -0.008050103 -0.007079083 -0.006419738 1000 1000 1000 -0.008050103 -0.007079083 -0.006419738 1000 1000 1000 -0.003301317 -0.003081355 -0.002936543 -0.002969532 -0.003272849 1000 -0.003301317 -0.003081355 -0.002936543 -0.002969532 -0.003272849 1000
lala 1 1.2 1 first 7 1 11 4 5.32 0.39999794960022 1 1 1 0 -0.005633789 -0.005030633 -0.00458231 1000 1000 1000 -0.005633789 -0.005030633 -0.00458231 1000 1000 1000 -0.004174761 -0.004226483 -0.003734411 -0.003879318 -0.003630628 1000 -0.004174761 -0.004226483 -0.003734411 -0.003879318 -0.003630628 1000
lala 1 1.2 1 first 11 1 12 6 7.98 0.459997892379761 1 1 1 1 -0.003339855 -0.003521986 -0.00365634 1000 1000 1000 -0.003339855 -0.003521986 -0.00365634 1000 1000 1000 -0.004710494 -0.004946527 -0.004741632 -0.00438642 -0.004250168 1000 -0.004710494 -0.004946527 -0.004741632 -0.00438642 -0.004250168 1000
lala 2 1.2 1 first 13 1 13 4 4.12 0.799997568130493 0 1 1 0 -0.003025399 -0.003354281 -0.003857013 1000 1000 1000 -0.003025399 -0.003354281 -0.003857013 1000 1000 1000 -0.002817369 -0.002798101 -0.00287282 -0.003266087 -0.003301155 1000 -0.002817369 -0.002798101 -0.00287282 -0.003266087 -0.003301155 1000
lala 1 1.2 1 first 16 1 14 6 3.96 0.659997701644897 0 0 1 0 -0.002779661 -0.003134806 -0.003432604 1000 1000 1000 -0.002779661 -0.003134806 -0.003432604 1000 1000 1000 -0.0006764009 -0.001484133 -0.002318795 -0.002685126 -0.002647737 1000 -0.0006764009 -0.001484133 -0.002318795 -0.002685126 -0.002647737 1000
lala 1 1.2 0 second 0 1 15 4 2.64 0.539997816085815 -1 0 -1 0 -0.002605982 -0.002208334 -0.002306706 -0.00242482 -0.002202707 1000 -0.002605982 -0.002208334 -0.002306706 -0.00242482 -0.002202707 1000 -0.0005628545 -0.0005543277 -0.0007512036 -0.00112293 -0.001180912 1000 -0.0005628545 -0.0005543277 -0.0007512036 -0.00112293 -0.001180912 1000
lala 1 1.2 0 first 4 1 16 6 3.96 0.839997529983521 -1 0 -1 0 -0.00115851 -0.001054912 -0.001237585 1000 1000 1000 -0.00115851 -0.001054912 -0.001237585 1000 1000 1000 -0.002931426 -0.004192188 -0.004789836 -0.004000313 -0.003136699 1000 -0.002931426 -0.004192188 -0.004789836 -0.004000313 -0.003136699 1000
lala 1 1.2 0 second 6 1 17 4 2.64 0.519997835159302 1 0 -1 1 0.000730157 0.0001123115 2.799903E-05 9.028273E-05 0.0009404397 1000 0.000730157 0.0001123115 2.799903E-05 9.028273E-05 0.0009404397 1000 0.003218289 0.003153751 0.003072456 0.003130438 0.003301134 1000 0.003218289 0.003153751 0.003072456 0.003130438 0.003301134 1000
lala 2 1.2 1 first 12 1 18 4 3.84 0.879997491836548 0 0 1 0 0.004306707 0.004064683 0.003987945 1000 1000 1000 0.004306707 0.004064683 0.003987945 1000 1000 1000 0.00549088 0.004911979 0.00424501 0.004105188 0.004096162 1000 0.00549088 0.004911979 0.00424501 0.004105188 0.004096162 1000
lala 2 1.2 0 first 0 1 19 4 3.84 0.919997453689575 -1 0 -1 0 0.006644712 0.006543133 0.006323135 1000 1000 1000 0.006644712 0.006543133 0.006323135 1000 1000 1000 0.005957877 0.005806503 0.005775837 0.005694576 0.005315314 1000 0.005957877 0.005806503 0.005775837 0.005694576 0.005315314 1000
lala 2 1.2 1 first 8 1 20 5 4.5 0.819997549057007 1 0 1 1 0.007459183 0.007392589 0.007341038 1000 1000 1000 0.007459183 0.007392589 0.007341038 1000 1000 1000 0.008613604 0.008765893 0.008969261 0.00903572 0.008829806 1000 0.008613604 0.008765893 0.008969261 0.00903572 0.008829806 1000
lala 2 1.2 1 second 14 1 21 5 2.1 0.899997472763062 0 0 1 1 0.008819235 0.00910317 0.00931925 0.009419096 0.009543462 1000 0.008819235 0.00910317 0.00931925 0.009419096 0.009543462 1000 0.009920504 0.01003918 0.009929169 0.01003356 0.01010199 1000 0.009920504 0.01003918 0.009929169 0.01003356 0.01010199 1000
lala 3 1.2 1 first 2 1 22 5 5.7 1.07999730110168 -1 0 1 0 0.01067637 0.01094573 0.01043826 1000 1000 1000 0.01067637 0.01094573 0.01043826 1000 1000 1000 0.01056158 0.01062272 0.010848 0.01066935 0.01077928 1000 0.01056158 0.01062272 0.010848 0.01066935 0.01077928 1000
lala 3 1.2 1 first 8 1 23 5 3.3 1.5399968624115 1 0 1 0 0.01166246 0.01198869 0.01135121 1000 1000 1000 0.01166246 0.01198869 0.01135121 1000 1000 1000 0.01089689 0.01108457 0.01147896 0.01139543 0.01176227 1000 0.01089689 0.01108457 0.01147896 0.01139543 0.01176227 1000
lala 1 1.2 1 second 9 1 24 5 6.65 0.659997701644897 1 1 1 1 0.01117878 0.01185196 0.01194207 0.01185017 0.01131966 1000 0.01117878 0.01185196 0.01194207 0.01185017 0.01131966 1000 0.01134999 0.01154787 0.01165575 0.01149842 0.01149301 1000 0.01134999 0.01154787 0.01165575 0.01149842 0.01149301 1000
lala 3 1.2 1 second 17 1 25 6 5.580001 0.639997720718384 0 1 1 1 0.01187494 0.01225904 0.01274009 0.01255032 0.01209092 1000 0.01187494 0.01225904 0.01274009 0.01255032 0.01209092 1000 0.01078714 0.01130128 0.01147009 0.01158863 0.01155953 1000 0.01078714 0.01130128 0.01147009 0.01158863 0.01155953 1000
lala 4 1.2 0 second 2 1 26 5 4.5 0.599997758865356 -1 0 -1 1 0.01217598 0.01256099 0.01263232 0.01270818 0.01253256 1000 0.01217598 0.01256099 0.01263232 0.01270818 0.01253256 1000 0.01214688 0.01222533 0.01211166 0.01193586 0.01140469 1000 0.01214688 0.01222533 0.01211166 0.01193586 0.01140469 1000
lala 3 1.2 0 second 14 1 27 5 1.65 0.699997663497925 0 0 -1 1 0.01210448 0.01216103 0.01217364 0.01214361 0.01214634 1000 0.01210448 0.01216103 0.01217364 0.01214361 0.01214634 1000 0.01228089 0.01280439 0.01308803 0.012795 0.01251228 1000 0.01228089 0.01280439 0.01308803 0.012795 0.01251228 1000
lala 2 1.2 0 second 6 1 28 4 3.84 1.45999693870544 1 0 -1 1 0.01142961 0.01150867 0.01173163 0.01171099 0.01169437 1000 0.01142961 0.01150867 0.01173163 0.01171099 0.01169437 1000 0.01238281 0.01272813 0.01288259 0.01290321 0.01298888 1000 0.01238281 0.01272813 0.01288259 0.01290321 0.01298888 1000
lala 4 1.2 0 second 17 1 29 6 4.380001 0.639997720718384 0 1 -1 0 0.01146957 0.01166262 0.01181937 0.01195705 0.01209629 1000 0.01146957 0.01166262 0.01181937 0.01195705 0.01209629 1000 0.01272324 0.01232641 0.01251017 0.01262336 0.01247311 1000 0.01272324 0.01232641 0.01251017 0.01262336 0.01247311 1000
lala 2 1.2 1 first 11 1 30 6 6.780001 0.539997816085815 1 1 1 1 0.01174808 0.01132951 0.01077666 1000 1000 1000 0.01174808 0.01132951 0.01077666 1000 1000 1000 0.01214156 0.01210836 0.01242342 0.01208561 0.01213999 1000 0.01214156 0.01210836 0.01242342 0.01208561 0.01213999 1000
lala 4 1.2 0 first 8 1 31 5 2.1 1.51999688148499 1 0 -1 0 0.01247033 0.01220639 0.01247592 1000 1000 1000 0.01247033 0.01220639 0.01247592 1000 1000 1000 0.01223249 0.01224334 0.01256014 0.01271036 0.01279518 1000 0.01223249 0.01224334 0.01256014 0.01271036 0.01279518 1000
lala 1 1.2 1 second 15 1 32 5 6.65 0.599997758865356 0 1 1 0 0.01356474 0.01345451 0.01324229 0.01337143 0.0134251 1000 0.01356474 0.01345451 0.01324229 0.01337143 0.0134251 1000 0.01351719 0.01378347 0.01398791 0.01368026 0.01329647 1000 0.01351719 0.01378347 0.01398791 0.01368026 0.01329647 1000
lala 2 1.2 0 second 10 1 33 6 2.76 0.639997720718384 1 0 -1 0 0.01390182 0.01410063 0.01384822 0.01403039 0.01403929 1000 0.01390182 0.01410063 0.01384822 0.01403039 0.01403929 1000 0.01392857 0.01407348 0.01428574 0.01428544 0.01401979 1000 0.01392857 0.01407348 0.01428574 0.01428544 0.01401979 1000
lala 3 1.2 1 first 0 1 34 4 5.04 0.579997777938843 -1 0 1 1 0.01355732 0.01351903 0.01337888 1000 1000 1000 0.01355732 0.01351903 0.01337888 1000 1000 1000 0.01358037 0.01327415 0.01340151 0.01377888 0.01371705 1000 0.01358037 0.01327415 0.01340151 0.01377888 0.01371705 1000
lala 3 1.2 1 second 11 1 35 6 5.580001 0.61999773979187 1 1 1 1 0.01229175 0.01267799 0.01304588 0.01299467 0.0130168 1000 0.01229175 0.01267799 0.01304588 0.01299467 0.0130168 1000 0.0139062 0.01370318 0.01389778 0.01384667 0.01352781 1000 0.0139062 0.01370318 0.01389778 0.01384667 0.01352781 1000
lala 2 1.2 1 first 15 1 36 5 5.45 0.559997797012329 0 1 1 0 0.01364933 0.01282138 0.01149032 1000 1000 1000 0.01364933 0.01282138 0.01149032 1000 1000 1000 0.01389904 0.0140051 0.01400898 0.01403353 0.01412293 1000 0.01389904 0.0140051 0.01400898 0.01403353 0.01412293 1000
lala 3 1.2 0 second 15 1 37 5 4.25 0.639997720718384 0 1 -1 1 0.0150626 0.01575848 0.01591832 0.01519526 0.01431984 1000 0.0150626 0.01575848 0.01591832 0.01519526 0.01431984 1000 0.012752 0.01239926 0.01209781 0.01218566 0.01181124 1000 0.012752 0.01239926 0.01209781 0.01218566 0.01181124 1000
lala 4 1.2 1 second 11 1 38 6 4.380001 0.779997587203979 1 1 1 1 0.004528127 0.005552594 0.00623229 0.006379241 0.006385481 1000 0.004528127 0.005552594 0.00623229 0.006379241 0.006385481 1000 0.007713664 0.00791877 0.007876585 0.007811422 0.007236348 1000 0.007713664 0.00791877 0.007876585 0.007811422 0.007236348 1000
lala 5 1.2 1 second 17 1 39 6 5.580001 0.679997682571411 0 1 1 1 0.007310192 0.007432885 0.00769684 0.007553045 0.007252658 1000 0.007310192 0.007432885 0.00769684 0.007553045 0.007252658 1000 0.008379805 0.008485297 0.008601426 0.00859036 0.008829894 1000 0.008379805 0.008485297 0.008601426 0.00859036 0.008829894 1000
lala 2 1.2 1 second 3 1 40 5 5.45 0.61999773979187 -1 1 1 1 0.008274345 0.008379891 0.007848488 0.007823434 0.008202004 1000 0.008274345 0.008379891 0.007848488 0.007823434 0.008202004 1000 0.008665588 0.008612916 0.008753318 0.00887659 0.008952137 1000 0.008665588 0.008612916 0.008753318 0.00887659 0.008952137 1000
lala 6 1.2 0 second 17 1 41 6 4.380001 0.759997606277466 0 1 -1 1 0.009141061 0.008888981 0.009035261 0.009375098 0.009035641 1000 0.009141061 0.008888981 0.009035261 0.009375098 0.009035641 1000 0.008363081 0.008411542 0.008417887 0.008356345 0.00843223 1000 0.008363081 0.008411542 0.008417887 0.008356345 0.00843223 1000
lala 4 1.2 1 first 15 1 42 5 5.45 0.319998025894165 0 1 1 1 0.009858383 0.009887789 0.009642301 1000 1000 1000 0.009858383 0.009887789 0.009642301 1000 1000 1000 0.008756533 0.008994116 0.008921445 0.008354814 0.00802158 1000 0.008756533 0.008994116 0.008921445 0.008354814 0.00802158 1000
lala 4 1.2 0 first 0 1 43 4 3.84 0.559997797012329 -1 0 -1 1 0.008577242 0.008722411 0.008818356 1000 1000 1000 0.008577242 0.008722411 0.008818356 1000 1000 1000 0.009089362 0.009261314 0.009336612 0.009446223 0.009596101 1000 0.009089362 0.009261314 0.009336612 0.009446223 0.009596101 1000
lala 7 1.2 1 first 17 1 44 6 5.580001 1.03999733924866 0 1 1 0 0.008310271 0.008679823 0.00819478 1000 1000 1000 0.008310271 0.008679823 0.00819478 1000 1000 1000 0.009542285 0.009505747 0.0093353 0.009362707 0.009260612 1000 0.009542285 0.009505747 0.0093353 0.009362707 0.009260612 1000
lala 5 1.2 0 second 8 1 45 5 3.3 0.759997606277466 1 0 -1 1 0.008814286 0.00947341 0.00982381 0.009673649 0.009555865 1000 0.008814286 0.00947341 0.00982381 0.009673649 0.009555865 1000 0.01002209 0.01038624 0.01032201 0.01015724 0.009903137 1000 0.01002209 0.01038624 0.01032201 0.01015724 0.009903137 1000
lala 5 1.2 1 first 11 1 46 6 3.180001 0.639997720718384 1 1 1 0 -0.00495869 -0.002513599 -0.005156314 1000 1000 1000 -0.00495869 -0.002513599 -0.005156314 1000 1000 1000 0.0115251 0.01189747 0.01169247 0.0119154 0.01210159 1000 0.0115251 0.01189747 0.01169247 0.0119154 0.01210159 1000
lala 4 1.2 0 second 14 1 47 5 2.85 0.599997758865356 0 0 -1 0 0.01236965 0.01252786 0.01297794 0.01306 0.01294902 1000 0.01236965 0.01252786 0.01297794 0.01306 0.01294902 1000 0.01275602 0.01278822 0.01286687 0.01317632 0.01355951 1000 0.01275602 0.01278822 0.01286687 0.01317632 0.01355951 1000
lala 2 1.2 0 first 4 1 48 6 5.16 0.659997701644897 -1 0 -1 0 0.01442719 0.01438392 0.01446661 1000 1000 1000 0.01442719 0.01438392 0.01446661 1000 1000 1000 0.01250516 0.0121751 0.01233129 0.01240337 0.01250494 1000 0.01250516 0.0121751 0.01233129 0.01240337 0.01250494 1000
lala 3 1.2 1 first 12 1 49 4 2.64 0.799997568130493 0 0 1 0 0.01375827 0.01347078 0.0132912 1000 1000 1000 0.01375827 0.01347078 0.0132912 1000 1000 1000 0.01388261 0.01335942 0.01321107 0.01324944 0.01344632 1000 0.01388261 0.01335942 0.01321107 0.01324944 0.01344632 1000
lala 8 1.2 1 second 17 1 50 6 4.380001 0.61999773979187 0 1 1 1 0.01922208 0.01846138 0.0155735 0.01227363 0.009353234 1000 0.01922208 0.01846138 0.0155735 0.01227363 0.009353234 1000 0.01523863 0.01500758 0.01519233 0.01609696 0.01697432 1000 0.01523863 0.01500758 0.01519233 0.01609696 0.01697432 1000
lala 1 1.2 1 second 1 1 51 4 5.32 0.759997606277466 -1 1 1 1 0.01851862 0.01854718 0.01897568 0.01889178 0.01831676 1000 0.01851862 0.01854718 0.01897568 0.01889178 0.01831676 1000 0.01850887 0.01868911 0.0186903 0.01877454 0.01888664 1000 0.01850887 0.01868911 0.0186903 0.01877454 0.01888664 1000
lala 2 1.2 0 second 1 1 52 4 4.12 0.579997777938843 -1 1 -1 0 0.01547899 0.01631127 0.01683183 0.0177775 0.01848997 1000 0.01547899 0.01631127 0.01683183 0.0177775 0.01848997 1000 0.01813985 0.01831253 0.01839891 0.01851671 0.01874854 1000 0.01813985 0.01831253 0.01839891 0.01851671 0.01874854 1000
lala 5 1.2 1 second 2 1 53 5 5.7 0.539997816085815 -1 0 1 1 0.01946305 0.019471 0.01946571 0.01972781 0.01986629 1000 0.01946305 0.019471 0.01946571 0.01972781 0.01986629 1000 0.02013611 0.02022973 0.01978776 0.01956965 0.01977661 1000 0.02013611 0.02022973 0.01978776 0.01956965 0.01977661 1000
lala 6 1.2 1 first 8 1 54 5 4.5 0.559997797012329 1 0 1 0 0.02021287 0.02029902 0.02014272 1000 1000 1000 0.02021287 0.02029902 0.02014272 1000 1000 1000 0.02054201 0.02083502 0.02079022 0.02098517 0.02110617 1000 0.02054201 0.02083502 0.02079022 0.02098517 0.02110617 1000
lala 5 1.2 0 first 0 1 55 4 5.04 0.699997663497925 -1 0 -1 0 0.02113842 0.02116383 0.02084937 1000 1000 1000 0.02113842 0.02116383 0.02084937 1000 1000 1000 0.02099293 0.02109531 0.02120463 0.02132552 0.0213422 1000 0.02099293 0.02109531 0.02120463 0.02132552 0.0213422 1000
lala 4 1.2 1 first 12 1 56 4 1.44 0.699997663497925 0 0 1 1 0.02094867 0.02112551 0.02130446 1000 1000 1000 0.02094867 0.02112551 0.02130446 1000 1000 1000 0.02037879 0.02007628 0.02011373 0.02035786 0.02050461 1000 0.02037879 0.02007628 0.02011373 0.02035786 0.02050461 1000
lala 3 1.2 1 first 13 1 57 4 2.92 0.959997415542603 0 1 1 0 0.02115165 0.02127945 0.02074343 1000 1000 1000 0.02115165 0.02127945 0.02074343 1000 1000 1000 0.02113476 0.02091066 0.02087525 0.02122404 0.02113556 1000 0.02113476 0.02091066 0.02087525 0.02122404 0.02113556 1000
lala 6 1.2 0 second 11 1 58 6 1.980001 0.719997644424438 1 1 -1 1 0.02104275 0.0210881 0.0213207 0.02145766 0.02128947 1000 0.02104275 0.0210881 0.0213207 0.02145766 0.02128947 1000 0.02190283 0.02219655 0.02192117 0.02160294 0.02135335 1000 0.02190283 0.02219655 0.02192117 0.02160294 0.02135335 1000
lala 3 1.2 0 first 1 1 59 4 5.32 0.459997892379761 -1 1 -1 0 0.02004155 0.0204009 0.02076626 1000 1000 1000 0.02004155 0.0204009 0.02076626 1000 1000 1000 0.02170656 0.02197595 0.02208773 0.02182451 0.02185252 1000 0.02170656 0.02197595 0.02208773 0.02182451 0.02185252 1000
lala 4 1.2 1 first 1 1 60 4 6.52 0.839997529983521 -1 1 1 0 0.02163971 0.0210608 0.02098835 1000 1000 1000 0.02163971 0.0210608 0.02098835 1000 1000 1000 0.01778128 0.02019245 0.02367618 0.02267867 0.02054855 1000 0.01778128 0.02019245 0.02367618 0.02267867 0.02054855 1000
lala 9 1.2 1 first 17 1 61 6 3.180001 0.819997549057007 0 1 1 0 0.01780408 0.01084237 0.009508677 1000 1000 1000 0.01780408 0.01084237 0.009508677 1000 1000 1000 0.01283261 0.01281215 0.01249579 0.01246503 0.01256745 1000 0.01283261 0.01281215 0.01249579 0.01246503 0.01256745 1000
lala 6 1.2 1 second 2 1 62 5 4.5 0.739997625350952 -1 0 1 0 0.01351468 0.01352984 0.01345262 0.01364587 0.01372402 1000 0.01351468 0.01352984 0.01345262 0.01364587 0.01372402 1000 0.01356238 0.01337254 0.01323819 0.01335384 0.01349027 1000 0.01356238 0.01337254 0.01323819 0.01335384 0.01349027 1000
lala 5 1.2 1 second 15 1 63 5 4.25 0.659997701644897 0 1 1 0 0.01317083 0.01314804 0.01305318 0.01305589 0.01313626 1000 0.01317083 0.01314804 0.01305318 0.01305589 0.01313626 1000 0.01305142 0.01279669 0.01252035 0.01173102 0.01121306 1000 0.01305142 0.01279669 0.01252035 0.01173102 0.01121306 1000
lala 7 1.2 1 second 11 1 64 6 3.180001 0.699997663497925 1 1 1 0 0.01196088 0.0120751 0.01219712 0.01217643 0.01227554 1000 0.01196088 0.0120751 0.01219712 0.01217643 0.01227554 1000 0.01224951 0.01218325 0.01230409 0.01241037 0.01254554 1000 0.01224951 0.01218325 0.01230409 0.01241037 0.01254554 1000
lala 3 1.2 0 second 3 1 65 5 4.25 0.599997758865356 -1 1 -1 1 0.01053375 0.01081508 0.01095168 0.01076482 0.01093357 1000 0.01053375 0.01081508 0.01095168 0.01076482 0.01093357 1000 0.01122295 0.01131727 0.0114546 0.01101443 0.01122378 1000 0.01122295 0.01131727 0.0114546 0.01101443 0.01122378 1000
lala 5 1.2 0 first 12 1 66 4 1.32 0.799997568130493 0 0 -1 1 0.0115946 0.01157652 0.0117731 1000 1000 1000 0.0115946 0.01157652 0.0117731 1000 1000 1000 0.01025324 0.01050041 0.01087457 0.01097591 0.0109622 1000 0.01025324 0.01050041 0.01087457 0.01097591 0.0109622 1000
lala 1 1.2 1 first 5 1 67 6 7.98 0.519997835159302 -1 1 1 1 0.01071359 0.01070622 0.01095323 1000 1000 1000 0.01071359 0.01070622 0.01095323 1000 1000 1000 0.009549438 0.009275096 0.009669092 0.009926118 0.009917156 1000 0.009549438 0.009275096 0.009669092 0.009926118 0.009917156 1000
lala 7 1.2 0 first 8 1 68 5 3.3 1.73999691009521 1 0 -1 1 0.01079435 0.01105045 0.01111037 1000 1000 1000 0.01079435 0.01105045 0.01111037 1000 1000 1000 0.01167453 0.01125651 0.01087844 0.01063037 0.01042271 1000 0.01167453 0.01125651 0.01087844 0.01063037 0.01042271 1000
lala 6 1.2 0 first 0 1 69 4 6.24 0.499997854232788 -1 0 -1 0 0.01046657 0.01043456 0.0104932 1000 1000 1000 0.01046657 0.01043456 0.0104932 1000 1000 1000 0.01111827 0.01173033 0.01217092 0.01206674 0.01166068 1000 0.01111827 0.01173033 0.01217092 0.01206674 0.01166068 1000
lala 2 1.2 1 first 16 1 70 6 2.76 0.659997701644897 0 0 1 1 0.01076029 0.01086523 0.01083666 1000 1000 1000 0.01076029 0.01086523 0.01083666 1000 1000 1000 0.01112652 0.01095827 0.01073356 0.01090319 0.01099882 1000 0.01112652 0.01095827 0.01073356 0.01090319 0.01099882 1000
lala 3 1.2 1 first 4 1 71 6 6.36 0.699997663497925 -1 0 1 0 0.009635603 0.0096989 0.009716911 1000 1000 1000 0.009635603 0.0096989 0.009716911 1000 1000 1000 -0.004319376 -0.003296751 -0.001421104 0.000467665 0.0002768908 1000 -0.004319376 -0.003296751 -0.001421104 0.000467665 0.0002768908 1000
lala 5 1.2 0 second 14 1 72 5 4.05 0.599997758865356 0 0 -1 1 0.002889552 0.003317281 0.003401511 0.003723797 0.003741691 1000 0.002889552 0.003317281 0.003401511 0.003723797 0.003741691 1000 0.004385836 0.004528184 0.004733432 0.00483955 0.004761019 1000 0.004385836 0.004528184 0.004733432 0.00483955 0.004761019 1000
lala 6 1.2 1 first 12 1 73 4 2.52 0.939997434616089 0 0 1 1 0.005626629 0.005923507 0.00548793 1000 1000 1000 0.005626629 0.005923507 0.00548793 1000 1000 1000 0.006319157 0.006341184 0.006312379 0.006507039 0.0063468 1000 0.006319157 0.006341184 0.006312379 0.006507039 0.0063468 1000
lala 2 1.2 1 first 7 1 74 4 4.12 0.839997529983521 1 1 1 1 0.007176547 0.006792675 0.006610665 1000 1000 1000 0.007176547 0.006792675 0.006610665 1000 1000 1000 0.008323533 0.008966219 0.009422861 0.009589353 0.009461211 1000 0.008323533 0.008966219 0.009422861 0.009589353 0.009461211 1000
lala 7 1.2 0 first 12 1 75 4 1.32 0.639997720718384 0 0 -1 1 0.009239312 0.00920864 0.009088933 1000 1000 1000 0.009239312 0.00920864 0.009088933 1000 1000 1000 0.007957746 0.007350813 0.007444714 0.007355358 0.007197246 1000 0.007957746 0.007350813 0.007444714 0.007355358 0.007197246 1000
lala 3 1.2 1 first 6 1 76 4 5.04 0.639997720718384 1 0 1 1 0.008835064 0.008917966 0.008998993 1000 1000 1000 0.008835064 0.008917966 0.008998993 1000 1000 1000 0.009425142 0.009077373 0.008675004 0.0085539 0.008846721 1000 0.009425142 0.009077373 0.008675004 0.0085539 0.008846721 1000
lala 6 1.2 1 first 15 1 77 5 3.05 0.919997453689575 0 1 1 1 0.008538099 0.00849165 0.008666224 1000 1000 1000 0.008538099 0.00849165 0.008666224 1000 1000 1000 0.009616319 0.009608509 0.009269523 0.009567097 0.009868431 1000 0.009616319 0.009608509 0.009269523 0.009567097 0.009868431 1000
lala 7 1.2 1 second 0 1 78 4 7.44 0.639997720718384 -1 0 1 1 0.007536466 0.007555734 0.007842449 0.008117075 0.008384768 1000 0.007536466 0.007555734 0.007842449 0.008117075 0.008384768 1000 0.009343575 0.009413984 0.00977462 0.009438394 0.009481805 1000 0.009343575 0.009413984 0.00977462 0.009438394 0.009481805 1000
lala 7 1.2 0 first 2 1 79 5 3.3 0.559997797012329 -1 0 -1 1 0.009389326 0.009082789 0.008735986 1000 1000 1000 0.009389326 0.009082789 0.008735986 1000 1000 1000 0.008550454 0.00891328 0.009259992 0.009489804 0.009392701 1000 0.008550454 0.00891328 0.009259992 0.009489804 0.009392701 1000
lala 4 1.2 0 second 13 1 80 4 1.72 0.639997720718384 0 1 -1 0 0.009340575 0.009806282 0.009786941 0.009780652 0.009966087 1000 0.009340575 0.009806282 0.009786941 0.009780652 0.009966087 1000 0.009296122 0.009156781 0.009790079 0.00983 0.009680489 1000 0.009296122 0.009156781 0.009790079 0.00983 0.009680489 1000
lala 8 1.2 1 second 8 1 81 5 4.5 1.11999726295471 1 0 1 1 0.009702718 0.00988817 0.009570799 0.009581469 0.009652683 1000 0.009702718 0.00988817 0.009570799 0.009581469 0.009652683 1000 0.01065598 0.01059351 0.009854672 0.009443494 0.009289538 1000 0.01065598 0.01059351 0.009854672 0.009443494 0.009289538 1000
lala 10 2.4 0 first 17 1 82 6 1.98 0.759997606277466 0 1 -1 0 0.009106448 0.008876452 0.007005731 1000 1000 1000 0.009106448 0.008876452 0.007005731 1000 1000 1000 0.007026762 0.007333203 0.007141661 0.007210285 0.007547041 1000 0.007026762 0.007333203 0.007141661 0.007210285 0.007547041 1000
lala 5 1.2 1 second 1 1 83 4 5.32 0.639997720718384 -1 1 1 0 0.006461727 0.006632059 0.006838704 0.007006713 0.006792236 1000 0.006461727 0.006632059 0.006838704 0.007006713 0.006792236 1000 0.007556948 0.007808671 0.00783464 0.007739586 0.007749284 1000 0.007556948 0.007808671 0.00783464 0.007739586 0.007749284 1000
lala 9 1.2 1 second 8 1 84 5 3.3 0.639997720718384 1 0 1 1 0.008122563 0.008044648 0.007642577 0.007206218 0.006942097 1000 0.008122563 0.008044648 0.007642577 0.007206218 0.006942097 1000 0.007716524 0.007932685 0.008029856 0.007855582 0.007892262 1000 0.007716524 0.007932685 0.008029856 0.007855582 0.007892262 1000
lala 3 1.2 1 first 7 1 85 4 2.92 0.579997777938843 1 1 1 0 0.008704681 0.008595981 0.00874876 1000 1000 1000 0.008704681 0.008595981 0.00874876 1000 1000 1000 0.007669713 0.007386999 0.007180215 0.007215391 0.00698748 1000 0.007669713 0.007386999 0.007180215 0.007215391 0.00698748 1000
lala 11 1.2 0 first 17 1 86 6 3.18 0.61999773979187 0 1 -1 1 0.008285795 0.008242851 0.008230581 1000 1000 1000 0.008285795 0.008242851 0.008230581 1000 1000 1000 0.00719121 0.007228829 0.007390056 0.007540176 0.007334556 1000 0.00719121 0.007228829 0.007390056 0.007540176 0.007334556 1000
lala 4 1.2 1 first 7 1 87 4 1.72 0.539997816085815 1 1 1 0 0.007191692 0.007213849 0.007031728 1000 1000 1000 0.007191692 0.007213849 0.007031728 1000 1000 1000 0.007861855 0.007849735 0.007955988 0.008227118 0.007950556 1000 0.007861855 0.007849735 0.007955988 0.008227118 0.007950556 1000
lala 3 1.2 0 first 16 1 88 6 1.98 0.599997758865356 0 0 -1 1 0.006794841 0.00685824 0.007095089 1000 1000 1000 0.006794841 0.00685824 0.007095089 1000 1000 1000 0.008926884 0.008975137 0.009014149 0.008807192 0.008762156 1000 0.008926884 0.008975137 0.009014149 0.008807192 0.008762156 1000
lala 8 1.2 1 second 0 1 89 4 6.24 0.539997816085815 -1 0 1 0 0.008775353 0.008872865 0.008907641 0.008923615 0.008961977 1000 0.008775353 0.008872865 0.008907641 0.008923615 0.008961977 1000 0.008413577 0.008373784 0.008072864 0.008027218 0.00794686 1000 0.008413577 0.008373784 0.008072864 0.008027218 0.00794686 1000
lala 6 1.2 1 first 14 1 90 5 5.25 0.499997854232788 0 0 1 0 0.008646715 0.008674217 0.008599956 1000 1000 1000 0.008646715 0.008674217 0.008599956 1000 1000 1000 0.009334417 0.009077264 0.009284379 0.009316581 0.008954644 1000 0.009334417 0.009077264 0.009284379 0.009316581 0.008954644 1000
lala 8 1.2 0 second 12 1 91 4 2.52 0.61999773979187 0 0 -1 1 0.007932534 0.008008044 0.00845419 0.008721551 0.008648468 1000 0.007932534 0.008008044 0.00845419 0.008721551 0.008648468 1000 0.00873672 0.008744936 0.008826346 0.0090036 0.009196496 1000 0.00873672 0.008744936 0.008826346 0.0090036 0.009196496 1000
lala 4 1.2 0 first 16 1 92 6 3.18 0.679997682571411 0 0 -1 0 0.008397959 0.007979328 0.007699852 1000 1000 1000 0.008397959 0.007979328 0.007699852 1000 1000 1000 0.007444204 0.007390051 0.007467433 0.007602155 0.007757443 1000 0.007444204 0.007390051 0.007467433 0.007602155 0.007757443 1000
lala 9 1.2 1 second 0 1 93 4 5.04 0.679997682571411 -1 0 1 1 0.007816404 0.00710888 0.00676426 0.006763544 0.006937354 1000 0.007816404 0.00710888 0.00676426 0.006763544 0.006937354 1000 0.006201751 0.006863176 0.007346383 0.007153312 0.006932747 1000 0.006201751 0.006863176 0.007346383 0.007153312 0.006932747 1000
lala 4 1.2 0 first 6 1 94 4 3.84 1.11999726295471 1 0 -1 1 0.008434491 0.008223159 0.007986423 1000 1000 1000 0.008434491 0.008223159 0.007986423 1000 1000 1000 0.007630445 0.007764332 0.007377199 0.006707008 0.006677405 1000 0.007630445 0.007764332 0.007377199 0.006707008 0.006677405 1000
lala 12 1.2 1 second 17 1 95 6 4.38 0.639997720718384 0 1 1 1 0.007980047 0.008248752 0.00823461 0.008214611 0.008259276 1000 0.007980047 0.008248752 0.00823461 0.008214611 0.008259276 1000 0.007651431 0.007342854 0.007286746 0.00718331 0.006865524 1000 0.007651431 0.007342854 0.007286746 0.00718331 0.006865524 1000
lala 2 1.2 0 first 9 1 96 5 5.45 1.13999724388123 1 1 -1 1 0.007961442 0.008019743 0.007985565 1000 1000 1000 0.007961442 0.008019743 0.007985565 1000 1000 1000 0.008948029 0.008958857 0.009079635 0.008769528 0.008464273 1000 0.008948029 0.008958857 0.009079635 0.008769528 0.008464273 1000
lala 8 1.2 1 first 2 1 97 5 4.5 0.739997625350952 -1 0 1 0 0.008383171 0.008481769 0.008672257 1000 1000 1000 0.008383171 0.008481769 0.008672257 1000 1000 1000 0.008719373 0.008811893 0.0089525 0.00910232 0.009290115 1000 0.008719373 0.008811893 0.0089525 0.00910232 0.009290115 1000
lala 4 1.2 1 first 3 1 98 5 5.45 0.679997682571411 -1 1 1 0 0.009101261 0.009019627 0.00872421 1000 1000 1000 0.009101261 0.009019627 0.00872421 1000 1000 1000 0.00922557 0.009335528 0.009357772 0.009537913 0.009518257 1000 0.00922557 0.009335528 0.009357772 0.009537913 0.009518257 1000
lala 7 1.2 1 first 15 1 99 5 1.85 0.559997797012329 0 1 1 1 0.009762913 0.009485373 0.009569469 1000 1000 1000 0.009762913 0.009485373 0.009569469 1000 1000 1000 0.008188261 0.008526924 0.009133819 0.009341072 0.009363536 1000 0.008188261 0.008526924 0.009133819 0.009341072 0.009363536 1000
lala 13 0.6 1 second 17 1 100 6 3.78 0.719997644424438 0 1 1 0 0.009489288 0.01159384 0.009059925 0.006677776 0.004616488 1000 0.009489288 0.01159384 0.009059925 0.006677776 0.004616488 1000 0.00835672 0.008104644 0.007939481 0.007706749 0.007693966 1000 0.00835672 0.008104644 0.007939481 0.007706749 0.007693966 1000
lala 5 1.2 0 first 6 1 101 4 5.04 0.739997625350952 1 0 -1 1 0.01107629 0.0112135 0.01145817 1000 1000 1000 0.01107629 0.0112135 0.01145817 1000 1000 1000 0.01165964 0.01191379 0.0118186 0.01170253 0.01179764 1000 0.01165964 0.01191379 0.0118186 0.01170253 0.01179764 1000
lala 5 1.2 1 first 16 1 102 6 4.38 0.659997701644897 0 0 1 1 0.01223359 0.01185527 0.01143747 1000 1000 1000 0.01223359 0.01185527 0.01143747 1000 1000 1000 0.01292728 0.01306837 0.01330852 0.01338001 0.01337902 1000 0.01292728 0.01306837 0.01330852 0.01338001 0.01337902 1000
lala 10 1.2 1 first 8 1 103 5 2.1 0.719997644424438 1 0 1 0 0.01325361 0.01279287 0.01251693 1000 1000 1000 0.01325361 0.01279287 0.01251693 1000 1000 1000 0.01188562 0.01203658 0.01205974 0.01238475 0.01245708 1000 0.01188562 0.01203658 0.01205974 0.01238475 0.01245708 1000
lala 9 1.2 0 first 2 1 104 5 3.3 0.679997682571411 -1 0 -1 0 0.01308704 0.01293011 0.01269722 1000 1000 1000 0.01308704 0.01293011 0.01269722 1000 1000 1000 0.01220477 0.01205259 0.01189133 0.0119711 0.01205936 1000 0.01220477 0.01205259 0.01189133 0.0119711 0.01205936 1000
lala 11 2.4 0 first 8 1 105 5 1.65 0.739997625350952 1 0 -1 0 0.01355462 0.01329642 0.01312072 1000 1000 1000 0.01355462 0.01329642 0.01312072 1000 1000 1000 0.01291563 0.01298567 0.01324932 0.01272353 0.01265928 1000 0.01291563 0.01298567 0.01324932 0.01272353 0.01265928 1000
lala 8 1.2 0 first 15 1 106 5 1.65 0.499997854232788 0 1 -1 0 0.01186538 0.01205286 0.01244641 1000 1000 1000 0.01186538 0.01205286 0.01244641 1000 1000 1000 0.01343154 0.0130347 0.01338303 0.01388901 0.01391403 1000 0.01343154 0.0130347 0.01338303 0.01388901 0.01391403 1000
lala 9 1.2 1 second 12 1 107 4 3.72 0.61999773979187 0 0 1 1 0.01313 0.01311202 0.01313729 0.01320005 0.01318396 1000 0.01313 0.01311202 0.01313729 0.01320005 0.01318396 1000 0.01372574 0.01339334 0.01348891 0.01367829 0.01356257 1000 0.01372574 0.01339334 0.01348891 0.01367829 0.01356257 1000
lala 3 1.2 1 second 10 1 108 6 3.96 0.919997453689575 1 0 1 1 0.0130893 0.01293229 0.01270842 0.01228775 0.01230706 1000 0.0130893 0.01293229 0.01270842 0.01228775 0.01230706 1000 0.01368882 0.0134053 0.01303123 0.01343175 0.01358511 1000 0.01368882 0.0134053 0.01303123 0.01343175 0.01358511 1000
lala 6 1.2 1 second 16 1 109 6 3.18 0.759997606277466 0 0 1 1 0.01334697 0.01364316 0.01350106 0.01332028 0.01294071 1000 0.01334697 0.01364316 0.01350106 0.01332028 0.01294071 1000 0.0131946 0.01348842 0.01372668 0.0136427 0.01351826 1000 0.0131946 0.01348842 0.01372668 0.0136427 0.01351826 1000
lala 2 1.2 1 first 5 1 110 6 6.780001 0.659997701644897 -1 1 1 0 0.01347746 0.0135365 0.01350609 1000 1000 1000 0.01347746 0.0135365 0.01350609 1000 1000 1000 0.01334171 0.01309287 0.01278177 0.01222471 0.0121896 1000 0.01334171 0.01309287 0.01278177 0.01222471 0.0121896 1000
lala 5 1.2 0 second 13 1 111 4 2.92 0.499997854232788 0 1 -1 0 0.01400245 0.01390164 0.01390159 0.01398701 0.01386315 1000 0.01400245 0.01390164 0.01390159 0.01398701 0.01386315 1000 0.01386658 0.01405475 0.01461593 0.01478569 0.0139101 1000 0.01386658 0.01405475 0.01461593 0.01478569 0.0139101 1000
lala 5 1.2 0 first 7 1 112 4 1.32 0.519997835159302 1 1 -1 1 0.01296443 0.01292023 0.01283796 1000 1000 1000 0.01296443 0.01292023 0.01283796 1000 1000 1000 0.01483065 0.01497448 0.01474306 0.01459426 0.01460467 1000 0.01483065 0.01497448 0.01474306 0.01459426 0.01460467 1000
lala 10 0.6 0 second 2 1 113 5 3.9 0.479997873306274 -1 0 -1 1 0.01383508 0.0134686 0.01333542 0.01392831 0.01435972 1000 0.01383508 0.0134686 0.01333542 0.01392831 0.01435972 1000 0.01426833 0.01419844 0.01433919 0.0146601 0.01450581 1000 0.01426833 0.01419844 0.01433919 0.0146601 0.01450581 1000
lala 10 0.6 1 second 12 1 114 4 3.12 0.579997777938843 0 0 1 0 0.0146259 0.01416263 0.01384988 0.0140302 0.01431959 1000 0.0146259 0.01416263 0.01384988 0.0140302 0.01431959 1000 0.01256265 0.01250276 0.01267585 0.01288049 0.0129274 1000 0.01256265 0.01250276 0.01267585 0.01288049 0.0129274 1000
lala 11 0.6 1 first 2 1 115 5 4.5 0.579997777938843 -1 0 1 0 0.01363014 0.01355389 0.01383233 1000 1000 1000 0.01363014 0.01355389 0.01383233 1000 1000 1000 0.01386007 0.01369817 0.01369826 0.01299339 0.01244268 1000 0.01386007 0.01369817 0.01369826 0.01299339 0.01244268 1000
lala 6 1.2 1 second 13 1 116 4 4.12 0.719997644424438 0 1 1 1 0.01349698 0.01312524 0.01329824 0.01335091 0.0131028 1000 0.01349698 0.01312524 0.01329824 0.01335091 0.0131028 1000 0.01290836 0.01286117 0.01260646 0.01228355 0.01243734 1000 0.01290836 0.01286117 0.01260646 0.01228355 0.01243734 1000
lala 14 0.6 1 second 17 1 117 6 3.18 0.859997510910034 0 1 1 1 0.01062019 0.01073283 0.01110598 0.01096812 0.01108339 1000 0.01062019 0.01073283 0.01110598 0.01096812 0.01108339 1000 0.01822118 0.01989112 0.01985346 0.02157852 0.02002325 1000 0.01822118 0.01989112 0.01985346 0.02157852 0.02002325 1000
lala 10 2.4 0 first 0 1 118 4 2.64 0.839997529983521 -1 0 -1 0 0.0203182 0.007146758 0.00628927 1000 1000 1000 0.0203182 0.007146758 0.00628927 1000 1000 1000 0.003668907 0.005262159 0.006230864 0.005397713 0.004826982 1000 0.003668907 0.005262159 0.006230864 0.005397713 0.004826982 1000
lala 4 1.2 1 first 4 1 119 6 5.16 0.499997854232788 -1 0 1 1 0.007130677 0.007875506 0.007938111 1000 1000 1000 0.007130677 0.007875506 0.007938111 1000 1000 1000 0.006561561 0.006663577 0.006607374 0.006458006 0.00614488 1000 0.006561561 0.006663577 0.006607374 0.006458006 0.00614488 1000
lala 15 0.6 0 second 17 1 120 6 2.58 0.679997682571411 0 1 -1 1 0.007296459 0.007256178 0.007479861 0.007610587 0.007598547 1000 0.007296459 0.007256178 0.007479861 0.007610587 0.007598547 1000 0.007543228 0.00752877 0.007396922 0.007317315 0.007564231 1000 0.007543228 0.00752877 0.007396922 0.007317315 0.007564231 1000
lala 6 1.2 0 second 1 1 121 4 4.12 0.719997644424438 -1 1 -1 0 0.007673399 0.007703662 0.007531329 0.007585837 0.007417792 1000 0.007673399 0.007703662 0.007531329 0.007585837 0.007417792 1000 0.006983744 0.006797524 0.00708697 0.007213265 0.006793611 1000 0.006983744 0.006797524 0.00708697 0.007213265 0.006793611 1000
lala 6 1.2 1 first 6 1 122 4 6.24 0.659997701644897 1 0 1 0 0.006632398 0.006829343 0.006758421 1000 1000 1000 0.006632398 0.006829343 0.006758421 1000 1000 1000 0.006630146 0.006563804 0.006493572 0.006427441 0.006461287 1000 0.006630146 0.006563804 0.006493572 0.006427441 0.006461287 1000
lala 3 1.2 0 first 5 1 123 6 5.580001 1.0999972820282 -1 1 -1 0 0.006916136 0.00672916 0.006691053 1000 1000 1000 0.006916136 0.00672916 0.006691053 1000 1000 1000 0.006598143 0.005789482 0.005302912 0.005348465 0.00599328 1000 0.006598143 0.005789482 0.005302912 0.005348465 0.00599328 1000
lala 11 1.2 0 second 0 1 124 4 3.84 0.699997663497925 -1 0 -1 0 0.006878002 0.00650504 0.005136046 0.005539441 0.006530066 1000 0.006878002 0.00650504 0.005136046 0.005539441 0.006530066 1000 0.007521484 0.007454151 0.006797525 0.006634378 0.006863283 1000 0.007521484 0.007454151 0.006797525 0.006634378 0.006863283 1000
lala 11 0.6 0 second 12 1 125 4 2.52 0.699997663497925 0 0 -1 0 0.005756739 0.005751933 0.005988555 0.005636618 0.005669941 1000 0.005756739 0.005751933 0.005988555 0.005636618 0.005669941 1000 0.005255292 0.005312553 0.00518445 0.005071173 0.004980756 1000 0.005255292 0.005312553 0.00518445 0.005071173 0.004980756 1000
lala 4 1.2 1 first 5 1 126 6 6.780001 0.659997701644897 -1 1 1 0 0.004850073 0.004878429 0.005142508 1000 1000 1000 0.004850073 0.004878429 0.005142508 1000 1000 1000 0.006283456 0.006094056 0.005874313 0.005722622 0.005496306 1000 0.006283456 0.006094056 0.005874313 0.005722622 0.005496306 1000
lala 16 0.3 1 first 17 1 127 6 2.88 0.639997720718384 0 1 1 1 0.005842618 0.005717856 0.005235956 1000 1000 1000 0.005842618 0.005717856 0.005235956 1000 1000 1000 0.005978327 0.006197155 0.006146253 0.006365982 0.006198075 1000 0.005978327 0.006197155 0.006146253 0.006365982 0.006198075 1000
lala 12 1.2 0 first 8 1 128 5 2.85 0.639997720718384 1 0 -1 1 0.004763247 0.005005293 0.004524489 1000 1000 1000 0.004763247 0.005005293 0.004524489 1000 1000 1000 0.004948696 0.004975422 0.005283359 0.005091758 0.005291359 1000 0.004948696 0.004975422 0.005283359 0.005091758 0.005291359 1000
lala 12 0.3 1 first 12 1 129 4 2.82 0.639997720718384 0 0 1 1 0.00555133 0.005096371 0.004924374 1000 1000 1000 0.00555133 0.005096371 0.004924374 1000 1000 1000 0.003047111 0.003793343 0.004251535 0.004399637 0.00452732 1000 0.003047111 0.003793343 0.004251535 0.004399637 0.00452732 1000
lala 6 1.2 0 second 7 1 130 4 2.52 0.599997758865356 1 1 -1 0 0.005713752 0.005586027 0.005290442 0.005109628 0.005094874 1000 0.005713752 0.005586027 0.005290442 0.005109628 0.005094874 1000 0.003803791 0.004098048 0.004619616 0.004949723 0.004628191 1000 0.003803791 0.004098048 0.004619616 0.004949723 0.004628191 1000
lala 8 1.2 1 first 11 1 131 6 1.980001 0.699997663497925 1 1 1 1 0.004541843 0.004669284 0.004647624 1000 1000 1000 0.004541843 0.004669284 0.004647624 1000 1000 1000 0.005124941 0.005516478 0.005773804 0.005734429 0.005106431 1000 0.005124941 0.005516478 0.005773804 0.005734429 0.005106431 1000
lala 7 1.2 0 first 1 1 132 4 5.32 3.55999517440796 -1 1 -1 1 0.005527892 0.005353898 0.005057251 1000 1000 1000 0.005527892 0.005353898 0.005057251 1000 1000 1000 0.004863602 0.004759117 0.004782076 0.00494474 0.004944269 1000 0.004863602 0.004759117 0.004782076 0.00494474 0.004944269 1000
lala 7 1.2 1 second 7 1 133 4 3.72 0.579997777938843 1 1 1 0 0.005439848 0.005494075 0.005128556 0.004831966 0.004888466 1000 0.005439848 0.005494075 0.005128556 0.004831966 0.004888466 1000 0.006121063 0.006239117 0.006320019 0.006279584 0.0063005 1000 0.006121063 0.006239117 0.006320019 0.006279584 0.0063005 1000
lala 8 1.2 1 second 7 1 134 4 2.52 0.659997701644897 1 1 1 1 0.00710304 0.00710587 0.007228995 0.007090597 0.00703132 1000 0.00710304 0.00710587 0.007228995 0.007090597 0.00703132 1000 0.006280388 0.006644557 0.006762864 0.006806665 0.006838772 1000 0.006280388 0.006644557 0.006762864 0.006806665 0.006838772 1000
lala 13 0.15 1 first 12 1 135 4 2.67 0.539997816085815 0 0 1 0 0.007455763 0.007369297 0.007412668 1000 1000 1000 0.007455763 0.007369297 0.007412668 1000 1000 1000 0.007209118 0.007116766 0.007156095 0.007441353 0.007327299 1000 0.007209118 0.007116766 0.007156095 0.007441353 0.007327299 1000
lala 5 1.2 0 first 5 1 136 6 5.580001 0.679997682571411 -1 1 -1 1 0.007304184 0.007424162 0.007242457 1000 1000 1000 0.007304184 0.007424162 0.007242457 1000 1000 1000 0.007870027 0.008014745 0.008144847 0.008174579 0.007926651 1000 0.007870027 0.008014745 0.008144847 0.008174579 0.007926651 1000
lala 5 1.2 0 second 4 1 137 6 3.96 0.639997720718384 -1 0 -1 0 0.006990567 0.007091214 0.007858496 0.008061997 0.00822126 1000 0.006990567 0.007091214 0.007858496 0.008061997 0.00822126 1000 0.008979244 0.00917063 0.009466979 0.00935424 0.009114952 1000 0.008979244 0.00917063 0.009466979 0.00935424 0.009114952 1000
lala 17 0.15 1 first 17 1 138 6 2.73 0.61999773979187 0 1 1 0 0.008537527 0.008614886 0.008853748 1000 1000 1000 0.008537527 0.008614886 0.008853748 1000 1000 1000 0.008261277 0.008422236 0.008462931 0.008522024 0.008206469 1000 0.008261277 0.008422236 0.008462931 0.008522024 0.008206469 1000
lala 13 1.2 1 second 8 1 139 5 4.05 0.359997987747192 1 0 1 1 0.008119357 0.008236852 0.008158821 0.008350875 0.008532385 1000 0.008119357 0.008236852 0.008158821 0.008350875 0.008532385 1000 0.008144152 0.008181489 0.008042206 0.0080984 0.008079555 1000 0.008144152 0.008181489 0.008042206 0.0080984 0.008079555 1000
lala 12 0.3 0 first 2 1 140 5 4.2 0.499997854232788 -1 0 -1 0 0.007558154 0.007388898 0.007571056 1000 1000 1000 0.007558154 0.007388898 0.007571056 1000 1000 1000 0.007875068 0.008140373 0.008476787 0.008404943 0.008241649 1000 0.007875068 0.008140373 0.008476787 0.008404943 0.008241649 1000
lala 14 0.6 0 second 8 1 141 5 3.45 0.479997873306274 1 0 -1 0 0.007635165 0.007573999 0.007683778 0.007680826 0.007618798 1000 0.007635165 0.007573999 0.007683778 0.007680826 0.007618798 1000 0.001290277 -0.0006151015 0.0003351705 0.000693592 -0.001736629 1000 0.001290277 -0.0006151015 0.0003351705 0.000693592 -0.001736629 1000
lala 6 1.2 1 first 4 1 142 6 5.16 0.579997777938843 -1 0 1 0 0.002331822 0.003681972 0.003900701 1000 1000 1000 0.002331822 0.003681972 0.003900701 1000 1000 1000 0.006753606 0.006162732 0.006348926 0.007004435 0.007665622 1000 0.006753606 0.006162732 0.006348926 0.007004435 0.007665622 1000
lala 7 1.2 1 first 14 1 143 5 4.05 0.659997701644897 0 0 1 1 0.008992938 0.009079732 0.008894467 1000 1000 1000 0.008992938 0.009079732 0.008894467 1000 1000 1000 0.01069369 0.01076545 0.01079958 0.01086464 0.01085899 1000 0.01069369 0.01076545 0.01079958 0.01086464 0.01085899 1000
lala 14 0.15 0 second 12 1 144 4 2.52 0.679997682571411 0 0 -1 0 0.01020092 0.01043486 0.01077938 0.01073303 0.01062028 1000 0.01020092 0.01043486 0.01077938 0.01073303 0.01062028 1000 0.01109919 0.01129047 0.01141712 0.01132913 0.0109142 1000 0.01109919 0.01129047 0.01141712 0.01132913 0.0109142 1000
lala 5 1.2 0 second 3 1 145 5 4.25 0.819997549057007 -1 1 -1 1 0.01047409 0.01002661 0.009943978 0.01005677 0.01025527 1000 0.01047409 0.01002661 0.009943978 0.01005677 0.01025527 1000 0.006402787 0.007389073 0.008305919 0.008922094 0.00902634 1000 0.006402787 0.007389073 0.008305919 0.008922094 0.00902634 1000
lala 15 0.075 1 second 12 1 146 4 2.595 0.379997968673706 0 0 1 1 0.004898858 0.005148245 0.006015851 0.007560082 0.008764582 1000 0.004898858 0.005148245 0.006015851 0.007560082 0.008764582 1000 0.009438097 0.009286084 0.009406583 0.009541908 0.009644513 1000 0.009438097 0.009286084 0.009406583 0.009541908 0.009644513 1000
lala 16 0.0375 0 second 12 1 147 4 2.5575 0.439997911453247 0 0 -1 1 0.01075845 0.0104906 0.01083649 0.01097615 0.01095004 1000 0.01075845 0.0104906 0.01083649 0.01097615 0.01095004 1000 0.009855899 0.01002585 0.01006887 0.009786868 0.009736734 1000 0.009855899 0.01002585 0.01006887 0.009786868 0.009736734 1000
lala 7 1.2 0 second 4 1 148 6 3.96 0.539997816085815 -1 0 -1 0 0.01154134 0.01186816 0.01223484 0.01236819 0.01231129 1000 0.01154134 0.01186816 0.01223484 0.01236819 0.01231129 1000 0.01169967 0.01194737 0.01173783 0.01179538 0.01183083 1000 0.01169967 0.01194737 0.01173783 0.01179538 0.01183083 1000
lala 18 0.15 0 second 17 1 149 6 2.58 0.559997797012329 0 1 -1 1 0.01198452 0.01210125 0.0118316 0.01158927 0.01167831 1000 0.01198452 0.01210125 0.0118316 0.01158927 0.01167831 1000 0.01173536 0.01178496 0.01207548 0.01244908 0.01223695 1000 0.01173536 0.01178496 0.01207548 0.01244908 0.01223695 1000
lala 9 1.2 0 second 7 1 150 4 1.32 0.61999773979187 1 1 -1 1 0.009852011 0.009667528 0.009706802 0.009574222 0.009327478 1000 0.009852011 0.009667528 0.009706802 0.009574222 0.009327478 1000 0.01013136 0.01037233 0.01012702 0.009963231 0.009779911 1000 0.01013136 0.01037233 0.01012702 0.009963231 0.009779911 1000
lala 7 1.2 1 second 13 1 151 4 2.92 0.759997606277466 0 1 1 1 0.008593941 0.007897332 0.007258119 0.006631658 0.007190705 1000 0.008593941 0.007897332 0.007258119 0.006631658 0.007190705 1000 0.0044883 0.009669974 0.01197982 0.01152969 0.0105813 1000 0.0044883 0.009669974 0.01197982 0.01152969 0.0105813 1000
lala 17 0.01875 0 second 12 1 152 4 2.57625 0.679997682571411 0 0 -1 1 0.01264623 0.01304402 0.01287143 0.01287172 0.01288249 1000 0.01264623 0.01304402 0.01287143 0.01287172 0.01288249 1000 0.01324734 0.0134781 0.0136364 0.01353091 0.01344023 1000 0.01324734 0.0134781 0.0136364 0.01353091 0.01344023 1000
lala 4 1.2 1 first 10 1 153 6 2.76 0.639997720718384 1 0 1 0 0.0122658 0.01266932 0.0129648 1000 1000 1000 0.0122658 0.01266932 0.0129648 1000 1000 1000 0.0128664 0.01280469 0.01289202 0.01264394 0.01254907 1000 0.0128664 0.01280469 0.01289202 0.01264394 0.01254907 1000
lala 19 0.075 1 second 17 1 154 6 2.655 0.639997720718384 0 1 1 1 0.0141458 0.01414773 0.01434844 0.01439868 0.01419428 1000 0.0141458 0.01414773 0.01434844 0.01439868 0.01419428 1000 0.01515668 0.0150449 0.01458967 0.01424716 0.01421488 1000 0.01515668 0.0150449 0.01458967 0.01424716 0.01421488 1000
lala 9 1.2 0 first 11 1 155 6 1.98 0.859997510910034 1 1 -1 0 0.01346383 0.01281657 0.01171421 1000 1000 1000 0.01346383 0.01281657 0.01171421 1000 1000 1000 0.01258358 0.01309604 0.01352601 0.0122206 0.01133582 1000 0.01258358 0.01309604 0.01352601 0.0122206 0.01133582 1000
lala 15 0.3 0 first 8 1 156 5 3.75 0.599997758865356 1 0 -1 1 0.02060769 0.02390233 0.02673225 1000 1000 1000 0.02060769 0.02390233 0.02673225 1000 1000 1000 0.01568005 0.01406819 0.01457104 0.0153145 0.0151887 1000 0.01568005 0.01406819 0.01457104 0.0153145 0.0151887 1000
lala 8 1.2 0 first 4 1 157 6 5.16 0.539997816085815 -1 0 -1 1 0.01501284 0.01418669 0.01335907 1000 1000 1000 0.01501284 0.01418669 0.01335907 1000 1000 1000 0.01198254 0.01183153 0.0121678 0.01210522 0.01230389 1000 0.01198254 0.01183153 0.0121678 0.01210522 0.01230389 1000
lala 5 1.2 1 second 10 1 158 6 1.98 0.679997682571411 1 0 1 1 0.01262204 0.01189803 0.01161947 0.01146747 0.01136672 1000 0.01262204 0.01189803 0.01161947 0.01146747 0.01136672 1000 0.01080617 0.0109198 0.0109339 0.01109263 0.01095385 1000 0.01080617 0.0109198 0.0109339 0.01109263 0.01095385 1000
lala 6 1.2 1 second 3 1 159 5 5.45 0.61999773979187 -1 1 1 1 0.01141828 0.01126817 0.01141749 0.01159935 0.01167568 1000 0.01141828 0.01126817 0.01141749 0.01159935 0.01167568 1000 0.01268264 0.01296756 0.01282854 0.01263186 0.01234099 1000 0.01268264 0.01296756 0.01282854 0.01263186 0.01234099 1000
lala 8 1.2 1 first 1 1 160 4 6.52 0.61999773979187 -1 1 1 0 0.01146858 0.01175688 0.01149255 1000 1000 1000 0.01146858 0.01175688 0.01149255 1000 1000 1000 0.01116515 0.01106076 0.01110803 0.01100505 0.01129194 1000 0.01116515 0.01106076 0.01110803 0.01100505 0.01129194 1000
lala 6 1.2 1 first 5 1 161 6 6.780001 0.479997873306274 -1 1 1 1 0.01050743 0.009897947 0.01114795 1000 1000 1000 0.01050743 0.009897947 0.01114795 1000 1000 1000 0.01337977 0.0141354 0.01470665 0.01518061 0.01518038 1000 0.01337977 0.0141354 0.01470665 0.01518061 0.01518038 1000
lala 3 1.2 1 first 9 1 162 5 6.65 0.519997835159302 1 1 1 1 0.01562784 0.01551775 0.01549255 1000 1000 1000 0.01562784 0.01551775 0.01549255 1000 1000 1000 0.01494404 0.01490396 0.01494695 0.01484927 0.01458021 1000 0.01494404 0.01490396 0.01494695 0.01484927 0.01458021 1000
lala 16 0.3 0 first 8 1 163 5 4.05 0.579997777938843 1 0 -1 1 0.01468998 0.01468821 0.01477738 1000 1000 1000 0.01468998 0.01468821 0.01477738 1000 1000 1000 0.01372535 0.01402024 0.01444513 0.01469569 0.01499661 1000 0.01372535 0.01402024 0.01444513 0.01469569 0.01499661 1000
lala 8 1.2 0 second 13 1 164 4 1.72 0.959997415542603 0 1 -1 0 0.01220975 0.01212183 0.01200769 0.01201812 0.01332555 1000 0.01220975 0.01212183 0.01200769 0.01201812 0.01332555 1000 0.01585083 0.01532969 0.01494603 0.01493839 0.01513824 1000 0.01585083 0.01532969 0.01494603 0.01493839 0.01513824 1000
lala 9 1.2 1 second 13 1 165 4 2.92 0.739997625350952 0 1 1 1 0.01523899 0.0153557 0.01519489 0.01531283 0.01556424 1000 0.01523899 0.0153557 0.01519489 0.01531283 0.01556424 1000 0.01577482 0.01586447 0.01567714 0.01539095 0.01526308 1000 0.01577482 0.01586447 0.01567714 0.01539095 0.01526308 1000
lala 7 1.2 1 first 6 1 166 4 5.04 0.639997720718384 1 0 1 0 0.01441277 0.01419002 0.01413288 1000 1000 1000 0.01441277 0.01419002 0.01413288 1000 1000 1000 0.0136686 0.01354164 0.01390012 0.01437483 0.01481509 1000 0.0136686 0.01354164 0.01390012 0.01437483 0.01481509 1000
lala 4 1.2 0 first 9 1 167 5 5.45 0.819997549057007 1 1 -1 1 0.01308363 0.01341703 0.0134802 1000 1000 1000 0.01308363 0.01341703 0.0134802 1000 1000 1000 0.01373954 0.01358311 0.01358536 0.01393109 0.0140861 1000 0.01373954 0.01358311 0.01358536 0.01393109 0.0140861 1000
lala 6 1.2 0 first 10 1 168 6 1.98 0.61999773979187 1 0 -1 0 0.0129763 0.0130409 0.01312055 1000 1000 1000 0.0129763 0.0130409 0.01312055 1000 1000 1000 0.01336773 0.01311623 0.01337142 0.01334228 0.01349931 1000 0.01336773 0.01311623 0.01337142 0.01334228 0.01349931 1000
lala 13 0.15 1 second 2 1 169 5 4.35 0.679997682571411 -1 0 1 1 0.01345621 0.01341517 0.01313864 0.01323949 0.01326201 1000 0.01345621 0.01341517 0.01313864 0.01323949 0.01326201 1000 0.01326597 0.01368421 0.01404166 0.01416585 0.01419963 1000 0.01326597 0.01368421 0.01404166 0.01416585 0.01419963 1000
lala 9 1.2 1 second 15 1 170 5 2.85 0.539997816085815 0 1 1 1 0.01294681 0.01303394 0.01325409 0.01330705 0.01297077 1000 0.01294681 0.01303394 0.01325409 0.01330705 0.01297077 1000 0.01346714 0.01326283 0.01309228 0.01270182 0.01211913 1000 0.01346714 0.01326283 0.01309228 0.01270182 0.01211913 1000
lala 7 1.2 1 second 5 1 171 6 5.580001 1.25999712944031 -1 1 1 0 0.01328886 0.01306523 0.01325447 0.01321617 0.0129181 1000 0.01328886 0.01306523 0.01325447 0.01321617 0.0129181 1000 0.01337332 0.01386637 0.01406778 0.01383423 0.01330127 1000 0.01337332 0.01386637 0.01406778 0.01383423 0.01330127 1000
lala 5 1.2 0 first 9 1 172 5 6.65 0.719997644424438 1 1 -1 1 0.0126114 0.01127136 0.01127911 1000 1000 1000 0.0126114 0.01127136 0.01127911 1000 1000 1000 0.01532581 0.01552561 0.01543423 0.0154935 0.0152352 1000 0.01532581 0.01552561 0.01543423 0.0154935 0.0152352 1000
lala 9 1.2 0 first 1 1 173 4 5.32 0.659997701644897 -1 1 -1 1 0.01450841 0.01438974 0.01398398 1000 1000 1000 0.01450841 0.01438974 0.01398398 1000 1000 1000 0.0144168 0.01440176 0.01465279 0.01484931 0.01492786 1000 0.0144168 0.01440176 0.01465279 0.01484931 0.01492786 1000
lala 18 0.01875 1 second 12 1 174 4 2.595 0.23999810218811 0 0 1 1 0.01315879 0.01361506 0.0142175 0.01444919 0.01446828 1000 0.01315879 0.01361506 0.0142175 0.01444919 0.01446828 1000 0.01443681 0.01457641 0.01444524 0.0145027 0.01456801 1000 0.01443681 0.01457641 0.01444524 0.0145027 0.01456801 1000
lala 10 0.6 0 first 1 1 175 4 5.92 0.61999773979187 -1 1 -1 0 0.009817953 0.008203422 0.007166087 1000 1000 1000 0.009817953 0.008203422 0.007166087 1000 1000 1000 0.01105779 0.01143576 0.01169645 0.01208352 0.0127243 1000 0.01105779 0.01143576 0.01169645 0.01208352 0.0127243 1000
lala 8 1.2 0 first 5 1 176 6 4.380001 0.61999773979187 -1 1 -1 1 0.01350399 0.01338438 0.01339324 1000 1000 1000 0.01350399 0.01338438 0.01339324 1000 1000 1000 0.01368674 0.01376419 0.01382253 0.01352306 0.01343396 1000 0.01368674 0.01376419 0.01382253 0.01352306 0.01343396 1000
lala 9 1.2 1 first 4 1 177 6 6.36 0.559997797012329 -1 0 1 0 0.01205441 0.01176929 0.01203482 1000 1000 1000 0.01205441 0.01176929 0.01203482 1000 1000 1000 0.01318858 0.01310838 0.01303551 0.01314677 0.01291697 1000 0.01318858 0.01310838 0.01303551 0.01314677 0.01291697 1000
lala 10 0.6 0 first 15 1 178 5 2.25 0.519997835159302 0 1 -1 0 0.01188068 0.01141641 0.01082104 1000 1000 1000 0.01188068 0.01141641 0.01082104 1000 1000 1000 0.01267867 0.01301721 0.01315528 0.01288633 0.01344685 1000 0.01267867 0.01301721 0.01315528 0.01288633 0.01344685 1000
lala 7 1.2 1 first 10 1 179 6 3.18 0.679997682571411 1 0 1 1 0.01344214 0.01307061 0.01271284 1000 1000 1000 0.01344214 0.01307061 0.01271284 1000 1000 1000 0.01210617 0.01207461 0.01241667 0.01290467 0.01282069 1000 0.01210617 0.01207461 0.01241667 0.01290467 0.01282069 1000
lala 11 0.3 1 first 15 1 180 5 2.55 0.499997854232788 0 1 1 1 0.01299475 0.01261422 0.012505 1000 1000 1000 0.01299475 0.01261422 0.012505 1000 1000 1000 0.01158098 0.01075793 0.01025324 0.009787822 0.009670241 1000 0.01158098 0.01075793 0.01025324 0.009787822 0.009670241 1000
lala 20 0.0375 0 second 17 1 181 6 2.6175 0.61999773979187 0 1 -1 1 0.01097772 0.01133206 0.01157799 0.01170016 0.01159639 1000 0.01097772 0.01133206 0.01157799 0.01170016 0.01159639 1000 0.0119881 0.01222551 0.0122612 0.01217806 0.01176088 1000 0.0119881 0.01222551 0.0122612 0.01217806 0.01176088 1000
lala 8 1.2 0 first 6 1 182 4 3.84 0.639997720718384 1 0 -1 0 0.0112583 0.01116276 0.01099296 1000 1000 1000 0.0112583 0.01116276 0.01099296 1000 1000 1000 0.01204436 0.01234377 0.01197671 0.01218553 0.01219761 1000 0.01204436 0.01234377 0.01197671 0.01218553 0.01219761 1000
lala 21 0.01875 1 first 17 1 183 6 2.63625 0.739997625350952 0 1 1 0 0.01203033 0.01202892 0.01193684 1000 1000 1000 0.01203033 0.01202892 0.01193684 1000 1000 1000 0.0119308 0.01198771 0.01161358 0.01156579 0.01131703 1000 0.0119308 0.01198771 0.01161358 0.01156579 0.01131703 1000
lala 9 1.2 1 first 6 1 184 4 5.04 0.679997682571411 1 0 1 1 0.01297555 0.01255255 0.01262169 1000 1000 1000 0.01297555 0.01255255 0.01262169 1000 1000 1000 0.01085268 0.01070968 0.01089745 0.01139131 0.01173426 1000 0.01085268 0.01070968 0.01089745 0.01139131 0.01173426 1000
lala 10 0.6 1 first 11 1 185 6 2.58 0.61999773979187 1 1 1 0 0.008813777 0.005747763 0.005819078 1000 1000 1000 0.008813777 0.005747763 0.005819078 1000 1000 1000 0.02443436 0.02208711 0.02051768 0.01999447 0.02162711 1000 0.02443436 0.02208711 0.02051768 0.01999447 0.02162711 1000
lala 17 0.3 1 second 8 1 186 5 4.35 0.819997549057007 1 0 1 0 0.01130587 0.01334021 0.01354402 0.01197279 0.01060272 1000 0.01130587 0.01334021 0.01354402 0.01197279 0.01060272 1000 0.00915824 0.00935361 0.009240414 0.009076612 0.00883432 1000 0.00915824 0.00935361 0.009240414 0.009076612 0.00883432 1000
lala 8 1.2 0 second 10 1 187 6 1.98 0.539997816085815 1 0 -1 1 0.009206068 0.009407957 0.009657087 0.009749635 0.009571936 1000 0.009206068 0.009407957 0.009657087 0.009749635 0.009571936 1000 0.009061195 0.009477482 0.00960567 0.009674899 0.009587952 1000 0.009061195 0.009477482 0.00960567 0.009674899 0.009587952 1000
lala 10 0.6 0 first 4 1 188 6 5.76 0.61999773979187 -1 0 -1 0 0.0084916 0.008441657 0.008626255 1000 1000 1000 0.0084916 0.008441657 0.008626255 1000 1000 1000 0.008636528 0.008854142 0.009609218 0.01000654 0.009806169 1000 0.008636528 0.008854142 0.009609218 0.01000654 0.009806169 1000
lala 18 0.15 1 first 8 1 189 5 4.2 0.839997529983521 1 0 1 0 0.009086411 0.009243377 0.009121165 1000 1000 1000 0.009086411 0.009243377 0.009121165 1000 1000 1000 0.01039513 0.01029063 0.01020399 0.01025717 0.01051066 1000 0.01039513 0.01029063 0.01020399 0.01025717 0.01051066 1000
lala 6 1.2 1 first 9 1 190 5 7.849999 0.679997682571411 1 1 1 1 0.009321655 0.009301546 0.009585963 1000 1000 1000 0.009321655 0.009301546 0.009585963 1000 1000 1000 0.01078308 0.01106455 0.01082278 0.01065395 0.01085502 1000 0.01078308 0.01106455 0.01082278 0.01065395 0.01085502 1000
lala 9 1.2 0 first 10 1 191 6 3.18 0.639997720718384 1 0 -1 1 0.01208664 0.01150775 0.01117776 1000 1000 1000 0.01208664 0.01150775 0.01117776 1000 1000 1000 0.01068633 0.0106976 0.01080101 0.0108753 0.0108334 1000 0.01068633 0.0106976 0.01080101 0.0108753 0.0108334 1000
lala 19 0.15 1 first 8 1 192 5 4.05 0.739997625350952 1 0 1 1 0.01119225 0.01146519 0.01136238 1000 1000 1000 0.01119225 0.01146519 0.01136238 1000 1000 1000 0.01209974 0.01194494 0.01207549 0.01216734 0.01205599 1000 0.01209974 0.01194494 0.01207549 0.01216734 0.01205599 1000
lala 7 1.2 1 second 9 1 193 5 6.65 0.679997682571411 1 1 1 1 0.0113119 0.01166317 0.01146821 0.01130028 0.01155643 1000 0.0113119 0.01166317 0.01146821 0.01130028 0.01155643 1000 0.01238821 0.01221419 0.01214513 0.01222246 0.01207299 1000 0.01238821 0.01221419 0.01214513 0.01222246 0.01207299 1000
lala 10 0.6 0 second 7 1 194 4 1.92 0.559997797012329 1 1 -1 1 0.01055994 0.01077118 0.01077335 0.01056293 0.01075907 1000 0.01055994 0.01077118 0.01077335 0.01056293 0.01075907 1000 0.009740971 0.008634868 0.008282661 0.009248472 0.009170894 1000 0.009740971 0.008634868 0.008282661 0.009248472 0.009170894 1000
lala 10 0.6 0 second 6 1 195 4 4.44 0.659997701644897 1 0 -1 0 0.01254036 0.01121955 0.01004263 0.0108592 0.01111888 1000 0.01254036 0.01121955 0.01004263 0.0108592 0.01111888 1000 0.01197032 0.01247054 0.01276066 0.01275517 0.01290504 1000 0.01197032 0.01247054 0.01276066 0.01275517 0.01290504 1000
lala 7 1.2 0 second 3 1 196 5 4.25 0.519997835159302 -1 1 -1 1 0.009614119 0.009928708 0.01024527 0.01020575 0.01072112 1000 0.009614119 0.009928708 0.01024527 0.01020575 0.01072112 1000 0.0106378 0.01098774 0.01120855 0.01110175 0.01064766 1000 0.0106378 0.01098774 0.01120855 0.01110175 0.01064766 1000
lala 10 0.6 0 second 13 1 197 4 2.32 0.679997682571411 0 1 -1 1 0.007979558 0.007569457 0.00702312 0.007069683 0.007023207 1000 0.007979558 0.007569457 0.00702312 0.007069683 0.007023207 1000 0.006374684 0.006914289 0.00726422 0.007367814 0.007200222 1000 0.006374684 0.006914289 0.00726422 0.007367814 0.007200222 1000
lala 11 0.6 1 second 7 1 198 4 2.52 0.679997682571411 1 1 1 0 0.007158994 0.007132167 0.007277108 0.007207546 0.007838359 1000 0.007158994 0.007132167 0.007277108 0.007207546 0.007838359 1000 0.007707723 0.007824082 0.007838751 0.007990978 0.008291509 1000 0.007707723 0.007824082 0.007838751 0.007990978 0.008291509 1000
lala 8 1.2 0 first 14 1 199 5 2.85 0.639997720718384 0 0 -1 1 0.009582278 0.009354143 0.009407203 1000 1000 1000 0.009582278 0.009354143 0.009407203 1000 1000 1000 0.0108914 0.01108318 0.01041509 0.01010081 0.009787993 1000 0.0108914 0.01108318 0.01041509 0.01010081 0.009787993 1000
lala 20 0.15 1 first 8 1 200 5 3.9 0.61999773979187 1 0 1 1 0.00243236 0.01486388 0.02051779 0.01987388 0.01853758 0.01666869 0.00243236 0.01486388 0.02051779 0.01987388 0.01853758 0.01666869 0.01466949 0.01430242 0.01408783 0.01317116 0.0125649 1000 0.01466949 0.01430242 0.01408783 0.01317116 0.0125649 1000
lala 11 0.3 1 second 6 1 201 4 4.74 0.779997587203979 1 0 1 1 0.01140406 0.01156178 0.01200293 0.01249093 0.01270898 1000 0.01140406 0.01156178 0.01200293 0.01249093 0.01270898 1000 0.0121019 0.01218705 0.01217164 0.01218531 0.01190222 1000 0.0121019 0.01218705 0.01217164 0.01218531 0.01190222 1000
lala 8 1.2 1 second 9 1 202 5 5.45 0.639997720718384 1 1 1 1 0.009335244 0.009347395 0.009573492 0.009872687 0.009387938 1000 0.009335244 0.009347395 0.009573492 0.009872687 0.009387938 1000 0.008626147 0.009023906 0.009064175 0.008772573 0.008574707 1000 0.008626147 0.009023906 0.009064175 0.008772573 0.008574707 1000
lala 19 0.009375 0 second 12 1 203 4 2.585625 0.659997701644897 0 0 -1 1 0.00767318 0.00744724 0.007654564 0.007496703 0.007795982 1000 0.00767318 0.00744724 0.007654564 0.007496703 0.007795982 1000 0.008245109 0.008296775 0.008679331 0.008494887 0.008410033 1000 0.008245109 0.008296775 0.008679331 0.008494887 0.008410033 1000
lala 9 1.2 1 second 9 1 204 5 4.25 0.799997568130493 1 1 1 1 0.000196583 -0.001845335 -0.004253481 -0.005456573 -0.007947101 1000 0.000196583 -0.001845335 -0.004253481 -0.005456573 -0.007947101 1000 -0.001978268 -0.00316166 -0.003268885 -0.003025632 -0.002652523 1000 -0.001978268 -0.00316166 -0.003268885 -0.003025632 -0.002652523 1000
lala 9 1.2 0 second 5 1 205 6 5.580001 0.599997758865356 -1 1 -1 0 0.0002337955 0.0007312805 0.000746711 0.0008401722 0.0007352271 1000 0.0002337955 0.0007312805 0.000746711 0.0008401722 0.0007352271 1000 0.0009222963 0.001227601 0.001283676 0.001954613 0.002541483 1000 0.0009222963 0.001227601 0.001283676 0.001954613 0.002541483 1000
lala 14 0.075 0 first 2 1 206 5 4.275 0.839997529983521 -1 0 -1 1 0.003528151 0.002829887 0.001436058 1000 1000 1000 0.003528151 0.002829887 0.001436058 1000 1000 1000 0.001956121 0.00209373 0.002496962 0.002483267 0.002498596 1000 0.001956121 0.00209373 0.002496962 0.002483267 0.002498596 1000
lala 15 0.0375 0 second 2 1 207 5 4.3125 0.639997720718384 -1 0 -1 0 0.004183431 0.004079301 0.003674575 0.003036326 0.002510779 1000 0.004183431 0.004079301 0.003674575 0.003036326 0.002510779 1000 0.002452888 0.00260536 0.00271119 0.002626027 0.002293176 1000 0.002452888 0.00260536 0.00271119 0.002626027 0.002293176 1000
lala 8 1.2 1 first 3 1 208 5 5.45 0.659997701644897 -1 1 1 1 0.002360696 0.00215669 0.002389284 1000 1000 1000 0.002360696 0.00215669 0.002389284 1000 1000 1000 0.001785079 0.0008138836 0.0003110111 0.0007146172 0.001196624 1000 0.001785079 0.0008138836 0.0003110111 0.0007146172 0.001196624 1000
lala 10 2.4 0 first 9 1 209 5 1.85 0.719997644424438 1 1 -1 0 0.00228142 0.002364198 0.001777818 1000 1000 1000 0.00228142 0.002364198 0.001777818 1000 1000 1000 0.001259171 0.001344013 0.001544616 0.002090309 0.002722594 1000 0.001259171 0.001344013 0.001544616 0.002090309 0.002722594 1000
lala 12 0.15 1 second 15 1 210 5 2.4 0.939997434616089 0 1 1 0 0.001763871 0.001500307 0.00145626 0.001400926 0.001151654 1000 0.001763871 0.001500307 0.00145626 0.001400926 0.001151654 1000 0.001664322 0.002146268 0.002399174 0.002243333 0.002064094 1000 0.001664322 0.002146268 0.002399174 0.002243333 0.002064094 1000
lala 11 0.6 1 second 1 1 211 4 6.52 0.779997587203979 -1 1 1 1 0.0008297526 0.0007513333 0.001096718 0.001135453 0.001012646 1000 0.0008297526 0.0007513333 0.001096718 0.001135453 0.001012646 1000 0.001295151 0.001364474 0.001209552 0.001314149 0.001383021 1000 0.001295151 0.001364474 0.001209552 0.001314149 0.001383021 1000
lala 11 0.3 0 first 13 1 212 4 2.62 0.719997644424438 0 1 -1 1 0.001282207 0.001365335 0.001322481 1000 1000 1000 0.001282207 0.001365335 0.001322481 1000 1000 1000 -0.001319317 -0.0007436805 -0.0005166619 -0.0003482702 -0.000394748 1000 -0.001319317 -0.0007436805 -0.0005166619 -0.0003482702 -0.000394748 1000
lala 12 0.3 1 first 1 1 213 4 6.219999 0.61999773979187 -1 1 1 0 0.0002035335 6.05414E-05 -6.902579E-05 1000 1000 1000 0.0002035335 6.05414E-05 -6.902579E-05 1000 1000 1000 0.000983528 0.0008671595 0.0008583831 0.0006813298 0.0001552576 1000 0.000983528 0.0008671595 0.0008583831 0.0006813298 0.0001552576 1000
lala 20 0.0046875 0 first 12 1 214 4 2.590312 0.639997720718384 0 0 -1 1 0.0008082189 0.0008118419 0.0008481662 1000 1000 1000 0.0008082189 0.0008118419 0.0008481662 1000 1000 1000 0.002177536 0.00200531 0.002397227 0.002657905 0.00240007 1000 0.002177536 0.00200531 0.002397227 0.002657905 0.00240007 1000
lala 13 0.15 0 second 15 1 215 5 2.25 0.639997720718384 0 1 -1 0 0.001423962 0.001027249 0.0003448331 -0.0005744086 -0.001005944 1000 0.001423962 0.001027249 0.0003448331 -0.0005744086 -0.001005944 1000 0.001508482 0.001929084 0.001411208 0.001480648 0.001647092 1000 0.001508482 0.001929084 0.001411208 0.001480648 0.001647092 1000
lala 12 0.15 1 second 6 1 216 4 4.59 0.859997510910034 1 0 1 0 0.001146871 0.002029395 0.002495009 0.001817089 0.0008833747 1000 0.001146871 0.002029395 0.002495009 0.001817089 0.0008833747 1000 0.0007785517 0.0007948671 0.0004266212 0.0004612644 0.000562802 1000 0.0007785517 0.0007948671 0.0004266212 0.0004612644 0.000562802 1000
lala 21 0.0046875 0 first 12 1 217 4 2.595 0.799997568130493 0 0 -1 1 0.002166557 0.002080169 0.001795138 1000 1000 1000 0.002166557 0.002080169 0.001795138 1000 1000 1000 0.003610322 0.003543179 0.003588095 0.003650632 0.00345658 1000 0.003610322 0.003543179 0.003588095 0.003650632 0.00345658 1000
lala 9 1.2 0 second 3 1 218 5 4.25 0.759997606277466 -1 1 -1 1 0.003244827 0.003546305 0.003826416 0.003797026 0.003737175 1000 0.003244827 0.003546305 0.003826416 0.003797026 0.003737175 1000 0.004322307 0.00429385 0.004577636 0.004781938 0.004713783 1000 0.004322307 0.00429385 0.004577636 0.004781938 0.004713783 1000
lala 12 1.2 1 first 0 1 219 4 5.04 0.599997758865356 -1 0 1 1 0.003472533 0.002962348 0.003094086 1000 1000 1000 0.003472533 0.002962348 0.003094086 1000 1000 1000 0.00482841 0.00474476 0.004712868 0.004668229 0.004811527 1000 0.00482841 0.00474476 0.004712868 0.004668229 0.004811527 1000
lala 10 1.2 1 first 10 1 220 6 4.38 0.61999773979187 1 0 1 1 0.004351849 0.003881671 0.003758434 1000 1000 1000 0.004351849 0.003881671 0.003758434 1000 1000 1000 0.001031857 0.001263192 0.00143863 0.001920147 0.002703841 1000 0.001031857 0.001263192 0.00143863 0.001920147 0.002703841 1000
lala 22 0.009375 0 second 17 1 221 6 2.626875 0.599997758865356 0 1 -1 0 0.004645165 0.004439681 0.004754352 0.004807064 0.004651993 1000 0.004645165 0.004439681 0.004754352 0.004807064 0.004651993 1000 0.004693169 0.004623348 0.004814333 0.004958348 0.004776093 1000 0.004693169 0.004623348 0.004814333 0.004958348 0.004776093 1000
lala 13 0.6 1 first 0 1 222 4 4.44 0.639997720718384 -1 0 1 1 0.005325305 0.005603795 0.005682222 1000 1000 1000 0.005325305 0.005603795 0.005682222 1000 1000 1000 0.005965347 0.005414312 0.005110452 0.005399682 0.005331852 1000 0.005965347 0.005414312 0.005110452 0.005399682 0.005331852 1000
lala 11 0.6 1 second 10 1 223 6 3.78 1.07999730110168 1 0 1 0 0.005649066 0.005708555 0.005772409 0.00615923 0.006514126 1000 0.005649066 0.005708555 0.005772409 0.00615923 0.006514126 1000 0.006778 0.006756476 0.006639533 0.006609272 0.006919413 1000 0.006778 0.006756476 0.006639533 0.006609272 0.006919413 1000
lala 13 0.3 0 first 1 1 224 4 5.919999 0.599997758865356 -1 1 -1 0 0.008251461 0.008703924 0.008388124 1000 1000 1000 0.008251461 0.008703924 0.008388124 1000 1000 1000 0.008121619 0.008151121 0.008534505 0.008663681 0.008901424 1000 0.008121619 0.008151121 0.008534505 0.008663681 0.008901424 1000
lala 14 0.15 1 second 1 1 225 4 6.069999 0.639997720718384 -1 1 1 1 0.01035871 0.01109884 0.01107216 0.01096927 0.01093673 1000 0.01035871 0.01109884 0.01107216 0.01096927 0.01093673 1000 0.01128132 0.01117123 0.01107632 0.01145753 0.01157322 1000 0.01128132 0.01117123 0.01107632 0.01145753 0.01157322 1000
lala 13 0.15 0 second 6 1 226 4 4.44 1.43999695777893 1 0 -1 0 0.01298941 0.01278367 0.01266327 0.01270262 0.01290283 1000 0.01298941 0.01278367 0.01266327 0.01270262 0.01290283 1000 0.01337874 0.01346595 0.01363831 0.01377546 0.01413334 1000 0.01337874 0.01346595 0.01363831 0.01377546 0.01413334 1000
lala 14 0.075 0 second 15 1 227 5 2.325 1.15999722480774 0 1 -1 0 0.01423134 0.01439589 0.01466149 0.01471488 0.01478193 1000 0.01423134 0.01439589 0.01466149 0.01471488 0.01478193 1000 0.01597918 0.01584945 0.01585198 0.01591674 0.0158382 1000 0.01597918 0.01584945 0.01585198 0.01591674 0.0158382 1000
lala 11 0.3 0 second 4 1 228 6 6.06 0.519997835159302 -1 0 -1 1 0.01498225 0.01519329 0.01531114 0.01553886 0.01569275 1000 0.01498225 0.01519329 0.01531114 0.01553886 0.01569275 1000 0.01603875 0.01619313 0.01610785 0.01618893 0.01660132 1000 0.01603875 0.01619313 0.01610785 0.01618893 0.01660132 1000
lala 7 1.2 1 first 16 1 229 6 1.98 0.579997777938843 0 0 1 1 0.01665406 0.01671131 0.01643341 1000 1000 1000 0.01665406 0.01671131 0.01643341 1000 1000 1000 0.01676934 0.01665092 0.0168604 0.01676387 0.01686266 1000 0.01676934 0.01665092 0.0168604 0.01676387 0.01686266 1000
lala 15 0.075 0 first 15 1 230 5 2.4 0.919997453689575 0 1 -1 0 0.01825137 0.01815148 0.01819526 1000 1000 1000 0.01825137 0.01815148 0.01819526 1000 1000 1000 0.01829215 0.01842398 0.01836642 0.01794489 0.01708655 1000 0.01829215 0.01842398 0.01836642 0.01794489 0.01708655 1000
lala 14 0.6 0 second 0 1 231 4 3.84 0.61999773979187 -1 0 -1 0 0.01744892 0.01747201 0.01766578 0.01773487 0.0178633 1000 0.01744892 0.01747201 0.01766578 0.01773487 0.0178633 1000 0.0187392 0.0182387 0.01817994 0.01859149 0.01890485 1000 0.0187392 0.0182387 0.01817994 0.01859149 0.01890485 1000
lala 16 0.0375 0 second 2 1 232 5 4.35 1.05999732017517 -1 0 -1 0 0.01817695 0.0182754 0.01826052 0.01875161 0.01862337 1000 0.01817695 0.0182754 0.01826052 0.01875161 0.01862337 1000 0.01918072 0.01903154 0.01912243 0.01927733 0.01916505 1000 0.01918072 0.01903154 0.01912243 0.01927733 0.01916505 1000
lala 23 0.0046875 1 first 17 1 233 6 2.631563 0.639997720718384 0 1 1 1 0.01743579 0.01658001 0.01584227 1000 1000 1000 0.01743579 0.01658001 0.01584227 1000 1000 1000 0.01757298 0.0181529 0.01808169 0.01821735 0.01830915 1000 0.01757298 0.0181529 0.01808169 0.01821735 0.01830915 1000
lala 22 0.0046875 0 second 12 1 234 4 2.599687 0.419997930526733 0 0 -1 0 0.0196193 0.01982814 0.01946841 0.01892965 0.01889371 1000 0.0196193 0.01982814 0.01946841 0.01892965 0.01889371 1000 0.01902927 0.01872895 0.01859618 0.01892734 0.0191109 1000 0.01902927 0.01872895 0.01859618 0.01892734 0.0191109 1000
lala 10 0.6 0 first 3 1 235 5 4.85 0.459997892379761 -1 1 -1 0 0.01878574 0.01904803 0.01904162 1000 1000 1000 0.01878574 0.01904803 0.01904162 1000 1000 1000 0.01972548 0.02011367 0.02021857 0.01977079 0.01972171 1000 0.01972548 0.02011367 0.02021857 0.01977079 0.01972171 1000
lala 14 0.075 1 first 6 1 236 4 4.515 0.679997682571411 1 0 1 1 0.01795796 0.0174669 0.01749402 1000 1000 1000 0.01795796 0.0174669 0.01749402 1000 1000 1000 0.01717456 0.01731759 0.01723935 0.01649166 0.01650016 1000 0.01717456 0.01731759 0.01723935 0.01649166 0.01650016 1000
lala 11 1.2 1 first 9 1 237 5 3.05 0.599997758865356 1 1 1 1 0.01679787 0.01632201 0.01606332 1000 1000 1000 0.01679787 0.01632201 0.01606332 1000 1000 1000 0.01692611 0.01691982 0.01717163 0.01694492 0.01669969 1000 0.01692611 0.01691982 0.01717163 0.01694492 0.01669969 1000
lala 17 0.0375 0 first 2 1 238 5 4.3875 0.739997625350952 -1 0 -1 1 0.01748492 0.01728605 0.01757622 1000 1000 1000 0.01748492 0.01728605 0.01757622 1000 1000 1000 0.01725099 0.01659359 0.01699431 0.01740015 0.01728173 1000 0.01725099 0.01659359 0.01699431 0.01740015 0.01728173 1000
lala 12 0.3 1 second 4 1 239 6 6.36 0.739997625350952 -1 0 1 1 0.01735645 0.01733469 0.01739611 0.01744334 0.01724646 1000 0.01735645 0.01733469 0.01739611 0.01744334 0.01724646 1000 0.01808107 0.01768761 0.01737219 0.01740095 0.01795984 1000 0.01808107 0.01768761 0.01737219 0.01740095 0.01795984 1000
lala 18 0.075 1 first 2 1 240 5 4.4625 0.939997434616089 -1 0 1 1 0.01614698 0.01596764 0.0159326 1000 1000 1000 0.01614698 0.01596764 0.0159326 1000 1000 1000 0.01716215 0.01711764 0.0170882 0.01729789 0.01748443 1000 0.01716215 0.01711764 0.0170882 0.01729789 0.01748443 1000
lala 9 1.2 1 first 14 1 241 5 4.05 0.639997720718384 0 0 1 0 0.01787298 0.01789062 0.01719185 1000 1000 1000 0.01787298 0.01789062 0.01719185 1000 1000 1000 0.01709211 0.01729056 0.01782399 0.0180933 0.01788857 1000 0.01709211 0.01729056 0.01782399 0.0180933 0.01788857 1000
lala 12 0.3 1 second 13 1 242 4 2.92 0.899997472763062 0 1 1 1 0.01750197 0.01739193 0.01753397 0.01756988 0.01768846 1000 0.01750197 0.01739193 0.01753397 0.01756988 0.01768846 1000 0.01681046 0.01717828 0.01717961 0.01704943 0.01716871 1000 0.01681046 0.01717828 0.01717961 0.01704943 0.01716871 1000
lala 11 0.6 1 second 3 1 243 5 5.45 0.599997758865356 -1 1 1 1 0.0173866 0.01716755 0.01733747 0.01745226 0.0180108 1000 0.0173866 0.01716755 0.01733747 0.01745226 0.0180108 1000 0.01164506 0.01374553 0.01502947 0.01434748 0.01341925 1000 0.01164506 0.01374553 0.01502947 0.01434748 0.01341925 1000
lala 10 1.2 1 second 5 1 244 6 6.780001 0.599997758865356 -1 1 1 0 0.01023874 0.008807179 0.007029808 0.007886145 0.005956031 1000 0.01023874 0.008807179 0.007029808 0.007886145 0.005956031 1000 0.007957641 0.007688983 0.007225861 0.007556447 0.008104142 1000 0.007957641 0.007688983 0.007225861 0.007556447 0.008104142 1000
lala 13 0.15 0 second 13 1 245 4 2.77 0.659997701644897 0 1 -1 0 0.01123212 0.01113547 0.0108635 0.01048662 0.01064687 1000 0.01123212 0.01113547 0.0108635 0.01048662 0.01064687 1000 0.01288348 0.01297869 0.01317921 0.01362019 0.01366127 1000 0.01288348 0.01297869 0.01317921 0.01362019 0.01366127 1000
lala 14 0.075 0 second 13 1 246 4 2.845 0.699997663497925 0 1 -1 0 0.01488979 0.01488784 0.01507333 0.01554323 0.01581028 1000 0.01488979 0.01488784 0.01507333 0.01554323 0.01581028 1000 0.01628951 0.01638613 0.01572234 0.01508206 0.01477712 1000 0.01628951 0.01638613 0.01572234 0.01508206 0.01477712 1000
lala 24 0.00234375 1 first 17 1 247 6 2.629219 0.61999773979187 0 1 1 1 0.01628552 0.01619725 0.01640457 1000 1000 1000 0.01628552 0.01619725 0.01640457 1000 1000 1000 0.01884064 0.01864616 0.01842957 0.0180657 0.01782636 1000 0.01884064 0.01864616 0.01842957 0.0180657 0.01782636 1000
lala 11 0.3 0 first 11 1 248 6 2.28 0.659997701644897 1 1 -1 0 0.01697928 0.01689401 0.01639184 1000 1000 1000 0.01697928 0.01689401 0.01639184 1000 1000 1000 0.01795839 0.01818653 0.01838735 0.0185946 0.0184011 1000 0.01795839 0.01818653 0.01838735 0.0185946 0.0184011 1000
lala 8 1.2 0 first 16 1 249 6 1.98 0.599997758865356 0 0 -1 0 0.01975442 0.01956456 0.01959154 1000 1000 1000 0.01975442 0.01956456 0.01959154 1000 1000 1000 0.02021034 0.02033757 0.0203925 0.02071792 0.02095856 1000 0.02021034 0.02033757 0.0203925 0.02071792 0.02095856 1000
lala 12 0.6 0 second 10 1 250 6 3.18 0.719997644424438 1 0 -1 1 0.005416084 0.005223884 0.0052804 0.005418506 0.006035301 1000 0.005416084 0.005223884 0.0052804 0.005418506 0.006035301 1000 0.008544485 0.008841258 0.009493231 0.009989799 0.01042181 1000 0.008544485 0.008841258 0.009493231 0.009989799 0.01042181 1000
lala 13 0.3 1 second 10 1 251 6 3.48 0.99999737739563 1 0 1 0 0.009992353 0.01021242 0.01025552 0.01053962 0.01054691 1000 0.009992353 0.01021242 0.01025552 0.01053962 0.01054691 1000 0.01050698 0.01076746 0.01064626 0.01068877 0.01079615 1000 0.01050698 0.01076746 0.01064626 0.01068877 0.01079615 1000
lala 12 0.3 1 second 3 1 252 5 5.15 0.779997587203979 -1 1 1 0 0.01193326 0.012016 0.01274381 0.01273212 0.01246751 1000 0.01193326 0.012016 0.01274381 0.01273212 0.01246751 1000 0.01345645 0.01365878 0.01375063 0.01368454 0.0136514 1000 0.01345645 0.01365878 0.01375063 0.01368454 0.0136514 1000
lala 12 0.15 0 first 11 1 253 6 2.43 0.659997701644897 1 1 -1 1 0.0136338 0.01360325 0.01302679 1000 1000 1000 0.0136338 0.01360325 0.01302679 1000 1000 1000 0.01346862 0.01335195 0.0134238 0.01376961 0.01373713 1000 0.01346862 0.01335195 0.0134238 0.01376961 0.01373713 1000
lala 16 0.075 0 first 15 1 254 5 2.475 0.499997854232788 0 1 -1 0 0.01379433 0.01346599 0.01364077 1000 1000 1000 0.01379433 0.01346599 0.01364077 1000 1000 1000 0.0146368 0.01412954 0.01378659 0.01360688 0.01347406 1000 0.0146368 0.01412954 0.01378659 0.01360688 0.01347406 1000
lala 21 0.3 1 second 8 1 255 5 3.6 0.539997816085815 1 0 1 0 0.0125276 0.01250826 0.01261946 0.01292125 0.01276852 1000 0.0125276 0.01250826 0.01261946 0.01292125 0.01276852 1000 0.01338824 0.01341326 0.01365695 0.01379601 0.01403528 1000 0.01338824 0.01341326 0.01365695 0.01379601 0.01403528 1000
lala 22 0.6 1 first 8 1 256 5 3 0.559997797012329 1 0 1 0 0.01495452 0.01524117 0.01523151 1000 1000 1000 0.01495452 0.01524117 0.01523151 1000 1000 1000 0.01463012 0.01468706 0.01467476 0.01452833 0.01446621 1000 0.01463012 0.01468706 0.01467476 0.01452833 0.01446621 1000
lala 23 1.2 0 first 8 1 257 5 1.8 0.479997873306274 1 0 -1 1 0.01434502 0.01409732 0.01438714 1000 1000 1000 0.01434502 0.01409732 0.01438714 1000 1000 1000 0.0132632 0.01289387 0.0130575 0.01355686 0.01422035 1000 0.0132632 0.01289387 0.0130575 0.01355686 0.01422035 1000
lala 11 0.6 1 second 5 1 258 6 6.180001 0.739997625350952 -1 1 1 0 0.01363529 0.01365791 0.01344052 0.01337488 0.01330408 1000 0.01363529 0.01365791 0.01344052 0.01337488 0.01330408 1000 0.01360981 0.01425391 0.01496793 0.01540864 0.01603643 1000 0.01360981 0.01425391 0.01496793 0.01540864 0.01603643 1000
lala 12 0.6 0 second 9 1 259 5 2.45 0.519997835159302 1 1 -1 0 0.01179992 0.0122975 0.01280344 0.01361639 0.01373151 1000 0.01179992 0.0122975 0.01280344 0.01361639 0.01373151 1000 0.01356148 0.01329546 0.01320888 0.01328521 0.01323895 1000 0.01356148 0.01329546 0.01320888 0.01328521 0.01323895 1000
lala 13 0.15 1 second 4 1 260 6 6.21 0.499997854232788 -1 0 1 0 0.01439941 0.01476321 0.014542 0.01385775 0.01402713 1000 0.01439941 0.01476321 0.014542 0.01385775 0.01402713 1000 0.01504829 0.01514134 0.0151055 0.01524284 0.01533511 1000 0.01504829 0.01514134 0.0151055 0.01524284 0.01533511 1000
lala 13 0.3 0 second 3 1 261 5 4.849999 0.39999794960022 -1 1 -1 1 0.01635473 0.01635342 0.01684229 0.0171901 0.01749538 1000 0.01635473 0.01635342 0.01684229 0.0171901 0.01749538 1000 0.01774222 0.01764037 0.01773422 0.01759903 0.0175442 1000 0.01774222 0.01764037 0.01773422 0.01759903 0.0175442 1000
lala 17 0.15 0 first 15 1 262 5 2.625 0.459997892379761 0 1 -1 1 0.01785083 0.01772767 0.01757765 1000 1000 1000 0.01785083 0.01772767 0.01757765 1000 1000 1000 0.0191315 0.01901168 0.01966094 0.01971373 0.01989782 1000 0.0191315 0.01901168 0.01966094 0.01971373 0.01989782 1000
lala 23 0.009375 0 second 12 1 263 4 2.609062 0.559997797012329 0 0 -1 0 0.01883902 0.01955746 0.01994157 0.01969547 0.01958121 1000 0.01883902 0.01955746 0.01994157 0.01969547 0.01958121 1000 0.02007997 0.02038906 0.02048621 0.02025461 0.02012778 1000 0.02007997 0.02038906 0.02048621 0.02025461 0.02012778 1000
lala 24 0.01875 1 second 12 1 264 4 2.627812 0.599997758865356 0 0 1 1 0.02104295 0.02150816 0.02142137 0.02054134 0.02049087 1000 0.02104295 0.02150816 0.02142137 0.02054134 0.02049087 1000 0.020068 0.01964438 0.01969186 0.01993072 0.02032539 1000 0.020068 0.01964438 0.01969186 0.01993072 0.02032539 1000
lala 25 0.009375 1 second 12 1 265 4 2.618437 0.819997549057007 0 0 1 0 0.02135872 0.02148493 0.02152633 0.02160444 0.02125843 1000 0.02135872 0.02148493 0.02152633 0.02160444 0.02125843 1000 0.0214308 0.02183344 0.02267187 0.02268243 0.02272064 1000 0.0214308 0.02183344 0.02267187 0.02268243 0.02272064 1000
lala 18 0.3 1 second 15 1 266 5 2.925 0.679997682571411 0 1 1 1 0.01992733 0.01979291 0.01975681 0.0198444 0.01982747 1000 0.01992733 0.01979291 0.01975681 0.0198444 0.01982747 1000 0.02105054 0.02035996 0.02029432 0.02074388 0.02091222 1000 0.02105054 0.02035996 0.02029432 0.02074388 0.02091222 1000
lala 19 0.15 0 second 15 1 267 5 2.775 0.579997777938843 0 1 -1 1 0.02022822 0.01977374 0.0197109 0.01969177 0.02016826 1000 0.02022822 0.01977374 0.0197109 0.01969177 0.02016826 1000 0.02100257 0.02084769 0.02077823 0.02088921 0.02095352 1000 0.02100257 0.02084769 0.02077823 0.02088921 0.02095352 1000
lala 20 0.075 1 second 15 1 268 5 2.85 3.13999557495117 0 1 1 1 0.02230484 0.02217969 0.02204429 0.02210644 0.02240135 1000 0.02230484 0.02217969 0.02204429 0.02210644 0.02240135 1000 0.02088062 0.02046492 0.02031408 0.02034816 0.0204163 1000 0.02088062 0.02046492 0.02031408 0.02034816 0.0204163 1000
lala 15 0.3 1 second 0 1 269 4 4.14 0.679997682571411 -1 0 1 1 0.02069342 0.02116424 0.02149879 0.02135231 0.02086297 1000 0.02069342 0.02116424 0.02149879 0.02135231 0.02086297 1000 0.02129834 0.0215766 0.02196349 0.02178613 0.02190718 1000 0.02129834 0.0215766 0.02196349 0.02178613 0.02190718 1000
lala 19 0.0375 1 second 2 1 270 5 4.425 0.639997720718384 -1 0 1 0 0.02205061 0.02244657 0.02286778 0.02299498 0.02262895 1000 0.02205061 0.02244657 0.02286778 0.02299498 0.02262895 1000 0.02130689 0.02156681 0.02189074 0.02185244 0.02193655 1000 0.02130689 0.02156681 0.02189074 0.02185244 0.02193655 1000
lala 10 0.6 1 first 14 1 271 5 3.45 0.519997835159302 0 0 1 0 0.02227695 0.02216988 0.02208852 1000 1000 1000 0.02227695 0.02216988 0.02208852 1000 1000 1000 0.0227374 0.02242142 0.02222502 0.02243499 0.02314703 1000 0.0227374 0.02242142 0.02222502 0.02243499 0.02314703 1000
lala 9 1.2 0 second 16 1 272 6 3.18 0.739997625350952 0 0 -1 1 0.02244838 0.02246703 0.02226132 0.02235427 0.02243455 1000 0.02244838 0.02246703 0.02226132 0.02235427 0.02243455 1000 0.0249392 0.02386229 0.02371051 0.02328666 0.02318778 1000 0.0249392 0.02386229 0.02371051 0.02328666 0.02318778 1000
lala 14 0.15 0 first 3 1 273 5 5 0.919997453689575 -1 1 -1 0 0.02213844 0.02178208 0.02168107 1000 1000 1000 0.02213844 0.02178208 0.02168107 1000 1000 1000 0.02180028 0.021591 0.02190123 0.0215608 0.02140811 1000 0.02180028 0.021591 0.02190123 0.0215608 0.02140811 1000
lala 20 0.0375 1 second 2 1 274 5 4.3875 0.459997892379761 -1 0 1 0 0.02014811 0.02002985 0.01993807 0.02036998 0.02050004 1000 0.02014811 0.02002985 0.01993807 0.02036998 0.02050004 1000 0.02095032 0.02057047 0.02049869 0.0205676 0.02025787 1000 0.02095032 0.02057047 0.02049869 0.0205676 0.02025787 1000
lala 26 0.009375 0 first 12 1 275 4 2.609062 0.379997968673706 0 0 -1 1 0.02171829 0.02124669 0.02121817 1000 1000 1000 0.02171829 0.02124669 0.02121817 1000 1000 1000 0.02294051 0.02233447 0.02202366 0.02147698 0.0205897 1000 0.02294051 0.02233447 0.02202366 0.02147698 0.0205897 1000
lala 13 0.3 0 first 9 1 276 5 2.75 0.639997720718384 1 1 -1 0 0.02019856 0.02049453 0.02026882 1000 1000 1000 0.02019856 0.02049453 0.02026882 1000 1000 1000 0.02074749 0.02100788 0.02092792 0.02076538 0.02080505 1000 0.02074749 0.02100788 0.02092792 0.02076538 0.02080505 1000
lala 12 0.6 1 first 5 1 277 6 5.580001 0.539997816085815 -1 1 1 1 0.01985336 0.02013487 0.02006142 1000 1000 1000 0.01985336 0.02013487 0.02006142 1000 1000 1000 0.01962201 0.01986076 0.01975513 0.01962227 0.01952677 1000 0.01962201 0.01986076 0.01975513 0.01962227 0.01952677 1000
lala 15 0.075 1 first 13 1 278 4 2.92 0.61999773979187 0 1 1 0 0.02050556 0.02051788 0.02055471 1000 1000 1000 0.02050556 0.02051788 0.02055471 1000 1000 1000 0.01931129 0.01928646 0.01930868 0.01921595 0.01956888 1000 0.01931129 0.01928646 0.01930868 0.01921595 0.01956888 1000
lala 13 0.15 0 first 11 1 279 6 2.58 0.559997797012329 1 1 -1 1 0.01963284 0.01966263 0.01959812 1000 1000 1000 0.01963284 0.01966263 0.01959812 1000 1000 1000 0.02007742 0.02035469 0.01970508 0.01929416 0.01846338 1000 0.02007742 0.02035469 0.01970508 0.01929416 0.01846338 1000
lala 13 0.6 1 second 5 1 280 6 4.980001 0.519997835159302 -1 1 1 1 0.01842859 0.01813486 0.0169398 0.01441025 0.01358688 1000 0.01842859 0.01813486 0.0169398 0.01441025 0.01358688 1000 0.01181682 0.01123211 0.009332114 0.00638867 0.005121132 1000 0.01181682 0.01123211 0.009332114 0.00638867 0.005121132 1000
lala 21 0.0375 1 second 2 1 281 5 4.35 0.539997816085815 -1 0 1 0 0.009928976 0.01021505 0.01086763 0.01142226 0.0110733 1000 0.009928976 0.01021505 0.01086763 0.01142226 0.0110733 1000 0.01293766 0.01271474 0.01284852 0.01294821 0.01306293 1000 0.01293766 0.01271474 0.01284852 0.01294821 0.01306293 1000
lala 15 0.15 0 first 3 1 282 5 5.15 0.799997568130493 -1 1 -1 1 0.01263885 0.01271692 0.01229775 1000 1000 1000 0.01263885 0.01271692 0.01229775 1000 1000 1000 0.01345155 0.01338714 0.01339863 0.01321744 0.01259083 1000 0.01345155 0.01338714 0.01339863 0.01321744 0.01259083 1000
lala 10 1.2 0 first 16 1 283 6 4.38 0.579997777938843 0 0 -1 0 0.01273872 0.01279739 0.01287222 1000 1000 1000 0.01273872 0.01279739 0.01287222 1000 1000 1000 0.014072 0.01382922 0.01379101 0.01398771 0.01421023 1000 0.014072 0.01382922 0.01379101 0.01398771 0.01421023 1000
lala 15 0.0375 1 first 6 1 284 4 4.4775 0.479997873306274 1 0 1 0 0.01358127 0.01384392 0.01375456 1000 1000 1000 0.01358127 0.01384392 0.01375456 1000 1000 1000 0.01437293 0.01443472 0.01465377 0.01460285 0.01460617 1000 0.01437293 0.01443472 0.01465377 0.01460285 0.01460617 1000
lala 16 0.15 0 first 3 1 285 5 5.3 0.539997816085815 -1 1 -1 0 0.01519602 0.01532029 0.01515819 1000 1000 1000 0.01519602 0.01532029 0.01515819 1000 1000 1000 0.01928739 0.01853574 0.01839114 0.017648 0.0180199 1000 0.01928739 0.01853574 0.01839114 0.017648 0.0180199 1000
lala 24 0.6 0 second 8 1 286 5 2.4 0.579997777938843 1 0 -1 0 0.01946761 0.01988505 0.02010299 0.02004902 0.01985754 1000 0.01946761 0.01988505 0.02010299 0.02004902 0.01985754 1000 0.01886252 0.01896459 0.01903818 0.01922804 0.01926014 1000 0.01886252 0.01896459 0.01903818 0.01922804 0.01926014 1000
lala 11 0.6 0 second 14 1 287 5 2.85 0.519997835159302 0 0 -1 0 0.01809524 0.0184356 0.01824652 0.01821131 0.01820047 1000 0.01809524 0.0184356 0.01824652 0.01821131 0.01820047 1000 0.01789544 0.01797959 0.01803822 0.01791878 0.01847516 1000 0.01789544 0.01797959 0.01803822 0.01791878 0.01847516 1000
lala 16 0.0375 0 second 13 1 288 4 2.8825 0.939997434616089 0 1 -1 0 0.01704367 0.01737258 0.01757722 0.01765634 0.01746494 1000 0.01704367 0.01737258 0.01757722 0.01765634 0.01746494 1000 0.01681472 0.01665249 0.0167579 0.01704943 0.0170127 1000 0.01681472 0.01665249 0.0167579 0.01704943 0.0170127 1000
lala 15 0.075 1 second 1 1 289 4 5.994999 0.39999794960022 -1 1 1 1 0.01735742 0.01708559 0.01702337 0.01638527 0.01601099 1000 0.01735742 0.01708559 0.01702337 0.01638527 0.01601099 1000 0.01670503 0.01675931 0.01663318 0.01660107 0.01695342 1000 0.01670503 0.01675931 0.01663318 0.01660107 0.01695342 1000
lala 12 0.3 0 second 7 1 290 4 2.22 0.439997911453247 1 1 -1 1 0.01803368 0.01826623 0.01831866 0.01795812 0.01738463 1000 0.01803368 0.01826623 0.01831866 0.01795812 0.01738463 1000 0.01816468 0.01827837 0.01807425 0.01778113 0.01769702 1000 0.01816468 0.01827837 0.01807425 0.01778113 0.01769702 1000
lala 14 0.3 1 first 9 1 291 5 3.05 0.61999773979187 1 1 1 1 0.01719199 0.0170369 0.01703271 1000 1000 1000 0.01719199 0.0170369 0.01703271 1000 1000 1000 0.01759678 0.01777988 0.0181147 0.01799746 0.01790845 1000 0.01759678 0.01777988 0.0181147 0.01799746 0.01790845 1000
lala 14 0.15 0 first 10 1 292 6 3.33 0.579997777938843 1 0 -1 0 0.01695969 0.01700278 0.0173877 1000 1000 1000 0.01695969 0.01700278 0.0173877 1000 1000 1000 0.01674469 0.01681636 0.0169091 0.01694267 0.01682312 1000 0.01674469 0.01681636 0.0169091 0.01694267 0.01682312 1000
lala 17 0.3 1 first 3 1 293 5 5.6 0.719997644424438 -1 1 1 0 0.0175046 0.01734058 0.01730581 1000 1000 1000 0.0175046 0.01734058 0.01730581 1000 1000 1000 0.01719838 0.01713208 0.01719376 0.01730286 0.01729344 1000 0.01719838 0.01713208 0.01719376 0.01730286 0.01729344 1000
lala 14 1.2 0 first 5 1 294 6 3.780001 0.599997758865356 -1 1 -1 1 0.01653195 0.01597691 0.01587473 1000 1000 1000 0.01653195 0.01597691 0.01587473 1000 1000 1000 0.01648148 0.01703962 0.01696876 0.01613324 0.01549204 1000 0.01648148 0.01703962 0.01696876 0.01613324 0.01549204 1000
lala 18 0.15 1 second 3 1 295 5 5.45 0.539997816085815 -1 1 1 0 0.01591085 0.0160051 0.01580472 0.01592094 0.01604626 1000 0.01591085 0.0160051 0.01580472 0.01592094 0.01604626 1000 0.01622695 0.01634752 0.01661193 0.01678036 0.01722326 1000 0.01622695 0.01634752 0.01661193 0.01678036 0.01722326 1000
lala 15 0.075 0 first 10 1 296 6 3.405 0.599997758865356 1 0 -1 1 0.01651664 0.01553738 0.01508703 1000 1000 1000 0.01651664 0.01553738 0.01508703 1000 1000 1000 0.01588325 0.01600708 0.01582101 0.01572393 0.01583477 1000 0.01588325 0.01600708 0.01582101 0.01572393 0.01583477 1000
lala 13 0.15 1 first 7 1 297 4 2.37 0.679997682571411 1 1 1 1 0.01630735 0.01562129 0.01321722 1000 1000 1000 0.01630735 0.01562129 0.01321722 1000 1000 1000 0.01198071 0.01216916 0.01195577 0.01123807 0.01067557 1000 0.01198071 0.01216916 0.01195577 0.01123807 0.01067557 1000
lala 17 0.01875 1 first 13 1 298 4 2.90125 0.499997854232788 0 1 1 0 0.01213912 0.01216138 0.01207138 1000 1000 1000 0.01213912 0.01216138 0.01207138 1000 1000 1000 0.01296422 0.01278411 0.01259294 0.01285933 0.01300499 1000 0.01296422 0.01278411 0.01259294 0.01285933 0.01300499 1000
lala 18 0.009375 1 second 13 1 299 4 2.891875 0.819997549057007 0 1 1 1 0.01231208 0.0124242 0.01251347 0.01280256 0.01261949 1000 0.01231208 0.0124242 0.01251347 0.01280256 0.01261949 1000 0.0136832 0.01373444 0.01348241 0.01321665 0.01317418 1000 0.0136832 0.01373444 0.01348241 0.01321665 0.01317418 1000
lala 15 0.15 1 second 9 1 300 5 2.9 0.559997797012329 1 1 1 0 0.007189365 0.007412412 0.00813716 0.009713242 0.01111756 1000 0.007189365 0.007412412 0.00813716 0.009713242 0.01111756 1000 0.01212011 0.01210397 0.01235388 0.01263636 0.01303233 1000 0.01212011 0.01210397 0.01235388 0.01263636 0.01303233 1000
lala 16 0.075 1 second 1 1 301 4 5.92 0.679997682571411 -1 1 1 1 0.01154856 0.009022679 0.01129747 0.01447445 0.01580843 1000 0.01154856 0.009022679 0.01129747 0.01447445 0.01580843 1000 0.01618712 0.01639665 0.01671025 0.01697891 0.01752307 1000 0.01618712 0.01639665 0.01671025 0.01697891 0.01752307 1000
lala 15 0.6 0 first 5 1 302 6 4.380001 0.599997758865356 -1 1 -1 1 0.01918232 0.01865038 0.01835612 1000 1000 1000 0.01918232 0.01865038 0.01835612 1000 1000 1000 0.01917115 0.01966253 0.01963932 0.02003199 0.02013625 1000 0.01917115 0.01966253 0.01963932 0.02003199 0.02013625 1000
lala 16 0.075 1 second 10 1 303 6 3.48 0.559997797012329 1 0 1 0 0.01989676 0.01995217 0.01971699 0.01954581 0.01929609 1000 0.01989676 0.01995217 0.01971699 0.01954581 0.01929609 1000 0.0187222 0.01888065 0.01923966 0.01973114 0.01964318 1000 0.0187222 0.01888065 0.01923966 0.01973114 0.01964318 1000
lala 19 0.009375 1 first 13 1 304 4 2.882499 0.499997854232788 0 1 1 1 0.0202681 0.01984603 0.01985006 1000 1000 1000 0.0202681 0.01984603 0.01985006 1000 1000 1000 0.0208631 0.020666 0.02052194 0.02051907 0.01991298 1000 0.0208631 0.020666 0.02052194 0.02051907 0.01991298 1000
lala 14 0.15 1 second 4 1 305 6 6.06 0.559997797012329 -1 0 1 1 0.01980381 0.01986462 0.01983926 0.01980664 0.01988997 1000 0.01980381 0.01986462 0.01983926 0.01980664 0.01988997 1000 0.02104083 0.02134489 0.02208895 0.02205608 0.02188655 1000 0.02104083 0.02134489 0.02208895 0.02205608 0.02188655 1000
lala 19 0.15 1 second 3 1 306 5 5.3 0.579997777938843 -1 1 1 1 0.02120933 0.02086813 0.02070853 0.02050905 0.02067658 1000 0.02120933 0.02086813 0.02070853 0.02050905 0.02067658 1000 0.02085611 0.02074392 0.02092861 0.02112802 0.02112826 1000 0.02085611 0.02074392 0.02092861 0.02112802 0.02112826 1000
lala 16 0.6 1 second 5 1 307 6 4.980001 0.599997758865356 -1 1 1 1 0.02173734 0.0219119 0.02171726 0.02173636 0.02180463 1000 0.02173734 0.0219119 0.02171726 0.02173636 0.02180463 1000 0.0204713 0.0203912 0.02041306 0.0209518 0.02104329 1000 0.0204713 0.0203912 0.02041306 0.0209518 0.02104329 1000
lala 14 0.15 0 second 11 1 308 6 2.73 0.519997835159302 1 1 -1 1 0.01374463 0.01598371 0.0189933 0.01747112 0.01616926 1000 0.01374463 0.01598371 0.0189933 0.01747112 0.01616926 1000 0.01955543 0.0207386 0.02069427 0.01853906 0.01872903 1000 0.01955543 0.0207386 0.02069427 0.01853906 0.01872903 1000
lala 16 0.0375 1 first 6 1 309 4 4.44 0.439997911453247 1 0 1 0 0.01728324 0.01711157 0.01730806 1000 1000 1000 0.01728324 0.01711157 0.01730806 1000 1000 1000 0.01649179 0.01661725 0.0174136 0.01777953 0.01782425 1000 0.01649179 0.01661725 0.0174136 0.01777953 0.01782425 1000
lala 15 0.15 1 first 4 1 310 6 5.91 0.539997816085815 -1 0 1 0 0.01817572 0.01740337 0.01682912 1000 1000 1000 0.01817572 0.01740337 0.01682912 1000 1000 1000 0.01740628 0.01734895 0.01737621 0.01715889 0.01683606 1000 0.01740628 0.01734895 0.01737621 0.01715889 0.01683606 1000
lala 20 0.009375 0 second 13 1 311 4 2.873124 0.61999773979187 0 1 -1 1 0.01803334 0.01908484 0.01990058 0.01962884 0.01907639 1000 0.01803334 0.01908484 0.01990058 0.01962884 0.01907639 1000 0.01568893 0.01544499 0.01640693 0.01741939 0.01731374 1000 0.01568893 0.01544499 0.01640693 0.01741939 0.01731374 1000
lala 25 0.6 0 second 8 1 312 5 3 0.599997758865356 1 0 -1 0 0.01698945 0.01699034 0.01694372 0.01686283 0.01698842 1000 0.01698945 0.01699034 0.01694372 0.01686283 0.01698842 1000 0.01880257 0.01949902 0.01993112 0.02012761 0.0200544 1000 0.01880257 0.01949902 0.01993112 0.02012761 0.0200544 1000
lala 16 0.15 0 first 9 1 313 5 2.75 0.479997873306274 1 1 -1 1 0.01803407 0.01812374 0.01827001 1000 1000 1000 0.01803407 0.01812374 0.01827001 1000 1000 1000 0.01862861 0.01870662 0.01871637 0.01891832 0.01922121 1000 0.01862861 0.01870662 0.01871637 0.01891832 0.01922121 1000
lala 17 0.075 1 first 1 1 314 4 5.845 0.559997797012329 -1 1 1 0 0.02019323 0.02029696 0.02063107 1000 1000 1000 0.02019323 0.02029696 0.02063107 1000 1000 1000 0.02036822 0.02048316 0.02052743 0.02066468 0.02126997 1000 0.02036822 0.02048316 0.02052743 0.02066468 0.02126997 1000
lala 17 0.3 0 second 5 1 315 6 4.680001 0.659997701644897 -1 1 -1 0 0.02195007 0.02197069 0.02176543 0.02190208 0.02212054 1000 0.02195007 0.02197069 0.02176543 0.02190208 0.02212054 1000 0.02165236 0.02115306 0.02129722 0.02173703 0.02235365 1000 0.02165236 0.02115306 0.02129722 0.02173703 0.02235365 1000
lala 22 0.075 1 second 2 1 316 5 4.275 0.639997720718384 -1 0 1 0 0.02257183 0.02264934 0.02284748 0.02282017 0.02280854 1000 0.02257183 0.02264934 0.02284748 0.02282017 0.02280854 1000 0.02360648 0.02349142 0.02389736 0.02438894 0.02444489 1000 0.02360648 0.02349142 0.02389736 0.02438894 0.02444489 1000
lala 25 0.00234375 0 first 17 1 317 6 2.626875 0.559997797012329 0 1 -1 1 0.02324007 0.02293186 0.02282746 1000 1000 1000 0.02324007 0.02293186 0.02282746 1000 1000 1000 0.0227293 0.02301949 0.02281843 0.02302026 0.02330805 1000 0.0227293 0.02301949 0.02281843 0.02302026 0.02330805 1000
lala 16 0.3 1 first 4 1 318 6 5.61 0.519997835159302 -1 0 1 0 0.02425209 0.02436987 0.02449659 1000 1000 1000 0.02425209 0.02436987 0.02449659 1000 1000 1000 0.02325887 0.02322568 0.02336114 0.02345694 0.02348801 1000 0.02325887 0.02322568 0.02336114 0.02345694 0.02348801 1000
lala 23 0.15 1 first 2 1 319 5 4.125 0.99999737739563 -1 0 1 0 0.02388058 0.02364789 0.02384476 1000 1000 1000 0.02388058 0.02364789 0.02384476 1000 1000 1000 0.02374473 0.02371975 0.02430263 0.02470107 0.02505382 1000 0.02374473 0.02371975 0.02430263 0.02470107 0.02505382 1000
lala 20 0.15 1 second 3 1 320 5 5.15 0.679997682571411 -1 1 1 1 0.01636734 0.01725124 0.01733051 0.01726822 0.01759223 1000 0.01636734 0.01725124 0.01733051 0.01726822 0.01759223 1000 0.0200948 0.02017707 0.02033399 0.02025887 0.01978833 1000 0.0200948 0.02017707 0.02033399 0.02025887 0.01978833 1000
lala 26 0.6 1 first 8 1 321 5 3.6 0.539997816085815 1 0 1 1 0.01981212 0.01983774 0.01961383 1000 1000 1000 0.01981212 0.01983774 0.01961383 1000 1000 1000 0.01899224 0.0188964 0.01903656 0.01928718 0.019536 1000 0.01899224 0.0188964 0.01903656 0.01928718 0.019536 1000
lala 14 0.075 0 second 7 1 322 4 2.295 0.439997911453247 1 1 -1 0 0.01736649 0.01772655 0.0180754 0.01850607 0.01839224 1000 0.01736649 0.01772655 0.0180754 0.01850607 0.01839224 1000 0.01769104 0.01805866 0.01820302 0.01838923 0.01830447 1000 0.01769104 0.01805866 0.01820302 0.01838923 0.01830447 1000
lala 21 0.3 1 second 3 1 323 5 4.849999 0.61999773979187 -1 1 1 0 0.01885599 0.01932845 0.0194707 0.01963219 0.01958871 1000 0.01885599 0.01932845 0.0194707 0.01963219 0.01958871 1000 0.01841195 0.01845334 0.01876502 0.01891909 0.01884736 1000 0.01841195 0.01845334 0.01876502 0.01891909 0.01884736 1000
lala 27 0.3 1 first 8 1 324 5 3.3 0.559997797012329 1 0 1 0 0.01789925 0.01789569 0.01803387 1000 1000 1000 0.01789925 0.01789569 0.01803387 1000 1000 1000 0.01882178 0.0190006 0.01902564 0.01912999 0.01907861 1000 0.01882178 0.0190006 0.01902564 0.01912999 0.01907861 1000
lala 17 0.0375 1 second 6 1 325 4 4.4025 0.599997758865356 1 0 1 1 0.01536256 0.01517261 0.01553438 0.0157109 0.0158432 1000 0.01536256 0.01517261 0.01553438 0.0157109 0.0158432 1000 0.01225745 0.01016823 0.01013143 0.01063703 0.01389361 1000 0.01225745 0.01016823 0.01013143 0.01063703 0.01389361 1000
lala 18 0.15 0 second 5 1 326 6 4.830001 0.679997682571411 -1 1 -1 1 0.01118649 0.01031226 0.01054235 0.01067253 0.01099208 1000 0.01118649 0.01031226 0.01054235 0.01067253 0.01099208 1000 0.009622446 0.009516595 0.009562829 0.009388771 0.008236048 1000 0.009622446 0.009516595 0.009562829 0.009388771 0.008236048 1000
lala 17 0.075 1 first 9 1 327 5 2.825 2.07999658584595 1 1 1 0 0.007069484 0.00769849 0.00863918 1000 1000 1000 0.007069484 0.00769849 0.00863918 1000 1000 1000 0.00987571 0.009591668 0.008929768 0.008668119 0.009218367 1000 0.00987571 0.009591668 0.008929768 0.008668119 0.009218367 1000
lala 18 0.15 1 first 1 1 328 4 5.695 0.539997816085815 -1 1 1 1 0.01167378 0.01201557 0.01266701 1000 1000 1000 0.01167378 0.01201557 0.01266701 1000 1000 1000 0.01130159 0.0119096 0.01239109 0.01243529 0.01243097 1000 0.01130159 0.0119096 0.01239109 0.01243529 0.01243097 1000
lala 22 0.6 1 second 3 1 329 5 4.25 0.739997625350952 -1 1 1 0 0.01211201 0.01238163 0.01227203 0.01212637 0.01211717 1000 0.01211201 0.01238163 0.01227203 0.01212637 0.01211717 1000 0.01254306 0.01279348 0.01308165 0.01351645 0.01410244 1000 0.01254306 0.01279348 0.01308165 0.01351645 0.01410244 1000
lala 11 2.4 0 first 16 1 330 6 6.78 0.379997968673706 0 0 -1 1 0.01320127 0.01316393 0.01292568 1000 1000 1000 0.01320127 0.01316393 0.01292568 1000 1000 1000 0.01333001 0.01320409 0.01340892 0.0138274 0.01412472 1000 0.01333001 0.01320409 0.01340892 0.0138274 0.01412472 1000
lala 28 0.3 1 first 8 1 331 5 3 0.519997835159302 1 0 1 0 0.01407748 0.01400144 0.01390834 1000 1000 1000 0.01407748 0.01400144 0.01390834 1000 1000 1000 0.01326675 0.01326517 0.01320251 0.01317871 0.01339142 1000 0.01326675 0.01326517 0.01320251 0.01317871 0.01339142 1000
lala 12 0.3 1 first 14 1 332 5 3.15 0.559997797012329 0 0 1 0 0.01389727 0.01332112 0.0119141 1000 1000 1000 0.01389727 0.01332112 0.0119141 1000 1000 1000 0.01375355 0.01326436 0.01342934 0.01373559 0.01375596 1000 0.01375355 0.01326436 0.01342934 0.01373559 0.01375596 1000
lala 24 0.3 0 first 2 1 333 5 3.825 0.599997758865356 -1 0 -1 1 0.01358291 0.01326154 0.01336119 1000 1000 1000 0.01358291 0.01326154 0.01336119 1000 1000 1000 0.01473185 0.01546195 0.01559197 0.01542781 0.01460674 1000 0.01473185 0.01546195 0.01559197 0.01542781 0.01460674 1000
lala 23 1.2 0 first 3 1 334 5 3.049999 0.499997854232788 -1 1 -1 0 0.01324625 0.01322062 0.01322058 1000 1000 1000 0.01324625 0.01322062 0.01322058 1000 1000 1000 0.01477056 0.01486099 0.01465601 0.01452752 0.01487524 1000 0.01477056 0.01486099 0.01465601 0.01452752 0.01487524 1000
lala 25 0.15 0 first 2 1 335 5 3.975 0.499997854232788 -1 0 -1 0 0.01289414 0.01258969 0.01283581 1000 1000 1000 0.01289414 0.01258969 0.01283581 1000 1000 1000 0.01447827 0.01485556 0.01514882 0.01540341 0.01578277 1000 0.01447827 0.01485556 0.01514882 0.01540341 0.01578277 1000
