subject PestNr Step_Size_OnTrial Pest_Faster Pest_Interval Condition block trial velH velH_Pest Reaction_Time velH_Subject Start_Above Response_MotionEstimation RightOrLeftxRotations_first0 xRotations_first1 xRotations_first2 xRotations_first3 xRotations_first4 xRotations_first5 yRotations_first0 yRotations_first1 yRotations_first2 yRotations_first3 yRotations_first4 yRotations_first5 xRotations_second0 xRotations_second1 xRotations_second2 xRotations_second3 xRotations_second4 xRotations_second5 yRotations_second0 yRotations_second1 yRotations_second2 yRotations_second3 yRotations_second4 yRotations_second5
lala 1 1.2 1 first 10 1 1 6 3.96 1.59999680519104 1 0 1 1 -0.01376493 -0.008849259 -3.170099E-05 0.00320471 0.004234521 0.003771611 -0.01376493 -0.008849259 -3.170099E-05 0.00320471 0.004234521 0.003771611 0.003028278 0.002902953 0.003043699 0.002732117 0.002660261 1000 0.003028278 0.002902953 0.003043699 0.002732117 0.002660261 1000
lala 1 1.2 0 first 17 1 2 6 7.98 1.29999709129334 0 1 -1 1 0.000422087 0.0005532572 0.0009898476 1000 1000 1000 0.000422087 0.0005532572 0.0009898476 1000 1000 1000 0.002045341 0.00250464 0.002788457 0.002647788 0.002307849 1000 0.002045341 0.00250464 0.002788457 0.002647788 0.002307849 1000
lala 2 1.2 1 first 10 1 3 6 2.76 1.29999709129334 1 0 1 1 -0.0006348944 -0.0003945568 0.0001508148 1000 1000 1000 -0.0006348944 -0.0003945568 0.0001508148 1000 1000 1000 0.0003752095 0.0007699303 0.0009911605 0.0004239132 7.713361E-05 1000 0.0003752095 0.0007699303 0.0009911605 0.0004239132 7.713361E-05 1000
lala 1 1.2 0 first 16 1 4 6 3.96 0.799997568130493 0 0 -1 1 -0.00202245 -0.001369206 -0.00167072 1000 1000 1000 -0.00202245 -0.001369206 -0.00167072 1000 1000 1000 -0.0008869801 -0.0006148788 -0.0008390607 -0.001343905 -0.00164165 1000 -0.0008869801 -0.0006148788 -0.0008390607 -0.001343905 -0.00164165 1000
lala 1 1.2 1 first 4 1 5 6 3.96 1.69999694824219 -1 0 1 1 -0.002506045 -0.002580254 -0.002537855 1000 1000 1000 -0.002506045 -0.002580254 -0.002537855 1000 1000 1000 -0.0004070578 7.649906E-05 0.000361559 0.00013643 -3.814242E-05 1000 -0.0004070578 7.649906E-05 0.000361559 0.00013643 -3.814242E-05 1000
lala 1 1.2 1 first 5 1 6 6 7.98 0.759997606277466 -1 1 1 1 0.000145444 0.0007522019 0.000708128 1000 1000 1000 0.000145444 0.0007522019 0.000708128 1000 1000 1000 0.002398432 0.002270101 0.002274705 0.002758841 0.002707027 1000 0.002398432 0.002270101 0.002274705 0.002758841 0.002707027 1000
lala 1 1.2 0 first 14 1 7 5 3.3 0.739997625350952 0 0 -1 1 0.002874358 0.00322963 0.002943045 1000 1000 1000 0.002874358 0.00322963 0.002943045 1000 1000 1000 0.003170033 0.003290425 0.003514084 0.003104204 0.003133112 1000 0.003170033 0.003290425 0.003514084 0.003104204 0.003133112 1000
lala 1 1.2 0 first 2 1 8 5 3.3 0.979997396469116 -1 0 -1 0 0.002112572 0.002056787 0.00236236 1000 1000 1000 0.002112572 0.002056787 0.00236236 1000 1000 1000 0.004018236 0.003721348 0.00345583 0.003446748 0.003953891 1000 0.004018236 0.003721348 0.00345583 0.003446748 0.003953891 1000
lala 1 1.2 1 first 12 1 9 4 2.64 0.579997777938843 0 0 1 0 0.004144185 0.004261175 0.003862955 1000 1000 1000 0.004144185 0.004261175 0.003862955 1000 1000 1000 0.004751693 0.005106436 0.004905401 0.004903801 0.004671352 1000 0.004751693 0.005106436 0.004905401 0.004903801 0.004671352 1000
lala 1 1.2 1 second 11 1 10 6 7.98 0.699997663497925 1 1 1 0 0.004649433 0.005071138 0.005706915 0.006567682 0.006406035 1000 0.004649433 0.005071138 0.005706915 0.006567682 0.006406035 1000 0.005078167 0.00492166 0.005235633 0.005053116 0.005525256 1000 0.005078167 0.00492166 0.005235633 0.005053116 0.005525256 1000
lala 1 1.2 1 first 9 1 11 5 6.65 0.559997797012329 1 1 1 0 0.005279399 0.005366907 0.005187626 1000 1000 1000 0.005279399 0.005366907 0.005187626 1000 1000 1000 0.005803349 0.005682291 0.005676095 0.005279875 0.005030328 1000 0.005803349 0.005682291 0.005676095 0.005279875 0.005030328 1000
lala 2 1.2 1 second 5 1 12 6 6.780001 0.559997797012329 -1 1 1 0 0.005454795 0.005359403 0.005707332 0.005843559 0.005748046 1000 0.005454795 0.005359403 0.005707332 0.005843559 0.005748046 1000 0.005565362 0.005553887 0.005761835 0.006244031 0.005597864 1000 0.005565362 0.005553887 0.005761835 0.006244031 0.005597864 1000
lala 2 1.2 0 first 12 1 13 4 1.44 0.959997415542603 0 0 -1 1 0.005355345 0.005676338 0.005153517 1000 1000 1000 0.005355345 0.005676338 0.005153517 1000 1000 1000 0.00714632 0.00735607 0.00731144 0.007242372 0.00749543 1000 0.00714632 0.00735607 0.00731144 0.007242372 0.00749543 1000
lala 2 1.2 1 second 17 1 14 6 9.18 0.819997549057007 0 1 1 1 0.007269197 0.007685732 0.007973819 0.006993548 0.006961333 1000 0.007269197 0.007685732 0.007973819 0.006993548 0.006961333 1000 0.007872215 0.008052099 0.008150397 0.007531593 0.00735556 1000 0.007872215 0.008052099 0.008150397 0.007531593 0.00735556 1000
lala 2 1.2 1 first 14 1 15 5 4.5 0.859997510910034 0 0 1 1 0.008119185 0.008284095 0.008303955 1000 1000 1000 0.008119185 0.008284095 0.008303955 1000 1000 1000 0.009359103 0.009335826 0.009120856 0.008943231 0.009182762 1000 0.009359103 0.009335826 0.009120856 0.008943231 0.009182762 1000
lala 1 1.2 0 second 0 1 16 4 2.64 0.779997587203979 -1 0 -1 0 0.008640992 0.00845727 0.008622187 0.008631763 0.009583214 1000 0.008640992 0.00845727 0.008622187 0.008631763 0.009583214 1000 0.01011488 0.01034567 0.01058293 0.0102773 0.01047892 1000 0.01011488 0.01034567 0.01058293 0.0102773 0.01047892 1000
lala 2 1.2 1 first 11 1 17 6 6.780001 1.13999724388123 1 1 1 1 0.01049299 0.01044248 0.01091501 1000 1000 1000 0.01049299 0.01044248 0.01091501 1000 1000 1000 0.01177265 0.01174695 0.01177926 0.01181289 0.01196166 1000 0.01177265 0.01174695 0.01177926 0.01181289 0.01196166 1000
lala 1 1.2 0 first 3 1 18 5 6.65 0.779997587203979 -1 1 -1 1 0.01134876 0.01186826 0.0124466 1000 1000 1000 0.01134876 0.01186826 0.0124466 1000 1000 1000 0.01289642 0.013211 0.01346695 0.01348713 0.01357222 1000 0.01289642 0.013211 0.01346695 0.01348713 0.01357222 1000
lala 3 1.2 0 first 14 1 19 5 3.3 1.95999670028687 0 0 -1 0 0.01355292 0.01341383 0.01335856 1000 1000 1000 0.01355292 0.01341383 0.01335856 1000 1000 1000 0.01489567 0.01514831 0.01508725 0.01519238 0.01511196 1000 0.01489567 0.01514831 0.01508725 0.01519238 0.01511196 1000
lala 4 1.2 0 second 14 1 20 5 4.5 0.919997453689575 0 0 -1 1 0.01693576 0.01746961 0.01725694 0.0172629 0.01769384 1000 0.01693576 0.01746961 0.01725694 0.0172629 0.01769384 1000 0.01966283 0.01974249 0.01869753 0.01795835 0.01823006 1000 0.01966283 0.01974249 0.01869753 0.01795835 0.01823006 1000
lala 1 1.2 1 first 15 1 21 5 6.65 1.15999722480774 0 1 1 1 0.01856448 0.01835992 0.01833042 1000 1000 1000 0.01856448 0.01835992 0.01833042 1000 1000 1000 0.02025848 0.01980482 0.01974825 0.01960234 0.01910105 1000 0.02025848 0.01980482 0.01974825 0.01960234 0.01910105 1000
lala 3 1.2 1 second 17 1 22 6 7.98 0.539997816085815 0 1 1 1 0.01923397 0.01968959 0.01937496 0.01936842 0.01967247 1000 0.01923397 0.01968959 0.01937496 0.01936842 0.01967247 1000 0.0202552 0.02039521 0.02021023 0.0197977 0.02011995 1000 0.0202552 0.02039521 0.02021023 0.0197977 0.02011995 1000
lala 2 1.2 1 first 2 1 23 5 4.5 1.01999735832214 -1 0 1 1 0.01982882 0.01975121 0.02008481 1000 1000 1000 0.01982882 0.01975121 0.02008481 1000 1000 1000 0.02259177 0.02239936 0.02219868 0.02194095 0.02177998 1000 0.02259177 0.02239936 0.02219868 0.02194095 0.02177998 1000
lala 5 1.2 1 first 14 1 24 5 5.7 1.59999680519104 0 0 1 1 0.02161842 0.02191347 0.02249936 1000 1000 1000 0.02161842 0.02191347 0.02249936 1000 1000 1000 0.02382364 0.02382182 0.02371868 0.02324034 0.02311294 1000 0.02382364 0.02382182 0.02371868 0.02324034 0.02311294 1000
lala 6 1.2 1 second 14 1 25 5 4.5 1.49999690055847 0 0 1 1 0.02383569 0.02455518 0.0245757 0.0248453 0.02542089 1000 0.02383569 0.02455518 0.0245757 0.0248453 0.02542089 1000 0.01696205 0.01971605 0.0224015 0.02271549 0.02122036 1000 0.01696205 0.01971605 0.0224015 0.02271549 0.02122036 1000
lala 4 1.2 1 second 17 1 26 6 6.780001 0.639997720718384 0 1 1 0 0.02401882 0.02408824 0.02466516 0.02482277 0.02414083 1000 0.02401882 0.02408824 0.02466516 0.02482277 0.02414083 1000 0.02394543 0.02385039 0.0240606 0.02377409 0.02324196 1000 0.02394543 0.02385039 0.0240606 0.02377409 0.02324196 1000
lala 1 1.2 1 first 8 1 27 5 3.3 0.759997606277466 1 0 1 0 0.02329611 0.02369078 0.02393182 1000 1000 1000 0.02329611 0.02369078 0.02393182 1000 1000 1000 0.02374167 0.0237112 0.02376072 0.02347561 0.02316438 1000 0.02374167 0.0237112 0.02376072 0.02347561 0.02316438 1000
lala 2 1.2 1 second 0 1 28 4 3.84 1.0999972820282 -1 0 1 1 0.02359056 0.02366446 0.02399271 0.02377613 0.02375634 1000 0.02359056 0.02366446 0.02399271 0.02377613 0.02375634 1000 0.02375945 0.0232133 0.02370756 0.02307433 0.02304725 1000 0.02375945 0.0232133 0.02370756 0.02307433 0.02304725 1000
lala 2 1.2 0 second 15 1 29 5 5.45 0.859997510910034 0 1 -1 1 0.02370066 0.02383729 0.02420164 0.02370804 0.02346883 1000 0.02370066 0.02383729 0.02420164 0.02370804 0.02346883 1000 0.02304051 0.02280092 0.02345629 0.02274047 0.02263105 1000 0.02304051 0.02280092 0.02345629 0.02274047 0.02263105 1000
lala 1 1.2 0 first 6 1 30 4 2.64 2.13999652862549 1 0 -1 1 0.02275615 0.02251785 0.02248754 1000 1000 1000 0.02275615 0.02251785 0.02248754 1000 1000 1000 0.0227737 0.02292897 0.02260891 0.02276054 0.02275289 1000 0.0227737 0.02292897 0.02260891 0.02276054 0.02275289 1000
lala 3 1.2 0 first 0 1 31 4 2.64 1.8599967956543 -1 0 -1 1 0.02317899 0.02369568 0.02336215 1000 1000 1000 0.02317899 0.02369568 0.02336215 1000 1000 1000 0.02360727 0.02379825 0.02398362 0.02415514 0.0240412 1000 0.02360727 0.02379825 0.02398362 0.02415514 0.0240412 1000
lala 3 1.2 1 first 12 1 32 4 2.64 0.959997415542603 0 0 1 0 0.02249391 0.0224863 0.02274719 1000 1000 1000 0.02249391 0.0224863 0.02274719 1000 1000 1000 0.02398576 0.02448391 0.02380564 0.02373529 0.02295588 1000 0.02398576 0.02448391 0.02380564 0.02373529 0.02295588 1000
lala 2 1.2 0 second 8 1 33 5 2.1 0.659997701644897 1 0 -1 1 0.02454436 0.02418127 0.02576756 0.02551207 0.02492445 1000 0.02454436 0.02418127 0.02576756 0.02551207 0.02492445 1000 0.01886859 0.01899652 0.01949382 0.0192839 0.01884822 1000 0.01886859 0.01899652 0.01949382 0.0192839 0.01884822 1000
lala 2 1.2 0 first 16 1 34 6 5.16 0.979997396469116 0 0 -1 0 0.01884804 0.01904981 0.01900758 1000 1000 1000 0.01884804 0.01904981 0.01900758 1000 1000 1000 0.02013716 0.01998162 0.01955905 0.01970261 0.01938247 1000 0.02013716 0.01998162 0.01955905 0.01970261 0.01938247 1000
lala 3 1.2 0 second 11 1 35 6 5.580001 1.01999735832214 1 1 -1 0 0.01783752 0.01801334 0.0180713 0.01784828 0.01808108 1000 0.01783752 0.01801334 0.0180713 0.01784828 0.01808108 1000 0.01979425 0.01965676 0.01933628 0.01918673 0.01980094 1000 0.01979425 0.01965676 0.01933628 0.01918673 0.01980094 1000
lala 4 1.2 0 second 12 1 36 4 1.44 0.99999737739563 0 0 -1 0 0.01834439 0.01840178 0.0186627 0.01874481 0.01901284 1000 0.01834439 0.01840178 0.0186627 0.01874481 0.01901284 1000 0.01916217 0.01950763 0.01970672 0.01969012 0.02010256 1000 0.01916217 0.01950763 0.01970672 0.01969012 0.02010256 1000
lala 4 1.2 1 first 0 1 37 4 3.84 1.03999733924866 -1 0 1 1 0.01883764 0.01805274 0.01829739 1000 1000 1000 0.01883764 0.01805274 0.01829739 1000 1000 1000 0.02000879 0.01994581 0.02004508 0.02004469 0.02031405 1000 0.02000879 0.01994581 0.02004508 0.02004469 0.02031405 1000
lala 2 1.2 0 first 6 1 38 4 3.84 1.49999690055847 1 0 -1 1 0.01845939 0.0186632 0.01876859 1000 1000 1000 0.01845939 0.0186632 0.01876859 1000 1000 1000 0.01839936 0.01831702 0.01847476 0.01837024 0.01796728 1000 0.01839936 0.01831702 0.01847476 0.01837024 0.01796728 1000
lala 5 1.2 0 second 12 1 39 4 2.64 0.719997644424438 0 0 -1 1 0.01780716 0.01802803 0.01859223 0.01841504 0.0178295 1000 0.01780716 0.01802803 0.01859223 0.01841504 0.0178295 1000 0.01796365 0.01794586 0.01767045 0.0168231 0.01682011 1000 0.01796365 0.01794586 0.01767045 0.0168231 0.01682011 1000
lala 3 1.2 0 first 15 1 40 5 6.65 1.69999694824219 0 1 -1 0 0.01649554 0.01665945 0.01665621 1000 1000 1000 0.01649554 0.01665945 0.01665621 1000 1000 1000 0.01745575 0.01768935 0.01750064 0.01712687 0.01744196 1000 0.01745575 0.01768935 0.01750064 0.01712687 0.01744196 1000
lala 3 1.2 1 second 8 1 41 5 3.3 1.43999695777893 1 0 1 0 0.01641645 0.01692393 0.01690202 0.01689404 0.01703518 1000 0.01641645 0.01692393 0.01690202 0.01689404 0.01703518 1000 0.01735243 0.01748243 0.01746239 0.01738216 0.01691509 1000 0.01735243 0.01748243 0.01746239 0.01738216 0.01691509 1000
lala 2 1.2 0 first 3 1 42 5 7.85 1.33999705314636 -1 1 -1 0 0.01697206 0.01679888 0.01689754 1000 1000 1000 0.01697206 0.01679888 0.01689754 1000 1000 1000 0.01641577 0.01630363 0.01600256 0.01597343 0.01591759 1000 0.01641577 0.01630363 0.01600256 0.01597343 0.01591759 1000
lala 3 1.2 0 first 2 1 43 5 3.3 1.27999711036682 -1 0 -1 1 0.01536907 0.01575018 0.01554433 1000 1000 1000 0.01536907 0.01575018 0.01554433 1000 1000 1000 0.01500855 0.01498861 0.014331 0.01363663 0.01321359 1000 0.01500855 0.01498861 0.014331 0.01363663 0.01321359 1000
lala 2 1.2 0 second 4 1 44 6 2.76 1.49999690055847 -1 0 -1 0 0.01364367 0.01352405 0.01351193 0.01327487 0.0130925 1000 0.01364367 0.01352405 0.01351193 0.01327487 0.0130925 1000 0.01211711 0.011831 0.01164829 0.01167689 0.01168163 1000 0.01211711 0.011831 0.01164829 0.01167689 0.01168163 1000
lala 4 1.2 1 first 8 1 45 5 2.1 2.41999626159668 1 0 1 1 0.01327472 0.01310482 0.01265739 1000 1000 1000 0.01327472 0.01310482 0.01265739 1000 1000 1000 0.01228448 0.01231826 0.01209316 0.01228721 0.0125326 1000 0.01228448 0.01231826 0.01209316 0.01228721 0.0125326 1000
lala 3 1.2 0 second 10 1 46 6 1.98 1.03999733924866 1 0 -1 0 0.01194083 0.01273306 0.01282059 0.01246947 0.01244789 1000 0.01194083 0.01273306 0.01282059 0.01246947 0.01244789 1000 0.01355233 0.01430969 0.01442473 0.01443875 0.01396841 1000 0.01355233 0.01430969 0.01442473 0.01443875 0.01396841 1000
lala 3 1.2 1 second 5 1 47 6 5.580001 1.01999735832214 -1 1 1 0 0.0116388 0.01193987 0.01168203 0.01191091 0.01199004 1000 0.0116388 0.01193987 0.01168203 0.01191091 0.01199004 1000 0.01368891 0.01391356 0.01356696 0.01331601 0.01279044 1000 0.01368891 0.01391356 0.01356696 0.01331601 0.01279044 1000
lala 2 1.2 1 first 9 1 48 5 5.45 1.07999730110168 1 1 1 1 0.01225375 0.01259243 0.01276605 1000 1000 1000 0.01225375 0.01259243 0.01276605 1000 1000 1000 0.01319722 0.01354538 0.01330425 0.01258114 0.01225359 1000 0.01319722 0.01354538 0.01330425 0.01258114 0.01225359 1000
lala 4 1.2 1 first 11 1 49 6 6.780001 0.819997549057007 1 1 1 0 0.01176114 0.0117896 0.01177913 1000 1000 1000 0.01176114 0.0117896 0.01177913 1000 1000 1000 0.0124396 0.01271163 0.01285788 0.01284256 0.01245327 1000 0.0124396 0.01271163 0.01285788 0.01284256 0.01245327 1000
lala 3 1.2 1 second 6 1 50 4 5.04 0.479997873306274 1 0 1 1 0.01777275 0.01778915 0.01848726 0.01783817 0.01703884 1000 0.01777275 0.01778915 0.01848726 0.01783817 0.01703884 1000 0.01069727 0.009295233 0.008470781 0.007247312 0.007155739 1000 0.01069727 0.009295233 0.008470781 0.007247312 0.007155739 1000
lala 5 1.2 1 first 8 1 51 5 1.65 0.939997434616089 1 0 1 1 0.004198908 0.003888264 0.004105842 1000 1000 1000 0.004198908 0.003888264 0.004105842 1000 1000 1000 0.002430267 0.002624117 0.002433351 0.002220982 0.001895868 1000 0.002430267 0.002624117 0.002433351 0.002220982 0.001895868 1000
lala 3 1.2 1 second 9 1 52 5 4.25 0.479997873306274 1 1 1 1 -0.002545684 -0.002581879 -0.002312759 -0.002301198 -0.003100485 1000 -0.002545684 -0.002581879 -0.002312759 -0.002301198 -0.003100485 1000 -0.004059163 -0.004155582 -0.003919288 -0.004106654 -0.004392562 1000 -0.004059163 -0.004155582 -0.003919288 -0.004106654 -0.004392562 1000
lala 4 1.2 0 second 6 1 53 4 3.84 0.759997606277466 1 0 -1 0 -0.006399605 -0.006382168 -0.006220527 -0.006126293 -0.006345564 1000 -0.006399605 -0.006382168 -0.006220527 -0.006126293 -0.006345564 1000 -0.007117289 -0.00743705 -0.007039132 -0.007501249 -0.007864719 1000 -0.007117289 -0.00743705 -0.007039132 -0.007501249 -0.007864719 1000
lala 3 1.2 0 first 16 1 54 6 6.36 1.0999972820282 0 0 -1 0 -0.00719692 -0.007018302 -0.00722256 1000 1000 1000 -0.00719692 -0.007018302 -0.00722256 1000 1000 1000 -0.008492113 -0.007912477 -0.007491203 -0.00782765 -0.008694198 1000 -0.008492113 -0.007912477 -0.007491203 -0.00782765 -0.008694198 1000
lala 4 1.2 0 first 5 1 55 6 4.380001 1.43999695777893 -1 1 -1 1 -0.01087127 -0.01101664 -0.01093068 1000 1000 1000 -0.01087127 -0.01101664 -0.01093068 1000 1000 1000 -0.009483013 -0.009690214 -0.01084695 -0.01169489 -0.01191118 1000 -0.009483013 -0.009690214 -0.01084695 -0.01169489 -0.01191118 1000
lala 5 1.2 1 second 5 1 56 6 5.580001 1.05999732017517 -1 1 1 0 -0.01103901 -0.01086267 -0.01109702 -0.01139593 -0.01138044 1000 -0.01103901 -0.01086267 -0.01109702 -0.01139593 -0.01138044 1000 -0.01099946 -0.01078872 -0.01087966 -0.01054667 -0.01055986 1000 -0.01099946 -0.01078872 -0.01087966 -0.01054667 -0.01055986 1000
lala 7 1.2 0 first 14 1 57 5 3.3 1.25999712944031 0 0 -1 1 -0.01033586 -0.01058375 -0.01060032 1000 1000 1000 -0.01033586 -0.01058375 -0.01060032 1000 1000 1000 -0.009420406 -0.008951221 -0.008728592 -0.008617791 -0.008713513 1000 -0.009420406 -0.008951221 -0.008728592 -0.008617791 -0.008713513 1000
lala 5 1.2 0 first 17 1 58 6 5.580001 0.639997720718384 0 1 -1 0 -0.009133212 -0.009144284 -0.009753123 1000 1000 1000 -0.009133212 -0.009144284 -0.009753123 1000 1000 1000 -0.009671438 -0.009833342 -0.009181695 -0.009389535 -0.009591484 1000 -0.009671438 -0.009833342 -0.009181695 -0.009389535 -0.009591484 1000
lala 5 1.2 1 first 11 1 59 6 5.580001 1.11999726295471 1 1 1 1 -0.009404491 -0.008857633 -0.008687791 1000 1000 1000 -0.009404491 -0.008857633 -0.008687791 1000 1000 1000 -0.007825203 -0.008112772 -0.008270174 -0.008227854 -0.007166475 1000 -0.007825203 -0.008112772 -0.008270174 -0.008227854 -0.007166475 1000
lala 3 1.2 0 first 4 1 60 6 3.96 1.31999707221985 -1 0 -1 1 -0.007621107 -0.007730879 -0.008235158 1000 1000 1000 -0.007621107 -0.007730879 -0.008235158 1000 1000 1000 -0.007106455 -0.006634256 -0.006364846 -0.006857702 -0.006940577 1000 -0.007106455 -0.006634256 -0.006364846 -0.006857702 -0.006940577 1000
lala 4 1.2 1 second 2 1 61 5 4.5 0.919997453689575 -1 0 1 0 -0.005240332 -0.004739108 -0.004249326 -0.004769003 -0.004621307 1000 -0.005240332 -0.004739108 -0.004249326 -0.004769003 -0.004621307 1000 -0.005142555 -0.004826733 -0.004825091 -0.004648339 -0.004928237 1000 -0.005142555 -0.004826733 -0.004825091 -0.004648339 -0.004928237 1000
lala 3 1.2 1 second 3 1 62 5 9.05 0.739997625350952 -1 1 1 1 -0.003609568 -0.00339091 -0.003367519 -0.003422984 -0.003561281 1000 -0.003609568 -0.00339091 -0.003367519 -0.003422984 -0.003561281 1000 -0.003251292 -0.003192944 -0.00325431 -0.002809556 -0.003093777 1000 -0.003251292 -0.003192944 -0.00325431 -0.002809556 -0.003093777 1000
lala 1 1.2 1 second 13 1 63 4 5.32 1.05999732017517 0 1 1 0 -0.0008339477 -0.0008493685 -0.0005678168 -0.0004875696 -0.0006527924 1000 -0.0008339477 -0.0008493685 -0.0005678168 -0.0004875696 -0.0006527924 1000 -0.001676513 -0.001702168 -0.001378849 -0.001240374 -0.00152661 1000 -0.001676513 -0.001702168 -0.001378849 -0.001240374 -0.00152661 1000
lala 4 1.2 0 first 10 1 64 6 3.18 0.799997568130493 1 0 -1 1 -0.001706956 -0.002079654 -0.001982062 1000 1000 1000 -0.001706956 -0.002079654 -0.001982062 1000 1000 1000 -0.0004652238 -0.0003477743 -0.0005071447 -0.0007395106 -0.001220478 1000 -0.0004652238 -0.0003477743 -0.0005071447 -0.0007395106 -0.001220478 1000
lala 6 1.2 0 second 8 1 65 5 1.65 1.21999716758728 1 0 -1 1 0.0006683248 -5.105713E-06 -0.0005524023 2.114183E-05 0.0007250845 1000 0.0006683248 -5.105713E-06 -0.0005524023 2.114183E-05 0.0007250845 1000 0.001325764 0.001235528 0.001663618 0.00134178 0.0007349035 1000 0.001325764 0.001235528 0.001663618 0.00134178 0.0007349035 1000
lala 8 1.2 1 first 14 1 66 5 4.5 1.0999972820282 0 0 1 1 0.002283001 0.001822808 0.001012374 1000 1000 1000 0.002283001 0.001822808 0.001012374 1000 1000 1000 0.001726758 0.001860997 0.00212647 0.002114316 0.001776863 1000 0.001726758 0.001860997 0.00212647 0.002114316 0.001776863 1000
lala 4 1.2 1 first 15 1 67 5 7.849999 0.61999773979187 0 1 1 1 0.001814045 0.001887487 0.001692461 1000 1000 1000 0.001814045 0.001887487 0.001692461 1000 1000 1000 0.003313092 0.002893675 0.003003629 0.002741565 0.002650364 1000 0.003313092 0.002893675 0.003003629 0.002741565 0.002650364 1000
lala 6 1.2 1 first 17 1 68 6 6.780001 1.21999716758728 0 1 1 0 0.001731564 0.002053812 0.001760472 1000 1000 1000 0.001731564 0.002053812 0.001760472 1000 1000 1000 0.003600785 0.003000839 0.002834973 0.002644787 0.002700833 1000 0.003600785 0.003000839 0.002834973 0.002644787 0.002700833 1000
lala 4 1.2 0 second 9 1 69 5 3.05 0.879997491836548 1 1 -1 0 0.0008558159 0.0007506815 0.0007524955 0.0009692075 0.001113413 1000 0.0008558159 0.0007506815 0.0007524955 0.0009692075 0.001113413 1000 0.002952795 0.002576102 0.002384551 0.002324619 0.00309046 1000 0.002952795 0.002576102 0.002384551 0.002324619 0.00309046 1000
lala 5 1.2 1 second 2 1 70 5 3.3 2.17999649047852 -1 0 1 1 0.00236678 0.002589104 0.002521987 0.002506827 0.002773449 1000 0.00236678 0.002589104 0.002521987 0.002506827 0.002773449 1000 0.002771896 0.002632922 0.002388572 0.001881571 0.001710497 1000 0.002771896 0.002632922 0.002388572 0.001881571 0.001710497 1000
lala 5 1.2 1 second 10 1 71 6 4.38 1.29999709129334 1 0 1 0 0.002739626 0.003110232 0.003610204 0.003281206 0.002845629 1000 0.002739626 0.003110232 0.003610204 0.003281206 0.002845629 1000 0.003412924 0.003363538 0.003311575 0.003049662 0.002790768 1000 0.003412924 0.003363538 0.003311575 0.003049662 0.002790768 1000
lala 1 1.2 0 first 7 1 72 4 5.32 2.17999649047852 1 1 -1 1 0.002094685 0.002445813 0.003078311 1000 1000 1000 0.002094685 0.002445813 0.003078311 1000 1000 1000 0.001866295 0.002184983 0.002041362 0.0021741 0.002265408 1000 0.001866295 0.002184983 0.002041362 0.0021741 0.002265408 1000
lala 6 1.2 1 first 12 1 73 4 3.84 1.51999688148499 0 0 1 1 0.0009428762 0.0009366255 0.0004534716 1000 1000 1000 0.0009428762 0.0009366255 0.0004534716 1000 1000 1000 0.002441306 0.00226605 0.001934926 0.001967889 0.001849456 1000 0.002441306 0.00226605 0.001934926 0.001967889 0.001849456 1000
lala 5 1.2 1 first 9 1 74 5 4.25 2.27999639511108 1 1 1 0 0.00192464 0.002824878 0.003210267 1000 1000 1000 0.00192464 0.002824878 0.003210267 1000 1000 1000 0.002175746 0.001767773 0.001672516 0.001525025 0.001806784 1000 0.002175746 0.001767773 0.001672516 0.001525025 0.001806784 1000
lala 4 1.2 1 second 16 1 75 6 7.559999 0.899997472763062 0 0 1 0 -0.0006133429 -0.000318869 9.030021E-05 9.20508E-05 0.0001264061 1000 -0.0006133429 -0.000318869 9.030021E-05 9.20508E-05 0.0001264061 1000 -0.001037972 -0.0009897721 -0.001079425 -0.0008249654 -0.0005778598 1000 -0.001037972 -0.0009897721 -0.001079425 -0.0008249654 -0.0005778598 1000
lala 2 1.2 0 second 13 1 76 4 4.12 0.479997873306274 0 1 -1 0 -0.0010883 -0.001192027 -0.001444429 -0.001571412 -0.001187616 1000 -0.0010883 -0.001192027 -0.001444429 -0.001571412 -0.001187616 1000 -0.00148849 -0.001168421 -0.0008624433 -0.001277247 -0.001527769 1000 -0.00148849 -0.001168421 -0.0008624433 -0.001277247 -0.001527769 1000
lala 6 1.2 1 second 11 1 77 6 4.380001 1.83999681472778 1 1 1 0 -0.001556793 -0.001117852 -0.001114037 -0.001214492 -0.001224956 1000 -0.001556793 -0.001117852 -0.001114037 -0.001214492 -0.001224956 1000 -0.0001004548 0.0002749238 -4.020871E-05 5.67859E-05 0.0006373561 1000 -0.0001004548 0.0002749238 -4.020871E-05 5.67859E-05 0.0006373561 1000
lala 7 1.2 0 second 11 1 78 6 3.180001 0.639997720718384 1 1 -1 0 -0.001032488 -0.0009464903 -0.0003374092 -0.0003153289 0.0002626471 1000 -0.001032488 -0.0009464903 -0.0003374092 -0.0003153289 0.0002626471 1000 0.0004910101 0.0007928825 0.0008624467 0.0008424849 0.0004999175 1000 0.0004910101 0.0007928825 0.0008624467 0.0008424849 0.0004999175 1000
lala 5 1.2 1 second 15 1 79 5 6.65 0.479997873306274 0 1 1 0 -0.0004490737 -0.0004042575 4.595806E-05 -0.0009960696 -0.001882483 1000 -0.0004490737 -0.0004042575 4.595806E-05 -0.0009960696 -0.001882483 1000 -0.000186949 0.0001340585 -6.583703E-06 -0.0002888366 -0.0003391174 1000 -0.000186949 0.0001340585 -6.583703E-06 -0.0002888366 -0.0003391174 1000
lala 6 1.2 0 first 9 1 80 5 3.05 1.17999720573425 1 1 -1 1 -0.0006945578 -0.000109242 -0.0005256588 1000 1000 1000 -0.0006945578 -0.000109242 -0.0005256588 1000 1000 1000 -0.0007998985 -0.0004734671 -0.0008059454 -0.0007292617 -0.0007154358 1000 -0.0007998985 -0.0004734671 -0.0008059454 -0.0007292617 -0.0007154358 1000
lala 4 1.2 1 second 3 1 81 5 7.85 0.659997701644897 -1 1 1 1 -0.0002623458 -0.000368166 -0.0004466986 -0.0004209176 -0.0002491406 1000 -0.0002623458 -0.000368166 -0.0004466986 -0.0004209176 -0.0002491406 1000 0.0005409075 0.0004300362 0.0006352069 0.0007240621 0.0006267519 1000 0.0005409075 0.0004300362 0.0006352069 0.0007240621 0.0006267519 1000
lala 4 1.2 0 first 4 1 82 6 5.16 2.99999570846558 -1 0 -1 1 0.001785343 0.001940466 0.001457116 1000 1000 1000 0.001785343 0.001940466 0.001457116 1000 1000 1000 0.0006974573 0.0007964079 0.0005835515 9.398909E-05 0.0004681002 1000 0.0006974573 0.0007964079 0.0005835515 9.398909E-05 0.0004681002 1000
lala 6 1.2 0 second 2 1 83 5 2.1 1.43999695777893 -1 0 -1 1 0.001673148 0.001496863 0.001471746 0.001751333 0.002522272 1000 0.001673148 0.001496863 0.001471746 0.001751333 0.002522272 1000 0.002318436 0.002109389 0.002258028 0.002299116 0.002599094 1000 0.002318436 0.002109389 0.002258028 0.002299116 0.002599094 1000
lala 5 1.2 1 first 16 1 84 6 6.36 0.499997854232788 0 0 1 1 0.001321127 0.001356287 0.001382184 1000 1000 1000 0.001321127 0.001356287 0.001382184 1000 1000 1000 0.0007270813 0.0008086573 0.001038231 0.0009309304 0.001119411 1000 0.0007270813 0.0008086573 0.001038231 0.0009309304 0.001119411 1000
lala 6 1.2 1 first 16 1 85 6 5.16 1.07999730110168 0 0 1 0 -0.0006412986 -0.0007867896 -0.0005306932 1000 1000 1000 -0.0006412986 -0.0007867896 -0.0005306932 1000 1000 1000 0.0004028529 0.000778297 0.0006756781 0.0004375895 0.000427343 1000 0.0004028529 0.000778297 0.0006756781 0.0004375895 0.000427343 1000
lala 7 1.2 1 first 12 1 86 4 2.64 1.3999969959259 0 0 1 0 0.0003696499 0.001148985 0.001925192 1000 1000 1000 0.0003696499 0.001148985 0.001925192 1000 1000 1000 0.00114237 -0.0002032208 -0.001846741 -0.001719762 -0.001662956 1000 0.00114237 -0.0002032208 -0.001846741 -0.001719762 -0.001662956 1000
lala 7 1.2 1 second 16 1 87 6 3.96 1.59999680519104 0 0 1 1 -0.001728005 -0.001850789 -0.001495806 -0.00150643 -0.001043384 1000 -0.001728005 -0.001850789 -0.001495806 -0.00150643 -0.001043384 1000 -0.001294909 -0.001092731 -0.0009174747 -0.0005065543 -0.0009288319 1000 -0.001294909 -0.001092731 -0.0009174747 -0.0005065543 -0.0009288319 1000
lala 7 1.2 0 first 8 1 88 5 2.85 1.35999703407288 1 0 -1 1 -0.000132973 0.0001011019 -0.0002293137 1000 1000 1000 -0.000132973 0.0001011019 -0.0002293137 1000 1000 1000 0.0004657684 0.0007612708 0.0008628174 0.0009635875 0.0005493381 1000 0.0004657684 0.0007612708 0.0008628174 0.0009635875 0.0005493381 1000
lala 5 1.2 1 second 4 1 89 6 6.36 2.09999656677246 -1 0 1 0 -0.0003680897 -8.452588E-05 0.0001454888 0.0002982606 -0.0003701434 1000 -0.0003680897 -8.452588E-05 0.0001454888 0.0002982606 -0.0003701434 1000 0.0001264364 0.0005645543 0.001147638 0.001034737 0.001108447 1000 0.0001264364 0.0005645543 0.001147638 0.001034737 0.001108447 1000
lala 6 1.2 1 second 15 1 90 5 5.45 1.97999668121338 0 1 1 1 -0.0002562998 -0.0001154365 -0.0004493803 -0.0008862339 -0.0005047507 1000 -0.0002562998 -0.0001154365 -0.0004493803 -0.0008862339 -0.0005047507 1000 0.0002517096 0.0001563964 0.0002598292 0.0003022711 -1.532564E-05 1000 0.0002517096 0.0001563964 0.0002598292 0.0003022711 -1.532564E-05 1000
lala 1 1.2 1 second 1 1 91 4 5.32 0.739997625350952 -1 1 1 0 -0.0006871286 -0.0008087311 -0.0002710154 -0.0003666184 -0.0003908825 1000 -0.0006871286 -0.0008087311 -0.0002710154 -0.0003666184 -0.0003908825 1000 -0.001639983 -0.002059568 -0.002410533 -0.002330097 -0.001215311 1000 -0.001639983 -0.002059568 -0.002410533 -0.002330097 -0.001215311 1000
lala 8 1.2 0 first 16 1 92 6 2.76 1.31999707221985 0 0 -1 0 -0.0002707512 -0.0004777461 -0.0009230349 1000 1000 1000 -0.0002707512 -0.0004777461 -0.0009230349 1000 1000 1000 -0.0006039159 -0.0008580317 -0.001264356 -0.001206199 -0.001587998 1000 -0.0006039159 -0.0008580317 -0.001264356 -0.001206199 -0.001587998 1000
lala 9 1.2 0 second 14 1 93 5 3.3 1.15999722480774 0 0 -1 1 -0.002426388 -0.002120831 -0.002046214 -0.002286143 -0.00217914 1000 -0.002426388 -0.002120831 -0.002046214 -0.002286143 -0.00217914 1000 -0.001321727 -0.00163713 -0.001551071 -0.00199489 -0.002023008 1000 -0.001321727 -0.00163713 -0.001551071 -0.00199489 -0.002023008 1000
lala 6 1.2 1 first 5 1 94 6 4.380001 1.73999691009521 -1 1 1 1 -0.002557399 -0.002876232 -0.002808857 1000 1000 1000 -0.002557399 -0.002876232 -0.002808857 1000 1000 1000 -0.001978333 -0.001605663 -0.001623206 -0.001532314 -0.002200362 1000 -0.001978333 -0.001605663 -0.001623206 -0.001532314 -0.002200362 1000
lala 6 1.2 1 second 10 1 95 6 3.18 1.37999701499939 1 0 1 0 -0.0006297873 -0.0003667205 0.0001591703 -8.043204E-05 -0.0003619872 1000 -0.0006297873 -0.0003667205 0.0001591703 -8.043204E-05 -0.0003619872 1000 -0.002352752 -0.001902174 -0.001807394 -0.0017145 -0.001647175 1000 -0.002352752 -0.001902174 -0.001807394 -0.0017145 -0.001647175 1000
lala 7 1.2 0 second 17 1 96 6 5.580001 4.89999389648438 0 1 -1 1 0.001070695 0.0004487107 0.0005935601 0.000619311 0.0003753035 1000 0.001070695 0.0004487107 0.0005935601 0.000619311 0.0003753035 1000 -0.0004063924 -0.0002692129 -0.000118856 -0.0003586678 -0.0003383702 1000 -0.0004063924 -0.0002692129 -0.000118856 -0.0003586678 -0.0003383702 1000
lala 7 1.2 1 second 9 1 97 5 4.25 0.99999737739563 1 1 1 1 -0.002290332 -0.001854875 -0.001907903 -0.001960143 -0.001698557 1000 -0.002290332 -0.001854875 -0.001907903 -0.001960143 -0.001698557 1000 -0.001051734 -0.001303708 -0.001173684 -0.0006814605 -0.0002092823 1000 -0.001051734 -0.001303708 -0.001173684 -0.0006814605 -0.0002092823 1000
lala 8 1.2 0 first 9 1 98 5 3.05 0.959997415542603 1 1 -1 0 -0.001760003 -0.001848859 -0.001920389 1000 1000 1000 -0.001760003 -0.001848859 -0.001920389 1000 1000 1000 -0.003520399 -0.00352585 -0.003416139 -0.003499686 -0.003161895 1000 -0.003520399 -0.00352585 -0.003416139 -0.003499686 -0.003161895 1000
lala 8 1.2 0 second 12 1 99 4 1.44 1.17999720573425 0 0 -1 0 -0.01359036 -0.01329547 -0.01335906 -0.0129599 -0.01284784 1000 -0.01359036 -0.01329547 -0.01335906 -0.0129599 -0.01284784 1000 -0.0127505 -0.013264 -0.01360399 -0.01385513 -0.01410441 1000 -0.0127505 -0.013264 -0.01360399 -0.01385513 -0.01410441 1000
lala 5 1.2 1 second 6 1 100 4 5.04 2.03999662399292 1 0 1 1 0.003742973 0.003494223 0.002627521 0.002345867 0.001654089 1000 0.003742973 0.003494223 0.002627521 0.002345867 0.001654089 1000 -0.001192875 -0.002094569 -0.002288697 -0.002420644 -0.002858426 1000 -0.001192875 -0.002094569 -0.002288697 -0.002420644 -0.002858426 1000
lala 6 1.2 1 second 6 1 101 4 3.84 2.57999610900879 1 0 1 1 -0.0149763 -0.01710239 -0.02303947 -0.02624826 -0.02636187 1000 -0.0149763 -0.01710239 -0.02303947 -0.02624826 -0.02636187 1000 -0.0009911403 -0.0009239264 -0.0003485726 -0.001140282 -0.00350869 1000 -0.0009911403 -0.0009239264 -0.0003485726 -0.001140282 -0.00350869 1000
lala 2 1.2 1 second 7 1 102 4 6.52 0.599997758865356 1 1 1 1 -0.00623652 -0.006464371 -0.006786284 -0.006675724 -0.005988099 1000 -0.00623652 -0.006464371 -0.006786284 -0.006675724 -0.005988099 1000 -0.008728922 -0.008372765 -0.00877637 -0.009080535 -0.008745245 1000 -0.008728922 -0.008372765 -0.00877637 -0.009080535 -0.008745245 1000
lala 5 1.2 0 second 0 1 103 4 2.64 0.339998006820679 -1 0 -1 1 -0.01036645 -0.010392 -0.009773532 -0.009413331 -0.009242355 1000 -0.01036645 -0.010392 -0.009773532 -0.009413331 -0.009242355 1000 -0.01143909 -0.01092645 -0.01067093 -0.01093337 -0.01126475 1000 -0.01143909 -0.01092645 -0.01067093 -0.01093337 -0.01126475 1000
lala 7 1.2 1 first 10 1 104 6 1.98 1.17999720573425 1 0 1 0 -0.01018496 -0.009002292 -0.007475645 1000 1000 1000 -0.01018496 -0.009002292 -0.007475645 1000 1000 1000 -0.004117283 -0.004173099 -0.004652722 -0.00481054 -0.0046395 1000 -0.004117283 -0.004173099 -0.004652722 -0.00481054 -0.0046395 1000
lala 3 1.2 1 first 13 1 105 4 5.32 0.759997606277466 0 1 1 0 0.004101629 0.005993607 0.006037199 1000 1000 1000 0.004101629 0.005993607 0.006037199 1000 1000 1000 0.01836186 0.00423186 0.01127341 0.01234766 0.01385795 1000 0.01836186 0.00423186 0.01127341 0.01234766 0.01385795 1000
lala 6 1.2 0 first 0 1 106 4 3.84 1.25999712944031 -1 0 -1 1 0.01291811 0.012778 0.01234655 1000 1000 1000 0.01291811 0.012778 0.01234655 1000 1000 1000 0.0102323 0.01000795 0.00993995 0.009803794 0.01018075 1000 0.0102323 0.01000795 0.00993995 0.009803794 0.01018075 1000
lala 9 1.2 1 second 16 1 107 6 3.96 1.51999688148499 0 0 1 1 0.007832556 0.006945747 0.006928165 0.006871464 0.007293453 1000 0.007832556 0.006945747 0.006928165 0.006871464 0.007293453 1000 0.007181964 0.00735032 0.00737525 0.007467041 0.006965088 1000 0.007181964 0.00735032 0.00737525 0.007467041 0.006965088 1000
lala 4 1.2 0 second 13 1 108 4 4.12 0.639997720718384 0 1 -1 0 0.00648116 0.007380915 0.007970722 0.007964249 0.006690879 1000 0.00648116 0.007380915 0.007970722 0.007964249 0.006690879 1000 0.007205052 0.007843652 0.007511269 0.007305813 0.007091919 1000 0.007205052 0.007843652 0.007511269 0.007305813 0.007091919 1000
lala 3 1.2 0 first 7 1 109 4 5.320001 2.25999641418457 1 1 -1 0 0.006045374 0.005537617 0.005652588 1000 1000 1000 0.006045374 0.005537617 0.005652588 1000 1000 1000 0.005855539 0.00617353 0.006806965 0.006614669 0.006709059 1000 0.005855539 0.00617353 0.006806965 0.006614669 0.006709059 1000
lala 8 1.2 1 first 11 1 110 6 4.380001 2.07999658584595 1 1 1 0 0.003201481 0.003054838 0.002533307 1000 1000 1000 0.003201481 0.003054838 0.002533307 1000 1000 1000 0.003516016 0.003205014 0.003369376 0.003521675 0.003920919 1000 0.003516016 0.003205014 0.003369376 0.003521675 0.003920919 1000
lala 7 1.2 0 second 6 1 111 4 2.64 0.739997625350952 1 0 -1 0 0.003961785 0.004260422 0.004391214 0.003996802 0.00414192 1000 0.003961785 0.004260422 0.004391214 0.003996802 0.00414192 1000 0.004888801 0.005070261 0.004805241 0.004472862 0.00449562 1000 0.004888801 0.005070261 0.004805241 0.004472862 0.00449562 1000
lala 10 0.6 0 first 16 1 112 6 3.36 0.759997606277466 0 0 -1 0 0.005616591 0.005533907 0.005623489 1000 1000 1000 0.005616591 0.005533907 0.005623489 1000 1000 1000 0.004791862 0.004551243 0.004774054 0.004694114 0.004659992 1000 0.004791862 0.004551243 0.004774054 0.004694114 0.004659992 1000
lala 9 1.2 0 second 12 1 113 4 2.64 0.61999773979187 0 0 -1 0 0.007542931 0.007145798 0.008586785 0.008244948 0.008219372 1000 0.007542931 0.007145798 0.008586785 0.008244948 0.008219372 1000 0.006079906 0.005701211 0.005790417 0.00605918 0.006010711 1000 0.006079906 0.005701211 0.005790417 0.00605918 0.006010711 1000
lala 10 0.6 1 second 14 1 114 5 3.9 0.559997797012329 0 0 1 0 0.005924777 0.00602969 0.005984168 0.005696848 0.005842998 1000 0.005924777 0.00602969 0.005984168 0.005696848 0.005842998 1000 0.004544433 0.004550106 0.004609482 0.005140583 0.0053455 1000 0.004544433 0.004550106 0.004609482 0.005140583 0.0053455 1000
lala 7 1.2 0 first 5 1 115 6 3.180001 1.87999677658081 -1 1 -1 0 0.003861073 0.00395491 0.003706334 1000 1000 1000 0.003861073 0.00395491 0.003706334 1000 1000 1000 0.005046043 0.004727367 0.005076255 0.00511624 0.004609487 1000 0.005046043 0.004727367 0.005076255 0.00511624 0.004609487 1000
lala 6 1.2 0 first 4 1 116 6 5.16 1.51999688148499 -1 0 -1 1 0.004928912 0.004643531 0.005442469 1000 1000 1000 0.004928912 0.004643531 0.005442469 1000 1000 1000 0.00578974 0.005350018 0.005197112 0.005130457 0.005170277 1000 0.00578974 0.005350018 0.005197112 0.005130457 0.005170277 1000
lala 9 1.2 1 first 9 1 117 5 4.25 2.07999658584595 1 1 1 0 0.005037432 0.004828609 0.004213007 1000 1000 1000 0.005037432 0.004828609 0.004213007 1000 1000 1000 0.004305664 0.004248872 0.003909093 0.004076651 0.004198581 1000 0.004305664 0.004248872 0.003909093 0.004076651 0.004198581 1000
lala 11 0.3 0 first 16 1 118 6 3.66 1.5399968624115 0 0 -1 1 0.002993229 0.002899746 0.002852394 1000 1000 1000 0.002993229 0.002899746 0.002852394 1000 1000 1000 0.002909443 0.002880582 0.002406008 0.001952005 0.0009644484 1000 0.002909443 0.002880582 0.002406008 0.001952005 0.0009644484 1000
lala 5 1.2 1 first 3 1 119 5 6.650001 2.33999633789063 -1 1 1 1 0.001650327 0.001512616 0.001548379 1000 1000 1000 0.001650327 0.001512616 0.001548379 1000 1000 1000 0.00154212 0.0008868994 0.0005910767 0.0005295163 0.0007318776 1000 0.00154212 0.0008868994 0.0005910767 0.0005295163 0.0007318776 1000
lala 8 1.2 1 first 5 1 120 6 4.380001 1.57999682426453 -1 1 1 0 0.002028179 0.002204186 0.002206771 1000 1000 1000 0.002028179 0.002204186 0.002206771 1000 1000 1000 0.002275222 0.002255524 0.002179601 0.002310679 0.002152625 1000 0.002275222 0.002255524 0.002179601 0.002310679 0.002152625 1000
lala 9 1.2 1 second 5 1 121 6 3.180001 1.19999718666077 -1 1 1 0 0.002456765 0.00268079 0.00251211 0.002643301 0.002756653 1000 0.002456765 0.00268079 0.00251211 0.002643301 0.002756653 1000 0.002649078 0.002384026 0.002380713 0.002705253 0.002831493 1000 0.002649078 0.002384026 0.002380713 0.002705253 0.002831493 1000
lala 11 0.3 0 second 14 1 122 5 3.6 0.419997930526733 0 0 -1 0 0.002086988 0.002825466 0.003054978 0.002537796 0.002182528 1000 0.002086988 0.002825466 0.003054978 0.002537796 0.002182528 1000 0.002469564 0.00261322 0.00228072 0.002482133 0.003004046 1000 0.002469564 0.00261322 0.00228072 0.002482133 0.003004046 1000
lala 5 1.2 1 second 13 1 123 4 5.32 0.499997854232788 0 1 1 1 0.002028636 0.001810801 0.001942443 0.001811252 0.001783968 1000 0.002028636 0.001810801 0.001942443 0.001811252 0.001783968 1000 0.001783486 0.001975526 0.002079249 0.002011406 0.001725972 1000 0.001783486 0.001975526 0.002079249 0.002011406 0.001725972 1000
lala 6 1.2 1 second 3 1 124 5 5.450001 0.599997758865356 -1 1 1 0 0.001510257 0.001478049 0.001679161 0.001222517 0.0009367276 1000 0.001510257 0.001478049 0.001679161 0.001222517 0.0009367276 1000 0.001623523 0.001483153 0.002098789 0.00201248 0.001742618 1000 0.001623523 0.001483153 0.002098789 0.00201248 0.001742618 1000
lala 10 1.2 0 second 5 1 125 6 1.980001 0.579997777938843 -1 1 -1 1 0.001794941 0.002164863 0.002310094 0.001948363 0.001621506 1000 0.001794941 0.002164863 0.002310094 0.001948363 0.001621506 1000 0.001403837 0.001230061 0.001288449 0.001016098 0.001164453 1000 0.001403837 0.001230061 0.001288449 0.001016098 0.001164453 1000
lala 2 1.2 0 second 1 1 126 4 4.12 1.89999675750732 -1 1 -1 0 0.001738635 0.001517476 0.00181517 0.001793369 0.001894869 1000 0.001738635 0.001517476 0.00181517 0.001793369 0.001894869 1000 0.002238655 0.0020245 0.002060501 0.00212521 0.001851399 1000 0.002238655 0.0020245 0.002060501 0.00212521 0.001851399 1000
lala 4 1.2 1 second 7 1 127 4 6.52 1.3999969959259 1 1 1 1 0.001738509 0.002125392 0.00225535 0.002359424 0.002516314 1000 0.001738509 0.002125392 0.00225535 0.002359424 0.002516314 1000 0.0009859484 0.0008168884 0.0003135185 0.0008621768 0.001071023 1000 0.0009859484 0.0008168884 0.0003135185 0.0008621768 0.001071023 1000
lala 3 1.2 1 first 1 1 128 4 5.32 1.7199969291687 -1 1 1 1 0.002496822 0.002268034 0.00237639 1000 1000 1000 0.002496822 0.002268034 0.00237639 1000 1000 1000 0.00280006 0.002178065 0.001862749 0.001672209 0.00172165 1000 0.00280006 0.002178065 0.001862749 0.001672209 0.00172165 1000
lala 7 1.2 1 first 4 1 129 6 6.36 1.81999683380127 -1 0 1 1 0.003013372 0.00265723 0.002479371 1000 1000 1000 0.003013372 0.00265723 0.002479371 1000 1000 1000 0.002671645 0.002674836 0.002472856 0.0023791 0.002789453 1000 0.002671645 0.002674836 0.002472856 0.0023791 0.002789453 1000
lala 7 1.2 0 first 0 1 130 4 5.04 1.93999671936035 -1 0 -1 0 0.001963005 0.001963388 0.001953251 1000 1000 1000 0.001963005 0.001963388 0.001953251 1000 1000 1000 0.002563187 0.002564288 0.002164119 0.001750581 0.002046144 1000 0.002563187 0.002564288 0.002164119 0.001750581 0.002046144 1000
lala 12 0.3 0 first 16 1 131 6 3.96 1.31999707221985 0 0 -1 0 0.0009235237 0.0006330588 0.0003787223 1000 1000 1000 0.0009235237 0.0006330588 0.0003787223 1000 1000 1000 0.001526578 0.001220191 0.001278699 0.001236407 0.001218559 1000 0.001526578 0.001220191 0.001278699 0.001236407 0.001218559 1000
lala 9 1.2 0 first 11 1 132 6 3.180001 0.759997606277466 1 1 -1 0 -0.0005739699 -0.0001755562 -5.234631E-05 1000 1000 1000 -0.0005739699 -0.0001755562 -5.234631E-05 1000 1000 1000 0.003379274 0.003837304 0.004244728 0.004303939 0.004065903 1000 0.003379274 0.003837304 0.004244728 0.004303939 0.004065903 1000
lala 13 0.3 0 second 16 1 133 6 4.26 0.519997835159302 0 0 -1 0 0.002770238 0.002791544 0.003052913 0.00306267 0.003262984 1000 0.002770238 0.002791544 0.003052913 0.00306267 0.003262984 1000 0.003096272 0.003230728 0.003262576 0.003391208 0.003197629 1000 0.003096272 0.003230728 0.003262576 0.003391208 0.003197629 1000
lala 12 0.15 1 first 14 1 134 5 3.75 0.439997911453247 0 0 1 1 0.002872322 0.002434463 0.002180185 1000 1000 1000 0.002872322 0.002434463 0.002180185 1000 1000 1000 0.002530439 0.002439359 0.00260136 0.002184695 0.002187845 1000 0.002530439 0.002439359 0.00260136 0.002184695 0.002187845 1000
lala 8 1.2 1 first 0 1 135 4 6.24 1.17999720573425 -1 0 1 1 0.001177482 0.001114326 -0.001074345 1000 1000 1000 0.001177482 0.001114326 -0.001074345 1000 1000 1000 0.001559077 0.001602904 0.001851218 0.002238547 0.002117828 1000 0.001559077 0.001602904 0.001851218 0.002238547 0.002117828 1000
lala 8 1.2 0 second 6 1 136 4 3.84 1.31999707221985 1 0 -1 0 0.001391188 0.001833784 0.001604657 0.001551023 0.001861706 1000 0.001391188 0.001833784 0.001604657 0.001551023 0.001861706 1000 0.002122262 0.002441647 0.002232988 0.002351973 0.002204131 1000 0.002122262 0.002441647 0.002232988 0.002351973 0.002204131 1000
lala 10 1.2 1 first 12 1 137 4 3.84 0.839997529983521 0 0 1 1 -0.001892486 -0.002772551 -0.00107147 1000 1000 1000 -0.001892486 -0.002772551 -0.00107147 1000 1000 1000 0.003953386 0.00404541 0.004292553 0.004401996 0.004099236 1000 0.003953386 0.00404541 0.004292553 0.004401996 0.004099236 1000
lala 8 1.2 1 first 4 1 138 6 5.16 1.77999687194824 -1 0 1 0 0.003757894 0.00455531 0.004794036 1000 1000 1000 0.003757894 0.00455531 0.004794036 1000 1000 1000 0.002713869 0.002719228 0.002586599 0.002560353 0.002633769 1000 0.002713869 0.002719228 0.002586599 0.002560353 0.002633769 1000
lala 7 1.2 1 first 2 1 139 5 3.3 2.39999628067017 -1 0 1 0 0.004330691 0.003755134 0.003890172 1000 1000 1000 0.004330691 0.003755134 0.003890172 1000 1000 1000 0.002823451 0.00282368 0.002761203 0.002734902 0.002782876 1000 0.002823451 0.00282368 0.002761203 0.002734902 0.002782876 1000
lala 8 1.2 0 second 8 1 140 5 4.05 2.33999633789063 1 0 -1 1 0.003191717 0.002615979 0.002323655 0.002559328 0.003152417 1000 0.003191717 0.002615979 0.002323655 0.002559328 0.003152417 1000 0.003027676 0.003085533 0.003093224 0.003124538 0.002992026 1000 0.003027676 0.003085533 0.003093224 0.003124538 0.002992026 1000
lala 7 1.2 0 second 15 1 141 5 4.25 1.49999690055847 0 1 -1 1 0.0008666038 0.0007280121 0.0008342995 0.001096816 0.001361418 1000 0.0008666038 0.0007280121 0.0008342995 0.001096816 0.001361418 1000 0.0005384532 8.878638E-05 -3.123345E-05 1.263109E-05 0.0003785957 1000 0.0005384532 8.878638E-05 -3.123345E-05 1.263109E-05 0.0003785957 1000
lala 9 1.2 1 second 4 1 142 6 3.96 1.65999698638916 -1 0 1 1 -4.519353E-06 0.0001789441 4.678629E-05 7.291582E-05 0.0005382852 1000 -4.519353E-06 0.0001789441 4.678629E-05 7.291582E-05 0.0005382852 1000 0.0009107628 0.0007256536 0.0007265218 0.0009452456 0.001309274 1000 0.0009107628 0.0007256536 0.0007265218 0.0009452456 0.001309274 1000
lala 9 1.2 1 first 6 1 143 4 5.04 2.159996509552 1 0 1 1 0.0006583386 0.001507188 0.00177801 1000 1000 1000 0.0006583386 0.001507188 0.00177801 1000 1000 1000 0.0001683932 -1.309882E-05 0.0005159372 6.772074E-05 1.384713E-05 1000 0.0001683932 -1.309882E-05 0.0005159372 6.772074E-05 1.384713E-05 1000
lala 9 1.2 1 first 0 1 144 4 5.04 1.77999687194824 -1 0 1 1 -0.002461776 -0.002398808 -0.002342662 1000 1000 1000 -0.002461776 -0.002398808 -0.002342662 1000 1000 1000 -0.002283657 -0.002351693 -0.002498298 -0.002690931 -0.002499901 1000 -0.002283657 -0.002351693 -0.002498298 -0.002690931 -0.002499901 1000
lala 10 2.4 0 second 4 1 145 6 1.98 2.09999656677246 -1 0 -1 1 -0.002598738 -0.001649399 -0.001744793 -0.001436897 -0.0009898087 1000 -0.002598738 -0.001649399 -0.001744793 -0.001436897 -0.0009898087 1000 -0.001173791 -0.001193456 -0.0006902092 -0.000615732 -0.0004227048 1000 -0.001173791 -0.001193456 -0.0006902092 -0.000615732 -0.0004227048 1000
lala 8 1.2 1 second 15 1 146 5 5.45 1.89999675750732 0 1 1 1 0.0006910433 0.0005705874 0.0004008705 0.0005725511 0.0005238544 1000 0.0006910433 0.0005705874 0.0004008705 0.0005725511 0.0005238544 1000 0.0006167428 0.0004299153 0.0003573959 0.0001335558 -0.0001171912 1000 0.0006167428 0.0004299153 0.0003573959 0.0001335558 -0.0001171912 1000
lala 14 0.6 1 second 16 1 147 6 4.86 1.25999712944031 0 0 1 1 0.001495144 0.002098755 0.002088905 0.001976608 0.001242144 1000 0.001495144 0.002098755 0.002088905 0.001976608 0.001242144 1000 0.001948466 0.002371345 0.003004316 0.002840968 0.002198356 1000 0.001948466 0.002371345 0.003004316 0.002840968 0.002198356 1000
lala 15 0.3 0 first 16 1 148 6 4.559999 1.03999733924866 0 0 -1 0 0.00337921 0.003225948 0.003634867 1000 1000 1000 0.00337921 0.003225948 0.003634867 1000 1000 1000 0.003059552 0.003267411 0.003081664 0.003343725 0.002668256 1000 0.003059552 0.003267411 0.003081664 0.003343725 0.002668256 1000
lala 10 0.6 0 first 6 1 149 4 4.44 2.67999601364136 1 0 -1 1 0.004228983 0.004492161 0.004462434 1000 1000 1000 0.004228983 0.004492161 0.004462434 1000 1000 1000 0.004870228 0.005657998 0.004837449 0.004105691 0.003628236 1000 0.004870228 0.005657998 0.004837449 0.004105691 0.003628236 1000
lala 5 1.2 1 second 7 1 150 4 5.320001 1.37999701499939 1 1 1 0 -0.01216744 -0.009485103 -0.009626682 -0.01016094 -0.01115477 1000 -0.01216744 -0.009485103 -0.009626682 -0.01016094 -0.01115477 1000 -0.01158796 -0.01177133 -0.01157246 -0.01160649 -0.01192072 1000 -0.01158796 -0.01177133 -0.01157246 -0.01160649 -0.01192072 1000
lala 6 1.2 1 first 13 1 151 4 4.12 1.15999722480774 0 1 1 1 -0.01146939 -0.01122049 -0.01103102 1000 1000 1000 -0.01146939 -0.01122049 -0.01103102 1000 1000 1000 -0.01160185 -0.0112459 -0.01103634 -0.0111897 -0.01154837 1000 -0.01160185 -0.0112459 -0.01103634 -0.0111897 -0.01154837 1000
lala 10 0.6 0 first 11 1 152 6 3.780001 0.919997453689575 1 1 -1 1 -0.01118764 -0.01152221 -0.01115106 1000 1000 1000 -0.01118764 -0.01152221 -0.01115106 1000 1000 1000 -0.01080589 -0.01085199 -0.01069629 -0.01090515 -0.01075102 1000 -0.01080589 -0.01085199 -0.01069629 -0.01090515 -0.01075102 1000
lala 6 1.2 0 second 7 1 153 4 4.120001 0.899997472763062 1 1 -1 1 -0.01050244 -0.01060348 -0.01030078 -0.01017154 -0.01011257 1000 -0.01050244 -0.01060348 -0.01030078 -0.01017154 -0.01011257 1000 -0.01099 -0.0112357 -0.0113426 -0.01162505 -0.01196545 1000 -0.01099 -0.0112357 -0.0113426 -0.01162505 -0.01196545 1000
lala 7 1.2 0 second 13 1 154 4 2.92 0.639997720718384 0 1 -1 1 -0.01236741 -0.01246465 -0.0125397 -0.0124881 -0.0122477 1000 -0.01236741 -0.01246465 -0.0125397 -0.0124881 -0.0122477 1000 -0.0124772 -0.01246489 -0.01234139 -0.01276426 -0.01338342 1000 -0.0124772 -0.01246489 -0.01234139 -0.01276426 -0.01338342 1000
lala 13 0.075 1 first 14 1 155 5 3.675 1.75999689102173 0 0 1 0 -0.01154638 -0.01184802 -0.01190186 1000 1000 1000 -0.01154638 -0.01184802 -0.01190186 1000 1000 1000 -0.01057305 -0.01057484 -0.01018553 -0.01031625 -0.01076417 1000 -0.01057305 -0.01057484 -0.01018553 -0.01031625 -0.01076417 1000
lala 10 1.2 0 first 0 1 156 4 3.84 0.959997415542603 -1 0 -1 0 -0.01112934 -0.01098779 -0.0109709 1000 1000 1000 -0.01112934 -0.01098779 -0.0109709 1000 1000 1000 -0.0080031 -0.008518592 -0.008553039 -0.008437446 -0.008653828 1000 -0.0080031 -0.008518592 -0.008553039 -0.008437446 -0.008653828 1000
lala 11 0.3 0 first 6 1 157 4 4.74 2.2999963760376 1 0 -1 0 -0.008636446 -0.008409681 -0.008108456 1000 1000 1000 -0.008636446 -0.008409681 -0.008108456 1000 1000 1000 -0.008467645 -0.008638739 -0.008580119 -0.008263293 -0.008902881 1000 -0.008467645 -0.008638739 -0.008580119 -0.008263293 -0.008902881 1000
lala 8 1.2 0 first 2 1 158 5 2.1 1.99999666213989 -1 0 -1 0 -0.007700798 -0.007910244 -0.007606842 1000 1000 1000 -0.007700798 -0.007910244 -0.007606842 1000 1000 1000 -0.008284248 -0.008390123 -0.008228133 -0.007940742 -0.007658587 1000 -0.008284248 -0.008390123 -0.008228133 -0.007940742 -0.007658587 1000
lala 8 1.2 1 second 13 1 159 4 4.12 0.39999794960022 0 1 1 0 -0.007658011 -0.007418763 -0.006975946 -0.007249354 -0.007523016 1000 -0.007658011 -0.007418763 -0.006975946 -0.007249354 -0.007523016 1000 -0.007678929 -0.007295254 -0.006903833 -0.006703453 -0.007238758 1000 -0.007678929 -0.007295254 -0.006903833 -0.006703453 -0.007238758 1000
lala 4 1.2 1 second 1 1 160 4 4.12 1.89999675750732 -1 1 1 0 -0.007525126 -0.007664032 -0.007154923 -0.006611386 -0.00698498 1000 -0.007525126 -0.007664032 -0.007154923 -0.006611386 -0.00698498 1000 -0.007212375 -0.00738314 -0.007137664 -0.007020752 -0.007241498 1000 -0.007212375 -0.00738314 -0.007137664 -0.007020752 -0.007241498 1000
lala 16 0.15 0 first 16 1 161 6 4.71 1.87999677658081 0 0 -1 0 -0.006463546 -0.006532338 -0.006677 1000 1000 1000 -0.006463546 -0.006532338 -0.006677 1000 1000 1000 -0.004587576 -0.004580046 -0.004562766 -0.004771242 -0.005067056 1000 -0.004587576 -0.004580046 -0.004562766 -0.004771242 -0.005067056 1000
lala 5 1.2 1 first 1 1 162 4 2.92 1.5399968624115 -1 1 1 0 -0.005182598 -0.005310481 -0.005252991 1000 1000 1000 -0.005182598 -0.005310481 -0.005252991 1000 1000 1000 -0.003575205 -0.003514914 -0.004000912 -0.004397458 -0.004744834 1000 -0.003575205 -0.003514914 -0.004000912 -0.004397458 -0.004744834 1000
lala 8 1.2 0 first 10 1 163 6 1.98 0.979997396469116 1 0 -1 1 -0.004013803 -0.002932101 -0.002108282 1000 1000 1000 -0.004013803 -0.002932101 -0.002108282 1000 1000 1000 -0.002376025 -0.002168844 -0.002316481 -0.002512306 -0.002553047 1000 -0.002376025 -0.002168844 -0.002316481 -0.002512306 -0.002553047 1000
lala 11 1.2 0 first 4 1 164 6 3.18 2.31999635696411 -1 0 -1 1 -0.001072132 -0.00134104 -0.001416446 1000 1000 1000 -0.001072132 -0.00134104 -0.001416446 1000 1000 1000 -0.002594052 -0.002522581 -0.002425914 -0.002452641 -0.002708046 1000 -0.002594052 -0.002522581 -0.002425914 -0.002452641 -0.002708046 1000
lala 6 1.2 0 second 1 1 165 4 1.72 2.35999631881714 -1 1 -1 0 -0.002091189 -0.001329434 -0.0008206987 -0.001040993 -0.001179779 1000 -0.002091189 -0.001329434 -0.0008206987 -0.001040993 -0.001179779 1000 -0.001014821 -0.0007865992 -0.0003559446 -0.000159455 -0.0002197039 1000 -0.001014821 -0.0007865992 -0.0003559446 -0.000159455 -0.0002197039 1000
lala 11 0.6 1 first 11 1 166 6 4.380001 2.25999641418457 1 1 1 1 -0.00142358 -0.001612759 -0.00177989 1000 1000 1000 -0.00142358 -0.001612759 -0.00177989 1000 1000 1000 -0.0004761308 -0.0004047049 -0.000502284 -0.0004167951 -0.0003221105 1000 -0.0004761308 -0.0004047049 -0.000502284 -0.0004167951 -0.0003221105 1000
lala 9 1.2 0 second 13 1 167 4 2.92 1.83999681472778 0 1 -1 1 0.001785889 0.001260039 0.00112908 0.0005080087 0.000379747 1000 0.001785889 0.001260039 0.00112908 0.0005080087 0.000379747 1000 -0.00027013 -8.718315E-05 -3.774694E-05 1.773282E-05 -0.0002659985 1000 -0.00027013 -8.718315E-05 -3.774694E-05 1.773282E-05 -0.0002659985 1000
lala 12 0.3 1 second 6 1 168 4 5.04 0.979997396469116 1 0 1 1 -0.0004476979 -0.0005828317 -0.0004764588 -0.0004470243 -0.0005160771 1000 -0.0004476979 -0.0005828317 -0.0004764588 -0.0004470243 -0.0005160771 1000 -0.0002099609 -1.993563E-05 -8.076334E-05 -6.094131E-05 -0.0001358431 1000 -0.0002099609 -1.993563E-05 -8.076334E-05 -6.094131E-05 -0.0001358431 1000
lala 10 0.6 1 second 13 1 169 4 3.52 2.71999597549438 0 1 1 0 -0.0006538788 -0.0004419489 -8.684272E-05 -0.0002275104 -0.0005480397 1000 -0.0006538788 -0.0004419489 -8.684272E-05 -0.0002275104 -0.0005480397 1000 -0.000422556 -1.007956E-05 0.0003392175 0.0002219801 -0.0002232184 1000 -0.000422556 -1.007956E-05 0.0003392175 0.0002219801 -0.0002232184 1000
lala 10 0.6 0 second 9 1 170 5 3.65 2.91999578475952 1 1 -1 1 -0.0003445486 -0.0002399588 -0.0001008723 0.0002204864 0.0002364946 1000 -0.0003445486 -0.0002399588 -0.0001008723 0.0002204864 0.0002364946 1000 -0.0004528107 -0.0006776652 -0.000935529 -0.0003772006 -0.0007814097 1000 -0.0004528107 -0.0006776652 -0.000935529 -0.0003772006 -0.0007814097 1000
lala 11 0.6 1 first 12 1 171 4 3.24 2.95999574661255 0 0 1 0 -0.000760681 -0.001037245 -0.0008792223 1000 1000 1000 -0.000760681 -0.001037245 -0.0008792223 1000 1000 1000 -0.001151232 -0.001370927 -0.001492933 -0.001427404 -0.001733938 1000 -0.001151232 -0.001370927 -0.001492933 -0.001427404 -0.001733938 1000
lala 12 0.3 1 first 11 1 172 6 4.080001 1.61999702453613 1 1 1 0 -0.0007504377 -0.0004762828 -0.0008172268 1000 1000 1000 -0.0007504377 -0.0004762828 -0.0008172268 1000 1000 1000 0.0004475456 0.0009647166 0.001058981 0.0008396517 0.001299337 1000 0.0004475456 0.0009647166 0.001058981 0.0008396517 0.001299337 1000
lala 9 1.2 1 first 2 1 173 5 3.3 2.69999599456787 -1 0 1 0 0.001016284 0.001348437 0.001343659 1000 1000 1000 0.001016284 0.001348437 0.001343659 1000 1000 1000 0.0007068955 0.0006770763 0.0004823423 0.0005750221 0.0006190556 1000 0.0007068955 0.0006770763 0.0004823423 0.0005750221 0.0006190556 1000
lala 7 1.2 1 first 1 1 174 4 2.92 1.5399968624115 -1 1 1 1 -0.001222402 -0.001373514 -0.001216184 1000 1000 1000 -0.001222402 -0.001373514 -0.001216184 1000 1000 1000 -0.001766254 -0.002019191 -0.001548671 -0.001562298 -0.001632407 1000 -0.001766254 -0.002019191 -0.001548671 -0.001562298 -0.001632407 1000
lala 11 0.3 0 first 13 1 175 4 3.22 1.67999696731567 0 1 -1 0 -0.0008301008 -0.001445044 -0.001795298 1000 1000 1000 -0.0008301008 -0.001445044 -0.001795298 1000 1000 1000 -0.002117193 -0.001841761 -0.001837492 -0.00202363 -0.0021889 1000 -0.002117193 -0.001841761 -0.001837492 -0.00202363 -0.0021889 1000
lala 12 1.2 1 first 4 1 176 6 4.38 1.59999680519104 -1 0 1 1 -0.002214527 -0.002711231 -0.002988931 1000 1000 1000 -0.002214527 -0.002711231 -0.002988931 1000 1000 1000 -0.001808935 -0.001641044 -0.001459309 -0.001761217 -0.002064494 1000 -0.001808935 -0.001641044 -0.001459309 -0.001761217 -0.002064494 1000
lala 14 0.075 0 second 14 1 177 5 3.6 0.479997873306274 0 0 -1 0 0.0008421327 0.001546681 0.00213466 0.002342999 0.002347625 1000 0.0008421327 0.001546681 0.00213466 0.002342999 0.002347625 1000 0.003107492 0.003154561 0.003209212 0.003483584 0.003234812 1000 0.003107492 0.003154561 0.003209212 0.003483584 0.003234812 1000
lala 9 1.2 0 second 15 1 178 5 4.25 0.839997529983521 0 1 -1 0 0.004808744 0.00485305 0.004279154 0.003848161 0.003731519 1000 0.004808744 0.00485305 0.004279154 0.003848161 0.003731519 1000 0.003790006 0.003720996 0.003818681 0.003534943 0.003258713 1000 0.003790006 0.003720996 0.003818681 0.003534943 0.003258713 1000
lala 13 0.6 1 second 4 1 179 6 3.78 0.879997491836548 -1 0 1 1 0.0045599 0.004567398 0.004903995 0.004999524 0.005126335 1000 0.0045599 0.004567398 0.004903995 0.004999524 0.005126335 1000 0.005054347 0.005019024 0.004694225 0.004795263 0.005032897 1000 0.005054347 0.005019024 0.004694225 0.004795263 0.005032897 1000
lala 11 0.6 1 first 5 1 180 6 2.580001 2.61999607086182 -1 1 1 0 0.006112135 0.00637299 0.006398907 1000 1000 1000 0.006112135 0.00637299 0.006398907 1000 1000 1000 0.005697899 0.005163813 0.005738213 0.005590729 0.005417119 1000 0.005697899 0.005163813 0.005738213 0.005590729 0.005417119 1000
lala 15 0.0375 0 second 14 1 181 5 3.6375 0.679997682571411 0 0 -1 1 0.009554432 0.009927715 0.01000641 0.009864355 0.009640279 1000 0.009554432 0.009927715 0.01000641 0.009864355 0.009640279 1000 0.009880263 0.01006788 0.01024463 0.01029305 0.01036958 1000 0.009880263 0.01006788 0.01024463 0.01029305 0.01036958 1000
lala 12 0.3 1 first 5 1 182 6 2.280001 1.47999691963196 -1 1 1 0 0.01125309 0.0112773 0.01147802 1000 1000 1000 0.01125309 0.0112773 0.01147802 1000 1000 1000 0.01055695 0.01056028 0.01062163 0.01105971 0.01089425 1000 0.01055695 0.01056028 0.01062163 0.01105971 0.01089425 1000
lala 13 0.3 0 second 11 1 183 6 3.780001 2.13999652862549 1 1 -1 0 0.01230738 0.01252173 0.0129086 0.01315601 0.01328253 1000 0.01230738 0.01252173 0.0129086 0.01315601 0.01328253 1000 0.01312927 0.0130169 0.01360849 0.01336309 0.013092 1000 0.01312927 0.0130169 0.01360849 0.01336309 0.013092 1000
lala 8 1.2 0 first 1 1 184 4 1.72 1.87999677658081 -1 1 -1 1 0.01479649 0.0147495 0.01463003 1000 1000 1000 0.01479649 0.0147495 0.01463003 1000 1000 1000 0.01516776 0.01531987 0.01512691 0.01486683 0.01537506 1000 0.01516776 0.01531987 0.01512691 0.01486683 0.01537506 1000
lala 12 0.6 1 first 12 1 185 4 2.64 1.49999690055847 0 0 1 0 0.01550256 0.01557319 0.01597276 1000 1000 1000 0.01550256 0.01557319 0.01597276 1000 1000 1000 0.01823734 0.01848385 0.01855005 0.01827062 0.01776022 1000 0.01823734 0.01848385 0.01855005 0.01827062 0.01776022 1000
lala 16 0.0375 1 second 14 1 186 5 3.675 0.419997930526733 0 0 1 0 0.0190113 0.01921717 0.01947101 0.0196316 0.01937053 1000 0.0190113 0.01921717 0.01947101 0.0196316 0.01937053 1000 0.01990764 0.01922218 0.01907925 0.01927587 0.01918395 1000 0.01990764 0.01922218 0.01907925 0.01927587 0.01918395 1000
lala 10 0.6 0 first 15 1 187 5 4.85 0.979997396469116 0 1 -1 1 0.01922023 0.0194434 0.01994277 1000 1000 1000 0.01922023 0.0194434 0.01994277 1000 1000 1000 0.02091948 0.02113424 0.02112359 0.02087113 0.02064275 1000 0.02091948 0.02113424 0.02112359 0.02087113 0.02064275 1000
lala 9 1.2 1 first 10 1 188 6 3.18 2.11999654769897 1 0 1 0 0.02078274 0.02086335 0.02080112 1000 1000 1000 0.02078274 0.02086335 0.02080112 1000 1000 1000 0.02239952 0.02255227 0.02220797 0.0220034 0.0219863 1000 0.02239952 0.02255227 0.02220797 0.0220034 0.0219863 1000
lala 8 1.2 1 first 17 1 189 6 6.780001 1.11999726295471 0 1 1 0 0.02359147 0.02312295 0.02330969 1000 1000 1000 0.02359147 0.02312295 0.02330969 1000 1000 1000 0.01649381 0.01736991 0.01715241 0.01790059 0.01824535 1000 0.01649381 0.01736991 0.01715241 0.01790059 0.01824535 1000
lala 7 1.2 1 first 7 1 190 4 5.320001 2.21999645233154 1 1 1 1 0.01843011 0.01874927 0.01959484 1000 1000 1000 0.01843011 0.01874927 0.01959484 1000 1000 1000 0.0175979 0.01731842 0.01794252 0.01864458 0.01862732 1000 0.0175979 0.01731842 0.01794252 0.01864458 0.01862732 1000
lala 13 0.15 1 second 6 1 191 4 4.89 0.519997835159302 1 0 1 0 0.02037265 0.01980115 0.02043799 0.02069586 0.02042485 1000 0.02037265 0.01980115 0.02043799 0.02069586 0.02042485 1000 0.02043757 0.02064381 0.02045188 0.02035627 0.02020672 1000 0.02043757 0.02064381 0.02045188 0.02035627 0.02020672 1000
lala 11 0.6 1 first 15 1 192 5 5.45 0.759997606277466 0 1 1 1 0.02247917 0.0217551 0.02160758 1000 1000 1000 0.02247917 0.0217551 0.02160758 1000 1000 1000 0.02000802 0.0195293 0.01959808 0.01980729 0.0193163 1000 0.02000802 0.0195293 0.01959808 0.01980729 0.0193163 1000
lala 11 0.6 0 first 0 1 193 4 4.44 1.75999689102173 -1 0 -1 1 0.01874644 0.01928885 0.01952738 1000 1000 1000 0.01874644 0.01928885 0.01952738 1000 1000 1000 0.01800591 0.01860607 0.01781733 0.01770585 0.01758485 1000 0.01800591 0.01860607 0.01781733 0.01770585 0.01758485 1000
lala 11 0.3 0 first 9 1 194 5 3.95 1.81999683380127 1 1 -1 1 0.01685049 0.01652862 0.01657986 1000 1000 1000 0.01685049 0.01652862 0.01657986 1000 1000 1000 0.01780914 0.01723884 0.01683724 0.01621303 0.01629956 1000 0.01780914 0.01723884 0.01683724 0.01621303 0.01629956 1000
lala 9 1.2 1 first 1 1 195 4 2.92 0.959997415542603 -1 1 1 0 0.01572471 0.01574128 0.01665299 1000 1000 1000 0.01572471 0.01574128 0.01665299 1000 1000 1000 0.01541416 0.01544174 0.0153662 0.01560248 0.01503665 1000 0.01541416 0.01544174 0.0153662 0.01560248 0.01503665 1000
lala 7 1.2 1 second 3 1 196 5 4.250001 2.19999647140503 -1 1 1 1 0.01487877 0.01504451 0.01548104 0.01580863 0.01555557 1000 0.01487877 0.01504451 0.01548104 0.01580863 0.01555557 1000 0.01523941 0.0148465 0.01463527 0.01429471 0.01405175 1000 0.01523941 0.0148465 0.01463527 0.01429471 0.01405175 1000
lala 17 0.01875 0 first 14 1 197 5 3.65625 1.89999675750732 0 0 -1 0 0.01260759 0.01350455 0.01363205 1000 1000 1000 0.01260759 0.01350455 0.01363205 1000 1000 1000 0.01340949 0.01324422 0.01360504 0.01317437 0.01330797 1000 0.01340949 0.01324422 0.01360504 0.01317437 0.01330797 1000
lala 12 0.3 1 first 15 1 198 5 5.15 1.25999712944031 0 1 1 0 0.01332235 0.01340407 0.0136762 1000 1000 1000 0.01332235 0.01340407 0.0136762 1000 1000 1000 0.0129479 0.01266562 0.01316544 0.01283602 0.01213166 1000 0.0129479 0.01266562 0.01316544 0.01283602 0.01213166 1000
lala 12 0.15 0 second 13 1 199 4 3.37 0.799997568130493 0 1 -1 1 0.01324265 0.01249737 0.01230123 0.01200378 0.01230333 1000 0.01324265 0.01249737 0.01230123 0.01200378 0.01230333 1000 0.01119214 0.01132857 0.01144968 0.01147421 0.01120198 1000 0.01119214 0.01132857 0.01144968 0.01147421 0.01120198 1000
lala 12 0.3 1 second 9 1 200 5 4.25 0.719997644424438 1 1 1 1 0.001131094 0.001350772 0.001891047 0.001956522 0.001844762 1000 0.001131094 0.001350772 0.001891047 0.001956522 0.001844762 1000 0.001822998 0.001940997 0.001882164 0.002088258 0.002182934 1000 0.001822998 0.001940997 0.001882164 0.002088258 0.002182934 1000
lala 13 0.15 0 second 13 1 201 4 3.52 0.419997930526733 0 1 -1 1 0.001144342 0.002088874 0.002084242 0.001731991 0.001328302 1000 0.001144342 0.002088874 0.002084242 0.001731991 0.001328302 1000 0.001193048 0.001466626 0.001473033 0.00127148 0.001217199 1000 0.001193048 0.001466626 0.001473033 0.00127148 0.001217199 1000
lala 14 0.15 1 first 13 1 202 4 3.67 0.579997777938843 0 1 1 1 0.001864058 0.001460935 0.001454568 1000 1000 1000 0.001864058 0.001460935 0.001454568 1000 1000 1000 -0.0003842209 -9.689649E-05 0.0003722124 0.0003666659 0.0003906878 1000 -0.0003842209 -9.689649E-05 0.0003722124 0.0003666659 0.0003906878 1000
lala 14 0.15 1 second 6 1 203 4 4.74 1.59999680519104 1 0 1 1 0.001627127 0.002092315 0.002310962 0.00184805 0.001905976 1000 0.001627127 0.002092315 0.002310962 0.00184805 0.001905976 1000 0.00114858 0.0009821061 0.0009633332 0.0009077174 0.0004312809 1000 0.00114858 0.0009821061 0.0009633332 0.0009077174 0.0004312809 1000
lala 13 0.6 0 first 12 1 204 4 2.04 1.15999722480774 0 0 -1 0 0.003123806 0.002812607 0.000200602 1000 1000 1000 0.003123806 0.002812607 0.000200602 1000 1000 1000 0.007514598 0.005406833 0.003831875 0.003966792 0.003070841 1000 0.007514598 0.005406833 0.003831875 0.003966792 0.003070841 1000
lala 15 0.075 1 first 13 1 205 4 3.595 1.0999972820282 0 1 1 0 0.0008541414 0.001416286 0.001447931 1000 1000 1000 0.0008541414 0.001416286 0.001447931 1000 1000 1000 0.0001387089 -0.0002500112 -0.000146455 0.0003117421 0.0003339197 1000 0.0001387089 -0.0002500112 -0.000146455 0.0003117421 0.0003339197 1000
lala 14 0.3 0 second 12 1 206 4 2.34 0.519997835159302 0 0 -1 1 -0.0002356906 -0.0004777719 -8.860943E-05 -1.458012E-05 9.204421E-05 1000 -0.0002356906 -0.0004777719 -8.860943E-05 -1.458012E-05 9.204421E-05 1000 0.0005619686 3.609683E-05 -7.274581E-05 -0.0006120807 -0.0006050994 1000 0.0005619686 3.609683E-05 -7.274581E-05 -0.0006120807 -0.0006050994 1000
lala 17 0.15 1 second 16 1 207 6 4.86 0.39999794960022 0 0 1 1 -0.001097164 -0.0006338774 -0.0003539395 -0.0006026734 -0.0003112339 1000 -0.001097164 -0.0006338774 -0.0003539395 -0.0006026734 -0.0003112339 1000 -0.0004310756 -0.0005732201 -0.0007191726 -0.0002361467 -8.77679E-05 1000 -0.0004310756 -0.0005732201 -0.0007191726 -0.0002361467 -8.77679E-05 1000
lala 18 0.009375 1 first 14 1 208 5 3.665625 2.61999607086182 0 0 1 0 -0.0005157699 -0.001411768 -0.001717216 1000 1000 1000 -0.0005157699 -0.001411768 -0.001717216 1000 1000 1000 0.0004223581 0.0004597774 0.001534539 0.002061798 0.002905146 1000 0.0004223581 0.0004597774 0.001534539 0.002061798 0.002905146 1000
lala 15 0.15 1 first 6 1 209 4 4.59 1.75999689102173 1 0 1 1 0.0006998767 0.0008595677 0.0007502025 1000 1000 1000 0.0006998767 0.0008595677 0.0007502025 1000 1000 1000 -0.001802046 -0.001248134 -0.000607173 -0.0006877983 -0.0005024418 1000 -0.001802046 -0.001248134 -0.000607173 -0.0006877983 -0.0005024418 1000
lala 15 0.3 0 first 12 1 210 4 2.64 0.599997758865356 0 0 -1 1 -0.001176241 -0.000679526 -0.0005354701 1000 1000 1000 -0.001176241 -0.000679526 -0.0005354701 1000 1000 1000 -0.000409545 -5.400179E-05 -6.536216E-05 -0.0001308689 -0.0002035869 1000 -0.000409545 -5.400179E-05 -6.536216E-05 -0.0001308689 -0.0002035869 1000
lala 9 1.2 1 first 17 1 211 6 5.580001 0.499997854232788 0 1 1 0 0.0007073094 0.0007150978 -5.132963E-05 1000 1000 1000 0.0007073094 0.0007150978 -5.132963E-05 1000 1000 1000 -0.0001730737 0.0003470822 0.0009541937 0.0009572798 0.0006148369 1000 -0.0001730737 0.0003470822 0.0009541937 0.0009572798 0.0006148369 1000
lala 19 0.0046875 0 second 14 1 212 5 3.660938 0.339998006820679 0 0 -1 1 0.0009326866 0.001480597 0.00175828 0.002509293 0.002731506 1000 0.0009326866 0.001480597 0.00175828 0.002509293 0.002731506 1000 0.003136515 0.002971932 0.002887896 0.002767366 0.002788577 1000 0.003136515 0.002971932 0.002887896 0.002767366 0.002788577 1000
lala 13 0.3 1 second 15 1 213 5 4.849999 0.359997987747192 0 1 1 0 0.00729228 0.008247045 0.008244791 0.007309179 0.006462801 1000 0.00729228 0.008247045 0.008244791 0.007309179 0.006462801 1000 0.002977239 0.003227837 0.003978968 0.004243583 0.004189425 1000 0.002977239 0.003227837 0.003978968 0.004243583 0.004189425 1000
lala 8 1.2 1 first 7 1 214 4 4.120001 1.55999684333801 1 1 1 0 0.00745023 0.007147301 0.006462185 1000 1000 1000 0.00745023 0.007147301 0.006462185 1000 1000 1000 0.005049788 0.004845171 0.004157383 0.004020533 0.00435197 1000 0.005049788 0.004845171 0.004157383 0.004020533 0.00435197 1000
lala 14 0.6 1 first 4 1 215 6 3.18 2.53999614715576 -1 0 1 0 0.003543128 0.003622639 0.003469518 1000 1000 1000 0.003543128 0.003622639 0.003469518 1000 1000 1000 0.00271746 0.002768032 0.002690569 0.002558074 0.002324032 1000 0.00271746 0.002768032 0.002690569 0.002558074 0.002324032 1000
lala 10 0.6 1 second 10 1 216 6 2.58 2.19999647140503 1 0 1 1 0.001245522 0.00245813 0.002780488 0.002624476 0.002512921 1000 0.001245522 0.00245813 0.002780488 0.002624476 0.002512921 1000 0.002682967 0.003345242 0.002779443 0.002546496 0.002625078 1000 0.002682967 0.003345242 0.002779443 0.002546496 0.002625078 1000
lala 9 1.2 1 second 8 1 217 5 5.25 1.45999693870544 1 0 1 0 0.003568485 0.003288254 0.002639508 0.002758105 0.002965404 1000 0.003568485 0.003288254 0.002639508 0.002758105 0.002965404 1000 0.003489146 0.003047808 0.003027997 0.003531894 0.003657843 1000 0.003489146 0.003047808 0.003027997 0.003531894 0.003657843 1000
lala 18 0.075 1 first 16 1 218 6 4.785 1.21999716758728 0 0 1 0 0.00510016 0.004951966 0.005210144 1000 1000 1000 0.00510016 0.004951966 0.005210144 1000 1000 1000 0.006033542 0.005891179 0.005840044 0.005974697 0.005926187 1000 0.006033542 0.005891179 0.005840044 0.005974697 0.005926187 1000
lala 10 0.6 1 first 2 1 219 5 2.7 1.47999691963196 -1 0 1 0 0.005726771 0.006616885 0.006785808 1000 1000 1000 0.005726771 0.006616885 0.006785808 1000 1000 1000 0.007089289 0.007115701 0.007668361 0.00772157 0.006752766 1000 0.007089289 0.007115701 0.007668361 0.00772157 0.006752766 1000
lala 13 0.15 0 first 9 1 220 5 4.1 2.2999963760376 1 1 -1 1 0.005145543 0.006017223 0.006510497 1000 1000 1000 0.005145543 0.006017223 0.006510497 1000 1000 1000 0.007161411 0.00695295 0.006583964 0.006284429 0.006437713 1000 0.007161411 0.00695295 0.006583964 0.006284429 0.006437713 1000
lala 14 0.075 1 second 9 1 221 5 4.175 4.59999418258667 1 1 1 1 0.01060246 0.010693 0.0107324 0.01044808 0.01015851 1000 0.01060246 0.010693 0.0107324 0.01044808 0.01015851 1000 0.01019432 0.01042304 0.01078489 0.01094374 0.01100016 1000 0.01019432 0.01042304 0.01078489 0.01094374 0.01100016 1000
lala 10 1.2 1 first 17 1 222 6 4.380001 1.91999673843384 0 1 1 1 0.01931322 0.02031729 0.02056396 1000 1000 1000 0.01931322 0.02031729 0.02056396 1000 1000 1000 0.02022577 0.02004081 0.02035862 0.01970787 0.01934641 1000 0.02022577 0.02004081 0.02035862 0.01970787 0.01934641 1000
lala 13 0.3 0 second 5 1 223 6 1.980001 0.579997777938843 -1 1 -1 1 0.02064516 0.02090751 0.02088111 0.02175046 0.02177451 1000 0.02064516 0.02090751 0.02088111 0.02175046 0.02177451 1000 0.02219875 0.02124259 0.02161809 0.02185553 0.02195041 1000 0.02219875 0.02124259 0.02161809 0.02185553 0.02195041 1000
lala 12 0.6 1 first 0 1 224 4 5.04 1.83999681472778 -1 0 1 0 0.02047647 0.02039271 0.02075161 1000 1000 1000 0.02047647 0.02039271 0.02075161 1000 1000 1000 0.02123488 0.02097958 0.0214371 0.02188822 0.02176775 1000 0.02123488 0.02097958 0.0214371 0.02188822 0.02176775 1000
lala 10 0.6 0 second 1 1 225 4 2.32 1.0999972820282 -1 1 -1 1 0.02453558 0.02455836 0.02426858 0.02447884 0.02453287 1000 0.02453558 0.02455836 0.02426858 0.02447884 0.02453287 1000 0.0231051 0.02342379 0.02353481 0.02321041 0.02287058 1000 0.0231051 0.02342379 0.02353481 0.02321041 0.02287058 1000
lala 19 0.075 1 first 16 1 226 6 4.71 1.63999700546265 0 0 1 1 0.02010472 0.01874458 0.02043145 1000 1000 1000 0.02010472 0.01874458 0.02043145 1000 1000 1000 0.02154673 0.02161985 0.02146135 0.02177886 0.02145598 1000 0.02154673 0.02161985 0.02146135 0.02177886 0.02145598 1000
lala 10 0.6 1 second 8 1 227 5 4.65 1.13999724388123 1 0 1 1 0.02152698 0.02118477 0.02096126 0.02184447 0.02166412 1000 0.02152698 0.02118477 0.02096126 0.02184447 0.02166412 1000 0.02177136 0.02163394 0.02196793 0.02184914 0.02167743 1000 0.02177136 0.02163394 0.02196793 0.02184914 0.02167743 1000
lala 11 2.4 1 first 17 1 228 6 1.980001 0.499997854232788 0 1 1 0 0.02202233 0.02147133 0.02181891 1000 1000 1000 0.02202233 0.02147133 0.02181891 1000 1000 1000 0.02113892 0.02100228 0.02091744 0.02081469 0.02071055 1000 0.02113892 0.02100228 0.02091744 0.02081469 0.02071055 1000
lala 14 0.3 1 second 15 1 229 5 4.549999 0.939997434616089 0 1 1 1 0.02168019 0.02146373 0.02142347 0.02197108 0.02199598 1000 0.02168019 0.02146373 0.02142347 0.02197108 0.02199598 1000 0.02097639 0.01995985 0.01993647 0.02015173 0.02026943 1000 0.02097639 0.01995985 0.01993647 0.02015173 0.02026943 1000
lala 12 4.8 0 second 17 1 230 6 1.98 0.559997797012329 0 1 -1 0 0.02085473 0.02030605 0.02024917 0.02028545 0.02034314 1000 0.02085473 0.02030605 0.02024917 0.02028545 0.02034314 1000 0.02243938 0.02182402 0.0221421 0.02223613 0.02231519 1000 0.02243938 0.02182402 0.0221421 0.02223613 0.02231519 1000
lala 15 0.0375 1 second 9 1 231 5 4.1375 0.779997587203979 1 1 1 1 0.01928012 0.01929193 0.0196819 0.01917621 0.01956639 1000 0.01928012 0.01929193 0.0196819 0.01917621 0.01956639 1000 0.01987542 0.02002305 0.0201528 0.02018715 0.02046002 1000 0.01987542 0.02002305 0.0201528 0.02018715 0.02046002 1000
lala 20 0.075 0 first 16 1 232 6 4.635 0.979997396469116 0 0 -1 0 0.0166694 0.01669285 0.01623906 1000 1000 1000 0.0166694 0.01669285 0.01623906 1000 1000 1000 0.01521465 0.0151631 0.01511257 0.01511762 0.01508943 1000 0.01521465 0.0151631 0.01511257 0.01511762 0.01508943 1000
lala 20 0.00234375 0 first 14 1 233 5 3.663281 0.659997701644897 0 0 -1 0 0.01434859 0.01357973 0.01351489 1000 1000 1000 0.01434859 0.01357973 0.01351489 1000 1000 1000 0.01431432 0.014146 0.01433758 0.01448919 0.01461085 1000 0.01431432 0.014146 0.01433758 0.01448919 0.01461085 1000
lala 11 0.6 0 second 10 1 234 6 1.98 0.939997434616089 1 0 -1 0 0.01520679 0.01545483 0.01556968 0.0153081 0.01499472 1000 0.01520679 0.01545483 0.01556968 0.0153081 0.01499472 1000 0.01398957 0.01488214 0.01496236 0.01494513 0.01444092 1000 0.01398957 0.01488214 0.01496236 0.01494513 0.01444092 1000
lala 13 2.4 1 second 17 1 235 6 4.38 0.859997510910034 0 1 1 0 0.01593515 0.01603409 0.01599325 0.01552977 0.01518702 1000 0.01593515 0.01603409 0.01599325 0.01552977 0.01518702 1000 0.01350698 0.01370449 0.01343342 0.01330333 0.01300482 1000 0.01350698 0.01370449 0.01343342 0.01330333 0.01300482 1000
lala 14 1.2 0 second 17 1 236 6 3.18 0.359997987747192 0 1 -1 1 0.01471854 0.01420099 0.01422016 0.01402056 0.01414998 1000 0.01471854 0.01420099 0.01422016 0.01402056 0.01414998 1000 0.01434509 0.01392228 0.01379337 0.01357189 0.01313525 1000 0.01434509 0.01392228 0.01379337 0.01357189 0.01313525 1000
lala 8 1.2 0 second 3 1 237 5 3.050001 0.479997873306274 -1 1 -1 1 0.0130662 0.0131104 0.01320724 0.01289469 0.01278265 1000 0.0130662 0.0131104 0.01320724 0.01289469 0.01278265 1000 0.01314342 0.01308842 0.01308336 0.01292818 0.01290757 1000 0.01314342 0.01308842 0.01308336 0.01292818 0.01290757 1000
lala 15 0.6 1 second 4 1 238 6 2.58 0.479997873306274 -1 0 1 1 0.01072059 0.01101987 0.01096559 0.01094259 0.01107765 1000 0.01072059 0.01101987 0.01096559 0.01094259 0.01107765 1000 0.0116938 0.0111001 0.01083816 0.01114091 0.01106899 1000 0.0116938 0.0111001 0.01083816 0.01114091 0.01106899 1000
lala 15 0.6 0 second 15 1 239 5 3.949999 1.55999684333801 0 1 -1 1 0.01156162 0.01147991 0.01139106 0.01079656 0.01032572 1000 0.01156162 0.01147991 0.01139106 0.01079656 0.01032572 1000 0.01121009 0.01144762 0.01150567 0.01169044 0.01150511 1000 0.01121009 0.01144762 0.01150567 0.01169044 0.01150511 1000
lala 16 0.3 1 first 12 1 240 4 2.94 0.499997854232788 0 0 1 0 0.007386244 0.007598548 0.007543913 1000 1000 1000 0.007386244 0.007598548 0.007543913 1000 1000 1000 0.00958096 0.009795059 0.01008616 0.009945914 0.009687172 1000 0.00958096 0.009795059 0.01008616 0.009945914 0.009687172 1000
lala 17 0.15 1 first 12 1 241 4 2.79 1.41999697685242 0 0 1 0 0.009832936 0.009528127 0.009706843 1000 1000 1000 0.009832936 0.009528127 0.009706843 1000 1000 1000 0.01001252 0.01010612 0.01035622 0.01066521 0.01130207 1000 0.01001252 0.01010612 0.01035622 0.01066521 0.01130207 1000
lala 18 0.15 0 first 12 1 242 4 2.64 1.17999720573425 0 0 -1 0 0.01102708 0.01102008 0.01114571 1000 1000 1000 0.01102708 0.01102008 0.01114571 1000 1000 1000 0.008901431 0.008761296 0.009063113 0.009330296 0.009120072 1000 0.008901431 0.008761296 0.009063113 0.009330296 0.009120072 1000
lala 16 0.0375 1 first 9 1 243 5 4.1 2.159996509552 1 1 1 1 0.01055387 0.01018248 0.01055486 1000 1000 1000 0.01055387 0.01018248 0.01055486 1000 1000 1000 0.009691666 0.01017896 0.01062972 0.01049009 0.009928743 1000 0.009691666 0.01017896 0.01062972 0.01049009 0.009928743 1000
lala 16 0.3 0 second 15 1 244 5 4.25 1.17999720573425 0 1 -1 1 0.01351223 0.01342896 0.01348029 0.0133394 0.01293486 1000 0.01351223 0.01342896 0.01348029 0.0133394 0.01293486 1000 0.01084021 0.01104477 0.01119014 0.01066588 0.01020141 1000 0.01084021 0.01104477 0.01119014 0.01066588 0.01020141 1000
lala 9 1.2 1 second 3 1 245 5 4.250001 1.73999691009521 -1 1 1 1 0.01121624 0.01131745 0.01141272 0.01164348 0.01198583 1000 0.01121624 0.01131745 0.01141272 0.01164348 0.01198583 1000 0.01166239 0.01170118 0.01153949 0.01138772 0.01153078 1000 0.01166239 0.01170118 0.01153949 0.01138772 0.01153078 1000
lala 14 0.15 0 first 11 1 246 6 3.930001 1.31999707221985 1 1 -1 0 0.0141562 0.01475573 0.01474044 1000 1000 1000 0.0141562 0.01475573 0.01474044 1000 1000 1000 0.013276 0.01271507 0.01214699 0.01158785 0.01151636 1000 0.013276 0.01271507 0.01214699 0.01158785 0.01151636 1000
lala 10 0.6 1 second 3 1 247 5 3.650001 0.499997854232788 -1 1 1 1 0.01588122 0.01662904 0.01698036 0.01599487 0.01565227 1000 0.01588122 0.01662904 0.01698036 0.01599487 0.01565227 1000 0.01306169 0.01282789 0.01306045 0.0138364 0.01324126 1000 0.01306169 0.01282789 0.01306045 0.0138364 0.01324126 1000
lala 19 0.075 0 second 12 1 248 4 2.715 1.15999722480774 0 0 -1 0 0.01375024 0.01332856 0.01328881 0.0136103 0.01391425 1000 0.01375024 0.01332856 0.01328881 0.0136103 0.01391425 1000 0.01381359 0.01356885 0.01335624 0.01301773 0.01245587 1000 0.01381359 0.01356885 0.01335624 0.01301773 0.01245587 1000
lala 9 1.2 0 second 7 1 249 4 2.920001 0.899997472763062 1 1 -1 0 0.01254849 0.01273753 0.01278858 0.01260061 0.01274319 1000 0.01254849 0.01273753 0.01278858 0.01260061 0.01274319 1000 0.01350293 0.01323251 0.01296656 0.01220544 0.01213807 1000 0.01350293 0.01323251 0.01296656 0.01220544 0.01213807 1000
lala 15 0.6 0 second 17 1 250 6 3.78 1.27999711036682 0 1 -1 0 0.0009842914 0.00114388 0.0009412359 0.0004669249 -0.0007710769 1000 0.0009842914 0.00114388 0.0009412359 0.0004669249 -0.0007710769 1000 9.504456E-05 -0.0002879181 -0.0007398816 -0.001329388 -0.001579284 1000 9.504456E-05 -0.0002879181 -0.0007398816 -0.001329388 -0.001579284 1000
lala 13 0.3 1 second 0 1 251 4 4.74 0.479997873306274 -1 0 1 1 -0.001295476 -0.001520948 -0.0005566874 9.896758E-05 -0.0003227122 1000 -0.001295476 -0.001520948 -0.0005566874 9.896758E-05 -0.0003227122 1000 -0.004078327 -0.004082582 -0.004353083 -0.004179902 -0.004514732 1000 -0.004078327 -0.004082582 -0.004353083 -0.004179902 -0.004514732 1000
lala 11 0.6 1 first 2 1 252 5 2.1 1.15999722480774 -1 0 1 0 -0.002447922 -0.002835631 -0.00316161 1000 1000 1000 -0.002447922 -0.002835631 -0.00316161 1000 1000 1000 -0.005236187 -0.005497768 -0.005484496 -0.005609369 -0.005841041 1000 -0.005236187 -0.005497768 -0.005484496 -0.005609369 -0.005841041 1000
lala 21 0.00234375 1 second 14 1 253 5 3.665625 1.57999682426453 0 0 1 1 -0.005808959 -0.006108941 -0.005477447 -0.005315382 -0.005797105 1000 -0.005808959 -0.006108941 -0.005477447 -0.005315382 -0.005797105 1000 -0.005709155 -0.00510766 -0.005378686 -0.005807923 -0.005820083 1000 -0.005709155 -0.00510766 -0.005378686 -0.005807923 -0.005820083 1000
lala 12 0.3 0 second 10 1 254 6 2.28 0.679997682571411 1 0 -1 1 -0.003303897 -0.003065723 -0.002828225 -0.002537682 -0.002701963 1000 -0.003303897 -0.003065723 -0.002828225 -0.002537682 -0.002701963 1000 -0.002530914 -0.002530186 -0.003007819 -0.003393938 -0.004055323 1000 -0.002530914 -0.002530186 -0.003007819 -0.003393938 -0.004055323 1000
lala 11 0.6 1 second 3 1 255 5 3.050001 0.159998178482056 -1 1 1 0 -0.003037645 -0.002573477 -0.002363564 -0.00256385 -0.00291232 1000 -0.003037645 -0.002573477 -0.002363564 -0.00256385 -0.00291232 1000 -0.003954278 -0.004111831 -0.004098094 -0.004110019 -0.004125664 1000 -0.003954278 -0.004111831 -0.004098094 -0.004110019 -0.004125664 1000
lala 16 0.6 1 second 17 1 256 6 4.38 0.839997529983521 0 1 1 1 -0.004095149 -0.003979605 -0.003616392 -0.003697737 -0.003231535 1000 -0.004095149 -0.003979605 -0.003616392 -0.003697737 -0.003231535 1000 -0.003697962 -0.003688944 -0.00374785 -0.003616104 -0.003578163 1000 -0.003697962 -0.003688944 -0.00374785 -0.003616104 -0.003578163 1000
lala 17 0.0375 0 first 9 1 257 5 4.0625 1.57999682426453 1 1 -1 0 -0.003946114 -0.003677784 -0.004028895 1000 1000 1000 -0.003946114 -0.003677784 -0.004028895 1000 1000 1000 -0.003719075 -0.003641516 -0.003175708 -0.00313973 -0.003179131 1000 -0.003719075 -0.003641516 -0.003175708 -0.00313973 -0.003179131 1000
lala 20 0.075 1 first 12 1 258 4 2.79 1.63999700546265 0 0 1 1 -0.003031689 -0.003231178 -0.002786933 1000 1000 1000 -0.003031689 -0.003231178 -0.002786933 1000 1000 1000 -0.003600766 -0.003172973 -0.003162101 -0.002917465 -0.003252613 1000 -0.003600766 -0.003172973 -0.003162101 -0.002917465 -0.003252613 1000
lala 16 0.3 0 first 6 1 259 4 4.29 1.97999668121338 1 0 -1 1 -0.002567228 -0.002403869 -0.002021919 1000 1000 1000 -0.002567228 -0.002403869 -0.002021919 1000 1000 1000 -0.0005126492 2.48023E-05 -0.0003178822 -0.001004542 -0.001271762 1000 -0.0005126492 2.48023E-05 -0.0003178822 -0.001004542 -0.001271762 1000
lala 17 0.3 1 first 15 1 260 5 4.55 0.919997453689575 0 1 1 1 0.0002228097 -6.476162E-06 -7.470875E-05 1000 1000 1000 0.0002228097 -6.476162E-06 -7.470875E-05 1000 1000 1000 -6.742497E-05 0.0003301423 0.000715246 0.0003778459 0.0003182442 1000 -6.742497E-05 0.0003301423 0.000715246 0.0003778459 0.0003182442 1000
lala 21 0.0375 0 second 16 1 261 6 4.6725 0.579997777938843 0 0 -1 1 0.0009607957 0.0009463956 0.001580536 0.001209655 0.0008210505 1000 0.0009607957 0.0009463956 0.001580536 0.001209655 0.0008210505 1000 9.444127E-05 0.000470953 -0.0005998497 -0.001308382 -0.001300288 1000 9.444127E-05 0.000470953 -0.0005998497 -0.001308382 -0.001300288 1000
lala 22 0.0375 1 second 16 1 262 6 4.71 1.29999709129334 0 0 1 0 0.002198833 0.00234958 0.002287088 0.002514855 0.002446545 1000 0.002198833 0.00234958 0.002287088 0.002514855 0.002446545 1000 0.002938861 0.002535449 0.002172885 0.00271828 0.002496042 1000 0.002938861 0.002535449 0.002172885 0.00271828 0.002496042 1000
lala 17 0.15 0 first 6 1 263 4 4.44 1.37999701499939 1 0 -1 1 0.004920576 0.004934543 0.005073355 1000 1000 1000 0.004920576 0.004934543 0.005073355 1000 1000 1000 0.004999668 0.004012322 0.004090311 0.003349319 0.003018859 1000 0.004999668 0.004012322 0.004090311 0.003349319 0.003018859 1000
lala 14 0.15 0 first 5 1 264 6 2.130001 2.57999610900879 -1 1 -1 0 0.004756365 0.005417964 0.005232544 1000 1000 1000 0.004756365 0.005417964 0.005232544 1000 1000 1000 0.004281127 0.003988302 0.004092523 0.004032952 0.004212394 1000 0.004281127 0.003988302 0.004092523 0.004032952 0.004212394 1000
lala 16 1.2 1 first 4 1 265 6 1.98 1.55999684333801 -1 0 1 1 0.008827662 0.008301269 0.008182255 1000 1000 1000 0.008827662 0.008301269 0.008182255 1000 1000 1000 0.008338259 0.008251993 0.008741604 0.008785333 0.008348037 1000 0.008338259 0.008251993 0.008741604 0.008785333 0.008348037 1000
lala 13 0.3 1 second 10 1 266 6 2.58 1.97999668121338 1 0 1 0 0.009644027 0.009759535 0.008522751 0.009942119 0.01481938 1000 0.009644027 0.009759535 0.008522751 0.009942119 0.01481938 1000 0.01350983 0.01229058 0.01217565 0.0116775 0.01178967 1000 0.01350983 0.01229058 0.01217565 0.0116775 0.01178967 1000
lala 15 0.15 1 second 5 1 267 6 2.280001 1.61999702453613 -1 1 1 0 0.01090659 0.01064381 0.01076847 0.01108324 0.01137633 1000 0.01090659 0.01064381 0.01076847 0.01108324 0.01137633 1000 0.01040971 0.01059623 0.01048313 0.01038276 0.009745672 1000 0.01040971 0.01059623 0.01048313 0.01038276 0.009745672 1000
lala 17 0.3 0 first 17 1 268 6 4.08 0.559997797012329 0 1 -1 0 0.00864225 0.00938496 0.01087626 1000 1000 1000 0.00864225 0.00938496 0.01087626 1000 1000 1000 0.01080215 0.01083713 0.01099249 0.01081439 0.01038543 1000 0.01080215 0.01083713 0.01099249 0.01081439 0.01038543 1000
lala 12 0.6 1 second 2 1 269 5 1.65 1.37999701499939 -1 0 1 1 0.01027253 0.01080582 0.01016176 0.009358702 0.009800483 1000 0.01027253 0.01080582 0.01016176 0.009358702 0.009800483 1000 0.01160755 0.01172362 0.01095081 0.01061285 0.01033771 1000 0.01160755 0.01172362 0.01095081 0.01061285 0.01033771 1000
lala 18 0.01875 0 first 9 1 270 5 4.08125 1.49999690055847 1 1 -1 0 0.01140383 0.01065391 0.010114 1000 1000 1000 0.01140383 0.01065391 0.010114 1000 1000 1000 0.01176744 0.01176123 0.011556 0.01149981 0.01170857 1000 0.01176744 0.01176123 0.011556 0.01149981 0.01170857 1000
lala 16 0.075 0 second 13 1 271 4 3.52 1.15999722480774 0 1 -1 0 0.01245018 0.0128683 0.01263144 0.0116329 0.01186413 1000 0.01245018 0.0128683 0.01263144 0.0116329 0.01186413 1000 0.01256837 0.01381209 0.01367517 0.01357535 0.01390841 1000 0.01256837 0.01381209 0.01367517 0.01357535 0.01390841 1000
lala 23 0.01875 1 second 16 1 272 6 4.69125 0.419997930526733 0 0 1 1 0.01554221 0.01480122 0.01485579 0.01542019 0.01539766 1000 0.01554221 0.01480122 0.01485579 0.01542019 0.01539766 1000 0.01498097 0.01478699 0.01525755 0.01531819 0.01512224 1000 0.01498097 0.01478699 0.01525755 0.01531819 0.01512224 1000
lala 11 0.3 1 second 1 1 273 4 2.62 0.699997663497925 -1 1 1 0 0.01529598 0.01556273 0.01550884 0.01565006 0.01536589 1000 0.01529598 0.01556273 0.01550884 0.01565006 0.01536589 1000 0.01549892 0.0153243 0.01543798 0.01567096 0.01625273 1000 0.01549892 0.0153243 0.01543798 0.01567096 0.01625273 1000
lala 14 0.3 0 first 0 1 274 4 4.44 2.07999658584595 -1 0 -1 0 0.01744837 0.01708855 0.01578946 1000 1000 1000 0.01744837 0.01708855 0.01578946 1000 1000 1000 0.02201062 0.02315826 0.02178632 0.02242513 0.02228347 1000 0.02201062 0.02315826 0.02178632 0.02242513 0.02228347 1000
lala 15 0.15 1 first 11 1 275 6 4.080001 1.21999716758728 1 1 1 0 0.02046418 0.02063571 0.01910826 1000 1000 1000 0.02046418 0.02063571 0.01910826 1000 1000 1000 0.01862773 0.01838618 0.0181154 0.01776853 0.01783939 1000 0.01862773 0.01838618 0.0181154 0.01776853 0.01783939 1000
lala 15 0.15 1 first 0 1 276 4 4.59 1.43999695777893 -1 0 1 0 0.01777382 0.01662721 0.01619938 1000 1000 1000 0.01777382 0.01662721 0.01619938 1000 1000 1000 0.01634737 0.01631351 0.01637244 0.01653963 0.01659904 1000 0.01634737 0.01631351 0.01637244 0.01653963 0.01659904 1000
lala 12 0.6 0 second 3 1 277 5 2.450001 1.73999691009521 -1 1 -1 0 0.01128472 0.0120614 0.01226463 0.01267499 0.01241568 1000 0.01128472 0.0120614 0.01226463 0.01267499 0.01241568 1000 0.01026303 0.009916062 0.009730927 0.01046359 0.01040419 1000 0.01026303 0.009916062 0.009730927 0.01046359 0.01040419 1000
lala 11 0.6 0 first 8 1 278 5 4.05 1.67999696731567 1 0 -1 1 0.01012588 0.01003282 0.009857103 1000 1000 1000 0.01012588 0.01003282 0.009857103 1000 1000 1000 0.01033288 0.01061049 0.01084633 0.01100144 0.01095601 1000 0.01033288 0.01061049 0.01084633 0.01100144 0.01095601 1000
lala 18 0.15 1 first 15 1 279 5 4.4 1.83999681472778 0 1 1 1 0.006198882 0.005213438 0.00428277 1000 1000 1000 0.006198882 0.005213438 0.00428277 1000 1000 1000 0.005508754 0.005306645 0.00619494 0.005889521 0.00537028 1000 0.005508754 0.005306645 0.00619494 0.005889521 0.00537028 1000
lala 22 0.001171875 0 second 14 1 280 5 3.664453 0.659997701644897 0 0 -1 0 0.007618441 0.006803707 0.007684942 0.004987906 0.0037975 1000 0.007618441 0.006803707 0.007684942 0.004987906 0.0037975 1000 0.01388462 0.01408453 0.01412883 0.01404452 0.01269985 1000 0.01388462 0.01408453 0.01412883 0.01404452 0.01269985 1000
lala 23 0.0005859375 0 second 14 1 281 5 3.665039 1.67999696731567 0 0 -1 0 0.005093956 0.005964936 0.0063372 0.005349709 0.004307233 1000 0.005093956 0.005964936 0.0063372 0.005349709 0.004307233 1000 -0.001817042 -0.002508359 -0.00276466 -0.003415876 -0.003407522 1000 -0.001817042 -0.002508359 -0.00276466 -0.003415876 -0.003407522 1000
lala 14 0.15 0 second 10 1 282 6 2.43 0.379997968673706 1 0 -1 1 -0.00533221 -0.005088432 -0.004947057 -0.004744375 -0.004635168 1000 -0.00533221 -0.005088432 -0.004947057 -0.004744375 -0.004635168 1000 -0.003914587 -0.004382289 -0.004616458 -0.004543888 -0.004383732 1000 -0.003914587 -0.004382289 -0.004616458 -0.004543888 -0.004383732 1000
lala 18 0.15 1 second 6 1 283 4 4.59 1.49999690055847 1 0 1 1 -0.005263664 -0.004744232 -0.006245942 -0.005606619 -0.005305333 1000 -0.005263664 -0.004744232 -0.006245942 -0.005606619 -0.005305333 1000 -0.00485986 -0.005201436 -0.005332502 -0.005518517 -0.00607477 1000 -0.00485986 -0.005201436 -0.005332502 -0.005518517 -0.00607477 1000
lala 13 0.3 1 first 3 1 284 5 2.750001 2.03999662399292 -1 1 1 0 -0.0046548 -0.004862308 -0.004906723 1000 1000 1000 -0.0046548 -0.004862308 -0.004906723 1000 1000 1000 -0.005733924 -0.005871457 -0.005650561 -0.005661752 -0.005359853 1000 -0.005733924 -0.005871457 -0.005650561 -0.005661752 -0.005359853 1000
lala 24 0.01875 1 second 16 1 285 6 4.6725 0.499997854232788 0 0 1 1 -0.005610553 -0.00532263 -0.004695829 -0.004676397 -0.004207149 1000 -0.005610553 -0.00532263 -0.004695829 -0.004676397 -0.004207149 1000 -0.005894762 -0.0063769 -0.00613368 -0.006136978 -0.00550418 1000 -0.005894762 -0.0063769 -0.00613368 -0.006136978 -0.00550418 1000
lala 13 1.2 1 second 2 1 286 5 1.65 0.799997568130493 -1 0 1 1 -0.005362254 -0.005196219 -0.004713518 -0.004559084 -0.004685792 1000 -0.005362254 -0.005196219 -0.004713518 -0.004559084 -0.004685792 1000 -0.005846985 -0.006082733 -0.006147985 -0.00656758 -0.007365653 1000 -0.005846985 -0.006082733 -0.006147985 -0.00656758 -0.007365653 1000
lala 18 0.15 1 first 17 1 287 6 4.23 1.11999726295471 0 1 1 1 -0.007366353 -0.007738538 -0.007694412 1000 1000 1000 -0.007366353 -0.007738538 -0.007694412 1000 1000 1000 -0.007375095 -0.008017116 -0.007902152 -0.008350143 -0.009018459 1000 -0.007375095 -0.008017116 -0.007902152 -0.008350143 -0.009018459 1000
lala 14 2.4 0 second 2 1 288 5 1.65 1.97999668121338 -1 0 -1 0 -0.01031727 -0.009641077 -0.009668901 -0.009400396 -0.009520467 1000 -0.01031727 -0.009641077 -0.009668901 -0.009400396 -0.009520467 1000 -0.01101249 -0.01102104 -0.01124121 -0.01150522 -0.01169793 1000 -0.01101249 -0.01102104 -0.01124121 -0.01150522 -0.01169793 1000
lala 12 0.3 0 first 8 1 289 5 4.35 3.7599949836731 1 0 -1 1 -0.01094612 -0.01130785 -0.01151186 1000 1000 1000 -0.01094612 -0.01130785 -0.01151186 1000 1000 1000 -0.01500564 -0.01394646 -0.0136444 -0.01374916 -0.01365232 1000 -0.01500564 -0.01394646 -0.0136444 -0.01374916 -0.01365232 1000
lala 17 0.0375 0 second 13 1 290 4 3.5575 3.1799955368042 0 1 -1 0 -0.0169066 -0.01684214 -0.01646288 -0.01637549 -0.01627721 1000 -0.0169066 -0.01684214 -0.01646288 -0.01637549 -0.01627721 1000 -0.01620255 -0.01616174 -0.01629499 -0.01625735 -0.01638976 1000 -0.01620255 -0.01616174 -0.01629499 -0.01625735 -0.01638976 1000
lala 15 1.2 1 second 2 1 291 5 2.85 1.47999691963196 -1 0 1 1 -0.01757713 -0.017055 -0.01655868 -0.01631892 -0.01597729 1000 -0.01757713 -0.017055 -0.01655868 -0.01631892 -0.01597729 1000 -0.01602057 -0.01609186 -0.01626117 -0.01630762 -0.01618155 1000 -0.01602057 -0.01609186 -0.01626117 -0.01630762 -0.01618155 1000
lala 16 0.075 1 first 5 1 292 6 2.205001 2.03999662399292 -1 1 1 0 -0.01587336 -0.01562213 -0.01569727 1000 1000 1000 -0.01587336 -0.01562213 -0.01569727 1000 1000 1000 -0.01527244 -0.01529117 -0.01494616 -0.0154088 -0.01557092 1000 -0.01527244 -0.01529117 -0.01494616 -0.0154088 -0.01557092 1000
lala 17 2.4 1 first 4 1 293 6 1.98 2.01999664306641 -1 0 1 1 -0.01408078 -0.01409944 -0.01405625 1000 1000 1000 -0.01408078 -0.01409944 -0.01405625 1000 1000 1000 -0.01460744 -0.01454473 -0.01431594 -0.01395542 -0.01467224 1000 -0.01460744 -0.01454473 -0.01431594 -0.01395542 -0.01467224 1000
lala 19 0.01875 0 first 9 1 294 5 4.1 1.95999670028687 1 1 -1 0 -0.01379224 -0.0139619 -0.01399048 1000 1000 1000 -0.01379224 -0.0139619 -0.01399048 1000 1000 1000 -0.01314321 -0.01330766 -0.01306477 -0.01338955 -0.01297318 1000 -0.01314321 -0.01330766 -0.01306477 -0.01338955 -0.01297318 1000
lala 20 0.01875 1 first 9 1 295 5 4.118751 2.61999607086182 1 1 1 1 -0.01400077 -0.01415776 -0.01318381 1000 1000 1000 -0.01400077 -0.01415776 -0.01318381 1000 1000 1000 -0.01226466 -0.01227966 -0.01216863 -0.01213117 -0.01200526 1000 -0.01226466 -0.01227966 -0.01216863 -0.01213117 -0.01200526 1000
lala 13 0.3 1 first 8 1 296 5 4.650001 2.01999664306641 1 0 1 0 0.001885213 0.003859846 0.004708769 1000 1000 1000 0.001885213 0.003859846 0.004708769 1000 1000 1000 0.003525221 0.004367572 0.004309718 0.00385048 0.004659577 1000 0.003525221 0.004367572 0.004309718 0.00385048 0.004659577 1000
lala 24 0.0005859375 1 first 14 1 297 5 3.665625 1.79999685287476 0 0 1 1 0.006706551 0.006563336 0.006897752 1000 1000 1000 0.006706551 0.006563336 0.006897752 1000 1000 1000 0.006443496 0.006852491 0.007640638 0.007009017 0.006320567 1000 0.006443496 0.006852491 0.007640638 0.007009017 0.006320567 1000
lala 14 0.15 1 second 8 1 298 5 4.5 0.739997625350952 1 0 1 0 0.00320268 0.003256178 0.00322682 0.003028443 0.003344759 1000 0.00320268 0.003256178 0.00322682 0.003028443 0.003344759 1000 0.001728549 0.001504155 0.001387026 0.001024892 0.0009077883 1000 0.001728549 0.001504155 0.001387026 0.001024892 0.0009077883 1000
lala 17 0.075 0 first 5 1 299 6 2.130001 2.55999612808228 -1 1 -1 1 -0.002361842 -0.002010831 -0.002519595 1000 1000 1000 -0.002361842 -0.002010831 -0.002519595 1000 1000 1000 -0.001438599 -0.00116501 -0.001020483 -0.001394094 -0.001524101 1000 -0.001438599 -0.00116501 -0.001020483 -0.001394094 -0.001524101 1000
lala 16 0.6 1 first 2 1 300 5 2.25 1.37999701499939 -1 0 1 0 -0.01400878 -0.005595118 -0.003827209 -0.007311495 -0.008673816 -0.008892702 -0.01400878 -0.005595118 -0.003827209 -0.007311495 -0.008673816 -0.008892702 -0.009215939 -0.009535222 -0.0088911 -0.009574489 -0.009788865 1000 -0.009215939 -0.009535222 -0.0088911 -0.009574489 -0.009788865 1000
lala 25 0.0002929688 1 second 14 1 301 5 3.665332 1.11999726295471 0 0 1 1 -0.01276985 -0.01305845 -0.0135034 -0.01405872 -0.01440085 1000 -0.01276985 -0.01305845 -0.0135034 -0.01405872 -0.01440085 1000 -0.01473439 -0.01525771 -0.01545016 -0.0159462 -0.01568026 1000 -0.01473439 -0.01525771 -0.01545016 -0.0159462 -0.01568026 1000
lala 18 0.0375 1 first 13 1 302 4 3.595 0.61999773979187 0 1 1 1 -0.01664912 -0.01640142 -0.01654032 1000 1000 1000 -0.01664912 -0.01640142 -0.01654032 1000 1000 1000 -0.01772173 -0.01751146 -0.01757496 -0.01689648 -0.01739707 1000 -0.01772173 -0.01751146 -0.01757496 -0.01689648 -0.01739707 1000
lala 21 0.0375 0 first 12 1 303 4 2.7525 1.03999733924866 0 0 -1 1 -0.01467043 -0.01497379 -0.01544993 1000 1000 1000 -0.01467043 -0.01497379 -0.01544993 1000 1000 1000 -0.01354793 -0.01313409 -0.01262222 -0.01303186 -0.01324417 1000 -0.01354793 -0.01313409 -0.01262222 -0.01303186 -0.01324417 1000
lala 16 0.075 1 second 11 1 304 6 4.005001 2.75999593734741 1 1 1 1 -0.009685561 -0.00997828 -0.01067117 -0.01098093 -0.01013412 1000 -0.009685561 -0.00997828 -0.01067117 -0.01098093 -0.01013412 1000 -0.009461232 -0.009577926 -0.009891703 -0.01017442 -0.01039807 1000 -0.009461232 -0.009577926 -0.009891703 -0.01017442 -0.01039807 1000
lala 18 0.0375 1 first 5 1 305 6 2.167501 1.77999687194824 -1 1 1 1 -0.007789162 -0.007317025 -0.006517405 1000 1000 1000 -0.007789162 -0.007317025 -0.006517405 1000 1000 1000 0.02330514 0.02293837 0.02170706 0.02294853 0.02147958 1000 0.02330514 0.02293837 0.02170706 0.02294853 0.02147958 1000
lala 21 0.009375 0 first 9 1 306 5 4.109375 1.91999673843384 1 1 -1 0 0.0150183 0.01483629 0.01422847 1000 1000 1000 0.0150183 0.01483629 0.01422847 1000 1000 1000 0.01014991 0.01021942 0.009203194 0.008887929 0.008285074 1000 0.01014991 0.01021942 0.009203194 0.008887929 0.008285074 1000
lala 19 0.15 1 second 15 1 307 5 4.25 0.759997606277466 0 1 1 1 0.009240647 0.01047307 0.01108451 0.01100089 0.01149782 1000 0.009240647 0.01047307 0.01108451 0.01100089 0.01149782 1000 0.009986056 0.009100736 0.008389333 0.008318503 0.007572291 1000 0.009986056 0.009100736 0.008389333 0.008318503 0.007572291 1000
lala 19 0.075 1 first 6 1 308 4 4.515 0.779997587203979 1 0 1 1 0.01545591 0.01403871 0.01426038 1000 1000 1000 0.01545591 0.01403871 0.01426038 1000 1000 1000 0.01187447 0.01234225 0.01420163 0.01378799 0.01013227 1000 0.01187447 0.01234225 0.01420163 0.01378799 0.01013227 1000
lala 15 0.075 0 second 10 1 309 6 2.505 1.81999683380127 1 0 -1 0 -0.002254807 -0.002285937 -0.001225777 -0.0005487183 -0.0003779737 1000 -0.002254807 -0.002285937 -0.001225777 -0.0005487183 -0.0003779737 1000 -0.001162335 -0.0004866584 0.0006080542 0.001632323 0.001677939 1000 -0.001162335 -0.0004866584 0.0006080542 0.001632323 0.001677939 1000
lala 10 0.6 1 first 7 1 310 4 3.520001 2.35999631881714 1 1 1 0 0.00123396 0.0005160227 0.001085436 1000 1000 1000 0.00123396 0.0005160227 0.001085436 1000 1000 1000 0.00230889 0.002840064 0.003031101 0.003112182 0.003114203 1000 0.00230889 0.002840064 0.003031101 0.003112182 0.003114203 1000
lala 18 4.8 1 second 4 1 311 6 1.98 0.499997854232788 -1 0 1 1 0.005553009 0.006172436 0.006342886 0.0066951 0.006764415 1000 0.005553009 0.006172436 0.006342886 0.0066951 0.006764415 1000 0.004979237 0.004981654 0.004825365 0.004472092 0.004608138 1000 0.004979237 0.004981654 0.004825365 0.004472092 0.004608138 1000
lala 20 0.15 1 second 15 1 312 5 4.099999 1.55999684333801 0 1 1 0 0.007850377 0.007326946 0.007667039 0.008218259 0.008331172 1000 0.007850377 0.007326946 0.007667039 0.008218259 0.008331172 1000 0.008478654 0.007805728 0.00837361 0.007945148 0.007558706 1000 0.008478654 0.007805728 0.00837361 0.007945148 0.007558706 1000
lala 22 0.01875 0 second 12 1 313 4 2.77125 1.49999690055847 0 0 -1 0 0.01102673 0.01096442 0.01119237 0.01126402 0.01069626 1000 0.01102673 0.01096442 0.01119237 0.01126402 0.01069626 1000 0.01003468 0.009825235 0.009607957 0.009416857 0.009747097 1000 0.01003468 0.009825235 0.009607957 0.009416857 0.009747097 1000
lala 15 0.15 1 first 8 1 314 5 4.35 1.01999735832214 1 0 1 1 0.009983613 0.01098173 0.01278591 1000 1000 1000 0.009983613 0.01098173 0.01278591 1000 1000 1000 0.02485737 0.02517447 0.02479448 0.02278609 0.005323673 1000 0.02485737 0.02517447 0.02479448 0.02278609 0.005323673 1000
lala 19 0.01875 1 second 5 1 315 6 2.148751 2.2999963760376 -1 1 1 0 0.01033405 0.01024839 0.01037466 0.01014005 0.009985993 1000 0.01033405 0.01024839 0.01037466 0.01014005 0.009985993 1000 0.009414974 0.00996701 0.009876987 0.009584268 0.008555694 1000 0.009414974 0.00996701 0.009876987 0.009584268 0.008555694 1000
lala 19 9.6 1 second 4 1 316 6 1.98 0.499997854232788 -1 0 1 1 0.008376992 0.007714976 0.007789417 0.007194223 0.007560719 1000 0.008376992 0.007714976 0.007789417 0.007194223 0.007560719 1000 0.006082539 0.005941746 0.005887454 0.006473793 0.005955786 1000 0.006082539 0.005941746 0.005887454 0.006473793 0.005955786 1000
lala 19 0.075 0 second 17 1 317 6 4.155 1.15999722480774 0 1 -1 1 0.006270641 0.006197023 0.005937633 0.005927186 0.005763888 1000 0.006270641 0.006197023 0.005937633 0.005927186 0.005763888 1000 0.005959059 0.005937085 0.006060916 0.006172779 0.006132095 1000 0.005959059 0.005937085 0.006060916 0.006172779 0.006132095 1000
lala 26 0.0002929688 1 second 14 1 318 5 3.665039 0.339998006820679 0 0 1 1 0.004124733 0.003848236 0.004072888 0.004018425 0.004005716 1000 0.004124733 0.003848236 0.004072888 0.004018425 0.004005716 1000 0.002165063 0.002132058 0.001801148 0.001304672 0.0008795297 1000 0.002165063 0.002132058 0.001801148 0.001304672 0.0008795297 1000
lala 19 0.01875 0 second 13 1 319 4 3.57625 0.899997472763062 0 1 -1 1 0.0003229225 0.0005902509 0.0001966223 0.0002651281 0.00063763 1000 0.0003229225 0.0005902509 0.0001966223 0.0002651281 0.00063763 1000 0.0006577896 0.0002866474 0.0001394413 0.0004623482 -6.706123E-05 1000 0.0006577896 0.0002866474 0.0001394413 0.0004623482 -6.706123E-05 1000
lala 23 0.01875 1 second 12 1 320 4 2.79 1.35999703407288 0 0 1 0 -0.001093744 -0.0002674057 -0.0003384349 -0.0008758733 -0.0004936504 1000 -0.001093744 -0.0002674057 -0.0003384349 -0.0008758733 -0.0004936504 1000 -0.001430352 -0.001946972 -0.003217926 -0.003990637 -0.004027228 1000 -0.001430352 -0.001946972 -0.003217926 -0.003990637 -0.004027228 1000
lala 16 0.15 1 first 8 1 321 5 4.2 1.93999671936035 1 0 1 1 -0.0049505 -0.004771165 -0.005247599 1000 1000 1000 -0.0049505 -0.004771165 -0.005247599 1000 1000 1000 -0.003698801 -0.003442353 -0.002903321 -0.003185226 -0.003228267 1000 -0.003698801 -0.003442353 -0.002903321 -0.003185226 -0.003228267 1000
lala 14 0.15 1 first 3 1 322 5 2.600001 2.31999635696411 -1 1 1 1 -0.00211799 -0.002316687 -0.002104003 1000 1000 1000 -0.00211799 -0.002316687 -0.002104003 1000 1000 1000 -0.00411412 -0.003778118 -0.003994521 -0.004204641 -0.004170924 1000 -0.00411412 -0.003778118 -0.003994521 -0.004204641 -0.004170924 1000
