subject PestNr Step_Size_OnTrial Pest_Faster Pest_Interval Condition block trial velH velH_Pest Reaction_Time velH_Subject Start_Above Response_MotionEstimation RightOrLeftxRotations_first0 xRotations_first1 xRotations_first2 xRotations_first3 xRotations_first4 xRotations_first5 yRotations_first0 yRotations_first1 yRotations_first2 yRotations_first3 yRotations_first4 yRotations_first5 xRotations_second0 xRotations_second1 xRotations_second2 xRotations_second3 xRotations_second4 xRotations_second5 yRotations_second0 yRotations_second1 yRotations_second2 yRotations_second3 yRotations_second4 yRotations_second5
lala 1 1.2 1 second 0 1 1 3 3.99 1.45999693870544 0 1 1 0 0.00977649 -0.002589998 0.002366992 0.005524153 0.005602868 1000 -0.003154996 -0.002509799 -0.004410259 -0.00353136 0.001063811 1000 -0.005033579 -0.005490086 -0.005841624 -0.006327167 -0.007335082 1000 0.001865554 0.002296783 -0.005841624 0.002657488 0.002142988 1000
lala 2 1.2 1 first 0 1 2 3 2.79 0.519997835159302 0 1 1 1 -0.01800918 -0.01806846 -0.01804157 -0.01834048 -0.01822355 1000 -0.00186548 -0.002204587 -0.001867248 -0.001168116 -0.002083928 1000 -0.01839318 -0.01841895 -0.01901392 -0.01935693 -0.01952105 1000 -0.002693409 -0.002286923 -0.01901392 -0.002089107 -0.001928832 1000
lala 3 1.2 0 second 0 1 3 3 1.59 0.479997873306274 0 1 -1 1 -0.01902428 -0.01807924 -0.0180234 -0.01841365 -0.01863289 1000 -0.0008030161 -0.0006923734 -0.000588674 -0.0008324903 -0.0006490696 1000 -0.02059529 -0.02091944 -0.02108523 -0.02165064 -0.02098055 1000 -0.0006770387 -0.001014743 -0.02108523 -0.001378972 -0.001424968 1000
lala 4 1.2 0 first 0 1 4 3 2.79 0.719997644424438 0 1 -1 1 -0.02261604 -0.02230208 -0.02186795 -0.02206443 -0.02210897 1000 -0.00215511 -0.002203781 -0.001399601 -0.001102866 -0.001569731 1000 -0.02331731 -0.02276574 -0.02242918 -0.0227358 -0.02330697 1000 -0.002194924 -0.00187787 -0.02242918 -0.001177131 -0.001609072 1000
lala 5 1.2 1 second 0 1 5 3 3.99 0.419997930526733 0 1 1 1 0.004630729 0.005714538 0.005697316 0.005356328 0.004598978 1000 0.005079601 0.004479126 0.004599517 0.004688681 0.005152177 1000 0.0001666747 -0.001004988 -0.001828121 -0.002568727 -0.002207005 1000 0.005336273 0.004971029 -0.001828121 0.00460173 0.004855027 1000
lala 6 0.6 0 second 0 1 6 3 3.39 0.659997701644897 0 1 -1 0 -0.003139029 -0.003349881 -0.00322503 -0.003385374 -0.003368585 1000 0.004561578 0.003872775 0.004065895 0.004842205 0.004562105 1000 -0.003354555 -0.003943293 -0.003706925 -0.00410692 -0.004129762 1000 0.005434579 0.00495177 -0.003706925 0.005654946 0.005430921 1000
lala 7 0.3 1 second 0 1 7 3 3.69 0.339998006820679 0 1 1 0 -0.005132339 -0.004442642 -0.004410944 -0.004333265 -0.004380677 1000 0.005244184 0.004854012 0.004955834 0.00476098 0.005336531 1000 -0.003742533 -0.003448799 -0.003226648 -0.00322565 -0.002943839 1000 0.004537934 0.004555715 -0.003226648 0.00421633 0.005146695 1000
lala 8 0.15 1 first 0 1 8 3 3.54 0.639997720718384 0 1 1 0 -0.005033968 -0.00499984 -0.004624438 -0.004364762 -0.004628606 1000 0.00417807 0.004072024 0.004061846 0.004290082 0.004758094 1000 -0.004790417 -0.005091178 -0.004895915 -0.004368246 -0.004507361 1000 0.004285936 0.004539281 -0.004895915 0.004268749 0.004707078 1000
lala 9 0.15 0 second 0 1 9 3 3.39 0.39999794960022 0 1 -1 0 -0.005906693 -0.00626088 -0.005819071 -0.00499681 -0.005476336 1000 0.003228392 0.003919946 0.003544442 0.003276914 0.003307277 1000 -0.005067992 -0.00492151 -0.004629735 -0.004284022 -0.004550199 1000 0.003169887 0.003380295 -0.004629735 0.002835465 0.003187513 1000
lala 10 0.075 0 second 0 1 10 3 3.465 0.639997720718384 0 1 -1 0 -0.0002532302 -0.0005862323 -0.0006867096 -0.0006789179 -0.0006018279 1000 0.004521424 0.00495581 0.004045459 0.004095512 0.004265599 1000 -0.001970852 -0.001788795 -0.002200928 -0.002016739 -0.001824053 1000 0.003102788 0.003024156 -0.002200928 0.00261822 0.002385889 1000
lala 11 0.075 1 first 0 1 11 3 3.54 0.479997873306274 0 1 1 0 -0.001520486 -0.001050795 -0.0003961425 -0.0002463282 -0.0009757288 1000 0.002508939 0.003069416 0.00287527 0.002962419 0.002857388 1000 -0.0006717943 -0.0005238017 -0.0009343673 -0.001669184 -0.001854536 1000 0.002411972 0.002962288 -0.0009343673 0.002086615 0.002335425 1000
lala 12 0.0375 0 second 0 1 12 3 3.5025 0.639997720718384 0 1 -1 1 0.0003465198 -0.0001097125 -0.0002041117 0.0004570658 0.0004810719 1000 0.002965508 0.00301994 0.002189257 0.003002356 0.003613355 1000 0.001646443 0.0007893384 6.693838E-05 0.0006828903 0.00093231 1000 0.004423593 0.004949011 6.693838E-05 0.00495737 0.00550149 1000
lala 13 0.01875 1 first 0 1 13 3 3.52125 0.959997415542603 0 1 1 0 -0.0002823362 0.0002319035 0.0004509028 0.0001064897 0.0006609449 1000 0.004743798 0.00458924 0.004688204 0.004129677 0.004277863 1000 0.001897079 0.001871846 0.001682363 0.001224748 0.001259044 1000 0.00395714 0.003675357 0.001682363 0.00372934 0.00380423 1000
lala 14 0.009375 1 second 0 1 14 3 3.511875 1.23999714851379 0 1 1 0 6.230792E-05 0.0007451609 0.00137025 0.001406602 0.001251158 1000 0.003162822 0.003640796 0.003610196 0.00348889 0.003515066 1000 0.001620658 0.001955477 0.002308585 0.002540004 0.002290406 1000 0.002741556 0.003156923 0.002308585 0.002495773 0.003005546 1000
lala 15 0.009375 1 second 0 1 15 3 3.5025 0.839997529983521 0 1 1 0 0.01034735 0.009755746 0.009523134 0.009565022 0.008794388 1000 0.004630142 0.004884539 0.00480003 0.005204949 0.005348673 1000 0.009938558 0.009913139 0.009955755 0.009986026 0.009448024 1000 0.004602477 0.00515626 0.009955755 0.005370355 0.005276778 1000
lala 16 0.009375 1 first 0 1 16 3 3.493125 0.61999773979187 0 1 1 1 0.01118611 0.01183162 0.01241233 0.01220216 0.01141883 1000 0.003885263 0.004073603 0.003828651 0.004056878 0.003610553 1000 0.0121525 0.01205029 0.01171791 0.01162608 0.01112867 1000 0.004151503 0.004295432 0.01171791 0.003864696 0.00395277 1000
lala 17 0.01875 1 first 0 1 17 3 3.474375 0.639997720718384 0 1 1 0 0.01211304 0.01284151 0.01285167 0.01285998 0.01275652 1000 0.003513642 0.003903233 0.004396926 0.003953184 0.003567284 1000 0.01369765 0.01399058 0.01378347 0.01288496 0.01258605 1000 0.003824507 0.003861733 0.01378347 0.004644843 0.004157731 1000
lala 18 0.0375 1 first 0 1 18 3 3.436875 0.639997720718384 0 1 1 1 0.01366751 0.01370101 0.01357064 0.01378758 0.01358144 1000 0.003546919 0.004024566 0.003437249 0.003827031 0.004247447 1000 0.01310693 0.01339483 0.0131814 0.01363655 0.01270807 1000 0.004450119 0.004890069 0.0131814 0.004708864 0.004852103 1000
lala 19 0.075 1 first 0 1 19 3 3.361875 0.759997606277466 0 1 1 0 0.01360967 0.01389168 0.01353963 0.01371832 0.01380141 1000 0.00501455 0.004242512 0.003638094 0.004482618 0.004071247 1000 0.01404011 0.01384509 0.01395836 0.01386708 0.01374193 1000 0.005005402 0.004374128 0.01395836 0.004766487 0.004864505 1000
lala 20 0.15 1 first 0 1 20 3 3.211875 0.99999737739563 0 1 1 1 0.01477095 0.01506873 0.01516536 0.01453622 0.01431267 1000 0.004897621 0.004791496 0.005159519 0.005635832 0.005194913 1000 0.01504066 0.01544813 0.015457 0.01523471 0.01525063 1000 0.005171008 0.005817155 0.015457 0.005579508 0.005503699 1000
lala 21 0.3 0 second 0 1 21 3 2.911875 0.539997816085815 0 1 -1 0 0.01502251 0.01504205 0.01552667 0.01533719 0.01507078 1000 0.00466711 0.004788831 0.005094868 0.005874758 0.006069119 1000 0.01609947 0.01640778 0.01654739 0.01627252 0.01639683 1000 0.005604341 0.005170902 0.01654739 0.006120309 0.005290122 1000
lala 22 0.15 1 first 0 1 22 3 3.061875 0.659997701644897 0 1 1 1 0.01654882 0.01638807 0.01609884 0.01586709 0.01638041 1000 0.005222899 0.004916908 0.004741229 0.004446074 0.004647002 1000 0.01692908 0.01725882 0.01740633 0.01783349 0.01718178 1000 0.005779443 0.005574438 0.01740633 0.005519262 0.006657218 1000
lala 23 0.075 1 second 0 1 23 3 2.986875 1.05999732017517 0 1 1 0 0.01911698 0.01880089 0.01804574 0.0172359 0.01720251 1000 0.005745144 0.005637502 0.004424248 0.004786029 0.005145389 1000 0.01794064 0.01825617 0.01807035 0.01791273 0.01788767 1000 0.005413783 0.00495503 0.01807035 0.004895715 0.004737844 1000
lala 24 0.075 0 second 0 1 24 3 2.911875 0.919997453689575 0 1 -1 0 0.01904925 0.01887538 0.01914466 0.01931472 0.01917644 1000 0.0045105 0.004591153 0.00370716 0.003833369 0.003780087 1000 0.01971633 0.01954736 0.01940645 0.01939229 0.01933064 1000 0.00477925 0.004356318 0.01940645 0.004213715 0.00405715 1000
lala 25 0.0375 0 second 0 1 25 3 2.949375 0.799997568130493 0 1 -1 0 0.02148969 0.02179414 0.02164748 0.02125173 0.02105459 1000 0.003263195 0.003001399 0.003532817 0.003446236 0.003417489 1000 0.0220022 0.02195372 0.02260423 0.0223477 0.0223356 1000 0.003509518 0.002955615 0.02260423 0.003198672 0.002759342 1000
lala 26 0.0375 1 second 0 1 26 3 2.986875 0.759997606277466 0 1 1 0 0.02200748 0.02210177 0.02198159 0.02205127 0.02187038 1000 0.001255164 0.001850361 0.001968138 0.001984861 0.002125139 1000 0.02252125 0.02277618 0.02298006 0.02358958 0.02347592 1000 0.002223505 0.002532519 0.02298006 0.002333422 0.002071833 1000
