subject PestNr Step_Size_OnTrial Pest_Faster Pest_Interval Condition block trial velH velH_Pest Reaction_Time velH_Subject Start_Above Response_MotionEstimation RightOrLeftxRotations_first0 xRotations_first1 xRotations_first2 xRotations_first3 xRotations_first4 xRotations_first5 yRotations_first0 yRotations_first1 yRotations_first2 yRotations_first3 yRotations_first4 yRotations_first5 xRotations_second0 xRotations_second1 xRotations_second2 xRotations_second3 xRotations_second4 xRotations_second5 yRotations_second0 yRotations_second1 yRotations_second2 yRotations_second3 yRotations_second4 yRotations_second5
lala 1 1.2 0 second 0 1 1 3 3.99 5.17999362945557 0 1 -1 0 0.001148551 0.0002699179 -0.0002464891 -0.0001866607 0.0003718956 1000 0.0006418255 -0.0002060845 -7.339968E-05 0.0004531689 0.0001547519 1000 -0.0001765361 -0.000205666 0.0002863632 0.0004137159 0.0006138224 1000 0.0009077541 0.000184691 0.0002863632 -0.0007140778 -0.000388344 1000
lala 2 1.2 0 second 0 1 2 3 5.190001 0.01999831199646 0 1 -1 0 -0.002299264 -0.001925651 -0.001741569 -0.001272151 -0.001589606 1000 0.004285664 0.003807781 0.003365364 0.002970493 0.002223023 1000 -0.0003733237 -0.00036106 -0.0005748178 -0.0008412455 0.0004915898 1000 0.00301377 0.002430976 -0.0005748178 0.002612627 0.002479888 1000
lala 3 1.2 0 second 0 1 3 3 6.39 3.71999502182007 0 1 -1 0 -0.001690494 -0.002063324 -0.001940119 -0.001841916 -0.001726379 1000 -0.001928005 -0.001355111 -0.001427428 -0.001838771 -0.001927559 1000 -0.001222977 -0.0006154965 -0.0005914742 -0.0008620227 -0.0006918827 1000 -0.002129418 -0.002807903 -0.0005914742 -0.001455504 -0.001477901 1000
lala 4 1.2 1 second 0 1 4 3 7.59 6.06000375747681 0 1 1 1 0.01094201 0.01150807 0.01250772 0.01342845 0.01399272 1000 0.003236108 0.002789376 0.003394454 0.003841916 0.003983112 1000 0.01209823 0.0118797 0.0120067 0.01239695 0.01234036 1000 0.005173767 0.005145255 0.0120067 0.004378542 0.003724596 1000
lala 5 0.6 1 first 0 1 5 3 6.99 1.41999697685242 0 1 1 1 -0.01642611 -0.01575626 -0.01560849 -0.01458657 -0.01369295 1000 -0.005673119 -0.005612324 -0.004718998 -0.00476329 -0.005046304 1000 -0.01376218 -0.01304604 -0.01332052 -0.01356552 -0.01372042 1000 -0.00347568 -0.003745541 -0.01332052 -0.003084381 -0.003013683 1000
lala 6 0.6 1 second 0 1 6 3 6.39 0.539997816085815 0 1 1 0 -0.01351826 -0.01342561 -0.0136113 -0.01365049 -0.01309196 1000 -0.002537054 -0.00228083 -0.003002885 -0.003522935 -0.003946013 1000 -0.01366728 -0.01429597 -0.0139642 -0.01300769 -0.01273754 1000 -0.003415172 -0.002923439 -0.0139642 -0.003558466 -0.003717713 1000
lala 7 0.6 1 first 0 1 7 3 5.79 0.699997663497925 0 1 1 0 -0.01373759 -0.01349064 -0.01361381 -0.01393761 -0.01373313 1000 -0.003921534 -0.00397685 -0.003849514 -0.003673171 -0.003775848 1000 -0.01386198 -0.01408833 -0.0135637 -0.01337296 -0.01371429 1000 -0.004294368 -0.00391339 -0.0135637 -0.004275351 -0.003955679 1000
lala 8 1.2 1 second 0 1 8 3 4.59 0.679997682571411 0 1 1 0 -0.0110679 -0.009714578 -0.009524023 -0.01011165 -0.01055067 1000 -0.00278648 -0.003371109 -0.003778996 -0.003373317 -0.002911685 1000 -0.01087053 -0.01060181 -0.009982289 -0.01032322 -0.01081966 1000 -0.001530916 -0.001493501 -0.009982289 -0.003048898 -0.001880532 1000
lala 9 2.4 0 first 0 1 9 3 2.19 0.99999737739563 0 1 -1 1 -0.01048083 -0.01022647 -0.009884124 -0.009709914 -0.009838757 1000 -0.001096519 -0.001164756 -0.0009667522 -0.001157996 -0.001096484 1000 -0.008443608 -0.008640103 -0.008865741 -0.008722949 -0.00811149 1000 -0.001674537 -0.001334774 -0.008865741 -0.0009312237 -0.001098079 1000
lala 10 1.2 1 first 0 1 10 3 3.39 0.659997701644897 0 1 1 1 -0.01163489 -0.0117517 -0.01129968 -0.01256158 -0.01317261 1000 -0.006705667 -0.006642696 -0.007142684 -0.006750886 -0.005826439 1000 -0.01178614 -0.01193353 -0.01103014 -0.01046142 -0.01093256 1000 -0.005969868 -0.004135639 -0.01103014 -0.005912639 -0.006061142 1000
lala 11 0.6 0 second 0 1 11 3 2.79 0.539997816085815 0 1 -1 1 -0.009610132 -0.008952166 -0.008453725 -0.008564002 -0.008414412 1000 -0.001743205 -0.003089916 -0.00373265 -0.003666598 -0.003383758 1000 -0.007701936 -0.007396383 -0.006719764 -0.007251429 -0.007400072 1000 -0.004783896 -0.004406515 -0.006719764 -0.003978353 -0.003856944 1000
lala 12 0.3 0 second 0 1 12 3 3.09 3.45999526977539 0 1 -1 1 -0.007199225 -0.007083103 -0.007611458 -0.008043625 -0.007300199 1000 -0.00220544 -0.002087094 -0.001131182 0.0004030405 -0.0003551566 1000 -0.006043957 -0.00551942 -0.005820963 -0.00627923 -0.006573873 1000 -0.0031069 -0.004234227 -0.005820963 -0.004670812 -0.004467779 1000
lala 13 0.3 1 second 0 1 13 3 3.39 1.63999700546265 0 1 1 0 -0.007905331 -0.008230673 -0.00854496 -0.008651982 -0.008391687 1000 -0.00241135 -0.002155981 -0.002411269 -0.002487107 -0.002752376 1000 -0.005033906 -0.005753542 -0.004659579 -0.004136214 -0.004923325 1000 -0.00031071 -0.001240234 -0.004659579 -0.002838133 -0.002182653 1000
lala 14 0.15 1 second 0 1 14 3 3.24 0.739997625350952 0 1 1 1 -0.003197022 -0.002420424 -0.003334439 -0.003150977 -0.003729916 1000 -0.0008666284 -0.001730175 -0.002353394 -0.001732897 -0.001105989 1000 -0.003398675 -0.00365408 -0.00295894 -0.002573591 -0.003021154 1000 -0.0004201544 -0.0003738754 -0.00295894 -0.0006931487 -0.0002863255 1000
lala 15 0.15 1 second 0 1 15 3 3.09 1.59999680519104 0 1 1 1 -0.00249267 -0.002028386 -0.001317169 -0.000833864 -0.0002806292 1000 0.0027076 0.001216037 0.001271799 0.00102856 0.00121609 1000 -0.0004966353 -0.00111361 -0.002213423 -0.001723761 -0.0007759196 1000 0.0008694982 0.001504549 -0.002213423 0.00210618 0.001815087 1000
lala 16 0.15 0 second 0 1 16 3 2.94 0.699997663497925 0 1 -1 0 -0.000374522 -0.0005003783 -0.0003023995 -0.0006818859 -0.0007894724 1000 0.003854212 0.003859076 0.003782334 0.003153269 0.003471785 1000 0.002303796 0.00295607 0.002830487 0.002899109 0.003481067 1000 0.002987189 0.002794764 0.002830487 0.002823084 0.002788499 1000
lala 17 0.075 0 first 0 1 17 3 3.015 1.31999707221985 0 1 -1 1 0.003217038 0.00256613 0.00288989 0.002700594 0.003233403 1000 0.0013264 -0.001238139 -2.976404E-05 0.0007146848 0.0004800555 1000 0.004026288 0.004336815 0.004774478 0.004361681 0.003971261 1000 0.00110783 0.001189392 0.004774478 0.001112757 0.001292776 1000
lala 18 0.075 0 second 0 1 18 3 3.09 1.83999681472778 0 1 -1 0 0.003964001 0.005360445 0.005125574 0.004359161 0.00400391 1000 0.002925141 0.002007683 0.001969227 0.00236468 0.003080962 1000 0.005196685 0.005161503 0.005266005 0.005420066 0.00497296 1000 0.003810195 0.00391975 0.005266005 0.003988201 0.004033824 1000
lala 19 0.075 1 first 0 1 19 3 3.165 1.89999675750732 0 1 1 1 0.007902579 0.007440656 0.007059377 0.007335214 0.007418437 1000 0.003480814 0.00310927 0.003796648 0.003620429 0.003661108 1000 0.007111988 0.007658275 0.0092063 0.01013612 0.009362687 1000 0.004664428 0.004077847 0.0092063 -1.242169E-05 0.0009278216 1000
lala 20 0.0375 1 second 0 1 20 3 3.1275 0.639997720718384 0 1 1 0 -0.001526282 -0.003288164 -0.00280893 -0.0003388753 -0.0001457422 1000 0.0006860174 0.001107502 0.001231462 -0.0003339523 -0.0006026515 1000 -0.001157869 -0.0009451115 0.001496416 0.002177345 0.002211292 1000 0.001119341 0.00040817 0.001496416 -0.0009785044 -0.0004220885 1000
lala 21 0.0375 1 first 0 1 21 3 3.09 1.01999735832214 0 1 1 1 0.002471799 0.002584015 0.002236198 0.002782348 0.003387247 1000 5.011158E-05 0.0003551315 0.0007552833 0.0006721052 0.0001874777 1000 -0.003096876 2.663869E-06 0.001641935 0.001776472 0.001464616 1000 0.01120023 0.008120912 0.001641935 0.005123015 0.006233786 1000
lala 22 0.0375 1 second 0 1 22 3 3.0525 0.539997816085815 0 1 1 1 0.001672879 0.002094616 0.002637588 0.003054404 0.003250206 1000 0.005405711 0.005509258 0.005537462 0.005450534 0.005126771 1000 0.003586691 0.003577915 0.003646418 0.003919777 0.0044496 1000 0.005208384 0.004905771 0.003646418 0.00473187 0.004647361 1000
lala 23 0.075 1 first 0 1 23 3 2.9775 0.499997854232788 0 1 1 1 0.005146214 0.005286617 0.005315112 0.005715388 0.005135598 1000 0.004964626 0.004698453 0.005046769 0.004870661 0.004967703 1000 0.005638021 0.005488435 0.006094897 0.006259124 0.005942535 1000 0.005641299 0.005123828 0.006094897 0.004530807 0.005091675 1000
lala 24 0.15 0 second 0 1 24 3 2.8275 0.799997568130493 0 1 -1 0 0.0051273 0.004162008 0.004214561 0.005093195 0.005797714 1000 0.003533408 0.004262453 0.005619661 0.004913298 0.005028218 1000 0.006151417 0.006010458 0.005719909 0.005464986 0.005721604 1000 0.004602154 0.0049786 0.005719909 0.005457977 0.005144769 1000
lala 25 0.075 1 first 0 1 25 3 2.9025 0.979997396469116 0 1 1 1 0.004252866 0.004607067 0.003809187 0.003364623 0.003224027 1000 0.005423804 0.005807692 0.006083662 0.006520434 0.005911091 1000 0.008482535 0.008457311 0.008421049 0.00842938 0.008249721 1000 0.005424565 0.005023583 0.008421049 0.005303798 0.005418799 1000
lala 26 0.0375 1 second 0 1 26 3 2.865 0.559997797012329 0 1 1 0 0.006993786 0.00692162 0.007088115 0.007261543 0.007128288 1000 0.003992648 0.004139923 0.004269303 0.003532085 0.003630439 1000 0.007142084 0.006724961 0.006983771 0.007568857 0.007245203 1000 0.004893563 0.005085238 0.006983771 0.004486193 0.004329609 1000
