subject PestNr Step_Size_OnTrial Pest_Faster Pest_Interval Condition block trial velH velH_Pest Reaction_Time velH_Subject Start_Above Response_MotionEstimation RightOrLeftxRotations_first0 xRotations_first1 xRotations_first2 xRotations_first3 xRotations_first4 xRotations_first5 yRotations_first0 yRotations_first1 yRotations_first2 yRotations_first3 yRotations_first4 yRotations_first5 xRotations_second0 xRotations_second1 xRotations_second2 xRotations_second3 xRotations_second4 xRotations_second5 yRotations_second0 yRotations_second1 yRotations_second2 yRotations_second3 yRotations_second4 yRotations_second5
lala 1 1.2 1 first 15 1 1 5 6.65 0.819997549057007 0 1 1 1 0.01195743 0.008195919 0.009167617 0.01049941 0.01024487 0.009150997 0.01195743 0.008195919 0.009167617 0.01049941 0.01024487 0.009150997 0.003086825 0.003265221 0.003641726 0.003414891 0.003243583 1000 0.003086825 0.003265221 0.003641726 0.003414891 0.003243583 1000
lala 1 1.2 1 second 11 1 2 6 7.98 0.839997529983521 1 1 1 1 0.004739029 0.004506082 0.004467733 0.004358848 0.004186655 1000 0.004739029 0.004506082 0.004467733 0.004358848 0.004186655 1000 0.005430932 0.0048314 0.004735656 0.004640346 0.004857048 1000 0.005430932 0.0048314 0.004735656 0.004640346 0.004857048 1000
lala 1 1.2 0 first 2 1 3 5 3.3 2.63999605178833 -1 0 -1 1 0.004596694 0.00456539 0.004781865 1000 1000 1000 0.004596694 0.00456539 0.004781865 1000 1000 1000 0.004915762 0.004461333 0.003664267 0.00367725 0.003937093 1000 0.004915762 0.004461333 0.003664267 0.00367725 0.003937093 1000
lala 1 1.2 1 first 17 1 4 6 7.98 0.979997396469116 0 1 1 1 0.004775851 0.003985344 0.003527978 1000 1000 1000 0.004775851 0.003985344 0.003527978 1000 1000 1000 0.0004644355 0.0006493366 0.0004282573 0.0006813916 0.0009109299 1000 0.0004644355 0.0006493366 0.0004282573 0.0006813916 0.0009109299 1000
lala 1 1.2 1 first 8 1 5 5 3.3 0.939997434616089 1 0 1 1 -0.0004256077 0.0001103067 0.0007397872 1000 1000 1000 -0.0004256077 0.0001103067 0.0007397872 1000 1000 1000 -0.0008008028 -0.0008741925 -0.001200974 -0.0009075286 -0.0009059039 1000 -0.0008008028 -0.0008741925 -0.001200974 -0.0009075286 -0.0009059039 1000
lala 1 1.2 1 second 9 1 6 5 6.65 0.559997797012329 1 1 1 1 -0.001092386 -0.0009747375 -0.001250172 -0.001607873 -0.001899418 1000 -0.001092386 -0.0009747375 -0.001250172 -0.001607873 -0.001899418 1000 -0.002182526 -0.002257756 -0.002374428 -0.002117743 -0.002048266 1000 -0.002182526 -0.002257756 -0.002374428 -0.002117743 -0.002048266 1000
lala 1 1.2 1 first 12 1 7 4 2.64 1.03999733924866 0 0 1 0 -0.005394052 -0.005602843 -0.005360256 1000 1000 1000 -0.005394052 -0.005602843 -0.005360256 1000 1000 1000 -0.004902092 -0.004738208 -0.004943637 -0.005926657 -0.006234311 1000 -0.004902092 -0.004738208 -0.004943637 -0.005926657 -0.006234311 1000
lala 1 1.2 1 first 7 1 8 4 5.32 1.15999722480774 1 1 1 0 -0.006100187 -0.006534126 -0.006657015 1000 1000 1000 -0.006100187 -0.006534126 -0.006657015 1000 1000 1000 -0.007247125 -0.007407002 -0.007513659 -0.007409313 -0.007609428 1000 -0.007247125 -0.007407002 -0.007513659 -0.007409313 -0.007609428 1000
lala 1 1.2 0 second 6 1 9 4 2.64 0.899997472763062 1 0 -1 0 -0.007864002 -0.007744111 -0.007908633 -0.007763501 -0.007251333 1000 -0.007864002 -0.007744111 -0.007908633 -0.007763501 -0.007251333 1000 -0.008824312 -0.008509526 -0.008323792 -0.008732291 -0.009186909 1000 -0.008824312 -0.008509526 -0.008323792 -0.008732291 -0.009186909 1000
lala 1 1.2 1 second 13 1 10 4 5.32 0.479997873306274 0 1 1 1 -0.009134543 -0.008868095 -0.008932495 -0.009328513 -0.009089234 1000 -0.009134543 -0.008868095 -0.008932495 -0.009328513 -0.009089234 1000 -0.009347861 -0.009303705 -0.009189774 -0.009454531 -0.009993187 1000 -0.009347861 -0.009303705 -0.009189774 -0.009454531 -0.009993187 1000
lala 2 1.2 1 second 15 1 11 5 5.45 0.719997644424438 0 1 1 1 -0.01291215 -0.01342322 -0.01352132 -0.01383832 -0.01347043 1000 -0.01291215 -0.01342322 -0.01352132 -0.01383832 -0.01347043 1000 -0.013874 -0.0139709 -0.01345231 -0.01336016 -0.01323326 1000 -0.013874 -0.0139709 -0.01345231 -0.01336016 -0.01323326 1000
lala 2 1.2 0 second 8 1 12 5 2.1 1.15999722480774 1 0 -1 0 -0.01399448 -0.01392783 -0.01360544 -0.01393411 -0.01390101 1000 -0.01399448 -0.01392783 -0.01360544 -0.01393411 -0.01390101 1000 -0.01391203 -0.01394988 -0.01451807 -0.01429329 -0.01409473 1000 -0.01391203 -0.01394988 -0.01451807 -0.01429329 -0.01409473 1000
lala 2 1.2 1 second 17 1 13 6 6.780001 0.599997758865356 0 1 1 1 -0.01591773 -0.01585577 -0.01563202 -0.0157577 -0.01607925 1000 -0.01591773 -0.01585577 -0.01563202 -0.0157577 -0.01607925 1000 -0.01681754 -0.01700864 -0.01730183 -0.01723048 -0.01728396 1000 -0.01681754 -0.01700864 -0.01730183 -0.01723048 -0.01728396 1000
lala 2 1.2 0 second 12 1 14 4 1.44 0.739997625350952 0 0 -1 1 -0.01913551 -0.01892539 -0.01874084 -0.01851752 -0.01815436 1000 -0.01913551 -0.01892539 -0.01874084 -0.01851752 -0.01815436 1000 -0.0173866 -0.01807181 -0.01809606 -0.01810575 -0.01821046 1000 -0.0173866 -0.01807181 -0.01809606 -0.01810575 -0.01821046 1000
lala 3 1.2 1 first 15 1 15 5 4.25 0.799997568130493 0 1 1 1 -0.01909938 -0.01957324 -0.0200578 1000 1000 1000 -0.01909938 -0.01957324 -0.0200578 1000 1000 1000 -0.02119614 -0.02175159 -0.0220634 -0.02195863 -0.02223082 1000 -0.02119614 -0.02175159 -0.0220634 -0.02195863 -0.02223082 1000
lala 4 1.2 0 first 15 1 16 5 3.05 0.539997816085815 0 1 -1 0 -0.02221159 -0.02225021 -0.02229148 1000 1000 1000 -0.02221159 -0.02225021 -0.02229148 1000 1000 1000 -0.02296691 -0.02312782 -0.02275769 -0.02307309 -0.02316066 1000 -0.02296691 -0.02312782 -0.02275769 -0.02307309 -0.02316066 1000
lala 1 1.2 1 first 3 1 17 5 6.65 2.37999629974365 -1 1 1 0 -0.02371695 -0.02392519 -0.0244048 1000 1000 1000 -0.02371695 -0.02392519 -0.0244048 1000 1000 1000 -0.02584294 -0.02563993 -0.02580396 -0.02623006 -0.0264485 1000 -0.02584294 -0.02563993 -0.02580396 -0.02623006 -0.0264485 1000
lala 3 1.2 1 second 17 1 18 6 5.580001 1.05999732017517 0 1 1 0 -0.02436784 -0.0234294 -0.02361884 -0.02356514 -0.02308356 1000 -0.02436784 -0.0234294 -0.02361884 -0.02356514 -0.02308356 1000 -0.02070271 -0.02183489 -0.02221185 -0.02266034 -0.02255757 1000 -0.02070271 -0.02183489 -0.02221185 -0.02266034 -0.02255757 1000
lala 5 1.2 0 second 15 1 19 5 4.25 1.19999718666077 0 1 -1 1 -0.02501303 -0.02495132 -0.0252304 -0.02580033 -0.02622949 1000 -0.02501303 -0.02495132 -0.0252304 -0.02580033 -0.02622949 1000 -0.02425431 -0.01805626 -0.01517694 -0.01685987 -0.01983127 1000 -0.02425431 -0.01805626 -0.01517694 -0.01685987 -0.01983127 1000
lala 2 1.2 0 second 6 1 20 4 3.84 0.779997587203979 1 0 -1 1 -0.01977706 -0.01962861 -0.01994267 -0.02046005 -0.02075211 1000 -0.01977706 -0.01962861 -0.01994267 -0.02046005 -0.02075211 1000 -0.02191271 -0.02260918 -0.02268008 -0.022407 -0.02231286 1000 -0.02191271 -0.02260918 -0.02268008 -0.022407 -0.02231286 1000
lala 2 1.2 1 second 7 1 21 4 4.12 0.499997854232788 1 1 1 1 -0.02348213 -0.02410104 -0.02450288 -0.02459367 -0.02467738 1000 -0.02348213 -0.02410104 -0.02450288 -0.02459367 -0.02467738 1000 -0.02427136 -0.02444938 -0.02493652 -0.0247795 -0.02473323 1000 -0.02427136 -0.02444938 -0.02493652 -0.0247795 -0.02473323 1000
lala 1 1.2 0 first 14 1 22 5 3.3 0.679997682571411 0 0 -1 0 -0.02284647 -0.01859052 -0.01803079 1000 1000 1000 -0.02284647 -0.01859052 -0.01803079 1000 1000 1000 -0.01680645 -0.01711362 -0.01727212 -0.01706066 -0.01720309 1000 -0.01680645 -0.01711362 -0.01727212 -0.01706066 -0.01720309 1000
lala 1 1.2 1 first 1 1 23 4 5.32 6.50001382827759 -1 1 1 0 -0.0174114 -0.01758068 -0.01755696 1000 1000 1000 -0.0174114 -0.01758068 -0.01755696 1000 1000 1000 -0.01919248 -0.01916976 -0.01937823 -0.01911592 -0.0191437 1000 -0.01919248 -0.01916976 -0.01937823 -0.01911592 -0.0191437 1000
lala 3 1.2 0 first 12 1 24 4 2.64 0.459997892379761 0 0 -1 0 -0.01921466 -0.01945588 -0.01947392 1000 1000 1000 -0.01921466 -0.01945588 -0.01947392 1000 1000 1000 -0.01952178 -0.01745151 -0.0176215 -0.01835112 -0.01858794 1000 -0.01952178 -0.01745151 -0.0176215 -0.01835112 -0.01858794 1000
lala 1 1.2 1 second 5 1 25 6 7.98 0.499997854232788 -1 1 1 0 -0.01856918 -0.01871568 -0.01863537 -0.01886438 -0.019105 1000 -0.01856918 -0.01871568 -0.01863537 -0.01886438 -0.019105 1000 -0.01992595 -0.01994211 -0.01985055 -0.01971918 -0.01976792 1000 -0.01992595 -0.01994211 -0.01985055 -0.01971918 -0.01976792 1000
lala 2 1.2 1 second 13 1 26 4 4.12 0.819997549057007 0 1 1 1 -0.0201771 -0.01995555 -0.01956171 -0.0201988 -0.020045 1000 -0.0201771 -0.01995555 -0.01956171 -0.0201988 -0.020045 1000 -0.0176616 -0.01856187 -0.02067102 -0.02123064 -0.02086513 1000 -0.0176616 -0.01856187 -0.02067102 -0.02123064 -0.02086513 1000
lala 2 1.2 0 first 2 1 27 5 4.5 1.95999670028687 -1 0 -1 1 -0.02220337 -0.02205759 -0.02193488 1000 1000 1000 -0.02220337 -0.02205759 -0.02193488 1000 1000 1000 -0.02010173 -0.01963689 -0.01959248 -0.02001917 -0.02049228 1000 -0.02010173 -0.01963689 -0.01959248 -0.02001917 -0.02049228 1000
lala 3 1.2 1 second 6 1 28 4 5.04 0.739997625350952 1 0 1 0 -0.02053232 -0.0209755 -0.02065452 -0.02039634 -0.0203246 1000 -0.02053232 -0.0209755 -0.02065452 -0.02039634 -0.0203246 1000 -0.02064309 -0.02076443 -0.02120479 -0.0209468 -0.02052066 1000 -0.02064309 -0.02076443 -0.02120479 -0.0209468 -0.02052066 1000
lala 2 1.2 1 second 9 1 29 5 5.45 0.379997968673706 1 1 1 0 -0.0205774 -0.02065218 -0.02113401 -0.02109667 -0.02099608 1000 -0.0205774 -0.02065218 -0.02113401 -0.02109667 -0.02099608 1000 -0.0216206 -0.021755 -0.02229553 -0.0224119 -0.02211723 1000 -0.0216206 -0.021755 -0.02229553 -0.0224119 -0.02211723 1000
lala 3 1.2 1 first 2 1 30 5 5.7 1.97999668121338 -1 0 1 0 -0.02231708 -0.02279139 -0.02318605 1000 1000 1000 -0.02231708 -0.02279139 -0.02318605 1000 1000 1000 -0.02370956 -0.02327504 -0.02313829 -0.02321612 -0.02303339 1000 -0.02370956 -0.02327504 -0.02313829 -0.02321612 -0.02303339 1000
lala 3 1.2 0 second 7 1 31 4 2.92 0.819997549057007 1 1 -1 0 -0.02255808 -0.02280913 -0.02255724 -0.02155517 -0.02217338 1000 -0.02255808 -0.02280913 -0.02255724 -0.02155517 -0.02217338 1000 -0.02047977 -0.02013835 -0.02016025 -0.02025058 -0.02007149 1000 -0.02047977 -0.02013835 -0.02016025 -0.02025058 -0.02007149 1000
lala 1 1.2 1 second 16 1 32 6 3.96 2.47999620437622 0 0 1 1 -0.02144542 -0.0218732 -0.02226201 -0.02254651 -0.02225178 1000 -0.02144542 -0.0218732 -0.02226201 -0.02254651 -0.02225178 1000 -0.02257849 -0.02124019 -0.02028108 -0.02058175 -0.02175615 1000 -0.02257849 -0.02124019 -0.02028108 -0.02058175 -0.02175615 1000
lala 4 1.2 0 first 6 1 33 4 3.84 0.639997720718384 1 0 -1 0 -0.01942439 -0.01959241 -0.02006364 1000 1000 1000 -0.01942439 -0.01959241 -0.02006364 1000 1000 1000 -0.02193096 -0.02213839 -0.02212803 -0.02222223 -0.02232816 1000 -0.02193096 -0.02213839 -0.02212803 -0.02222223 -0.02232816 1000
lala 4 1.2 1 first 7 1 34 4 4.12 0.879997491836548 1 1 1 1 -0.02005026 -0.02035163 -0.02083149 1000 1000 1000 -0.02005026 -0.02035163 -0.02083149 1000 1000 1000 -0.01998254 -0.02008465 -0.02008615 -0.02003982 -0.02053756 1000 -0.01998254 -0.02008465 -0.02008615 -0.02003982 -0.02053756 1000
lala 4 1.2 0 first 2 1 35 5 4.5 0.61999773979187 -1 0 -1 0 -0.02318456 -0.02350924 -0.02125614 1000 1000 1000 -0.02318456 -0.02350924 -0.02125614 1000 1000 1000 -0.02201184 -0.02153116 -0.02159286 -0.02244004 -0.02283791 1000 -0.02201184 -0.02153116 -0.02159286 -0.02244004 -0.02283791 1000
lala 3 1.2 1 second 8 1 36 5 3.3 1.21999716758728 1 0 1 1 -0.02507785 -0.02419279 -0.02427505 -0.02551838 -0.02536668 1000 -0.02507785 -0.02419279 -0.02427505 -0.02551838 -0.02536668 1000 -0.02501536 -0.02446025 -0.02333629 -0.02271498 -0.02211962 1000 -0.02501536 -0.02446025 -0.02333629 -0.02271498 -0.02211962 1000
lala 2 1.2 0 second 16 1 37 6 2.76 0.919997453689575 0 0 -1 1 -0.01746781 -0.01755271 -0.0174683 -0.0172442 -0.01774889 1000 -0.01746781 -0.01755271 -0.0174683 -0.0172442 -0.01774889 1000 -0.01914327 -0.01870077 -0.01858799 -0.01837028 -0.01845689 1000 -0.01914327 -0.01870077 -0.01858799 -0.01837028 -0.01845689 1000
lala 2 1.2 1 second 14 1 38 5 4.5 0.319998025894165 0 0 1 0 -0.01899909 -0.01861445 -0.01871868 -0.01922701 -0.01892337 1000 -0.01899909 -0.01861445 -0.01871868 -0.01922701 -0.01892337 1000 -0.01925819 -0.01856614 -0.01826476 -0.01854705 -0.01884148 1000 -0.01925819 -0.01856614 -0.01826476 -0.01854705 -0.01884148 1000
lala 3 1.2 0 first 14 1 39 5 3.3 1.51999688148499 0 0 -1 1 -0.0184708 -0.0184708 -0.01859729 1000 1000 1000 -0.0184708 -0.0184708 -0.01859729 1000 1000 1000 -0.01601389 -0.01719229 -0.01739546 -0.01723161 -0.01760518 1000 -0.01601389 -0.01719229 -0.01739546 -0.01723161 -0.01760518 1000
lala 3 1.2 1 second 13 1 40 4 2.92 1.43999695777893 0 1 1 0 -0.01395846 -0.01533903 -0.01568996 -0.01612353 -0.01577696 1000 -0.01395846 -0.01533903 -0.01568996 -0.01612353 -0.01577696 1000 -0.01419102 -0.01433345 -0.01454629 -0.01485093 -0.01511023 1000 -0.01419102 -0.01433345 -0.01454629 -0.01485093 -0.01511023 1000
lala 2 1.2 1 second 5 1 41 6 6.780001 0.359997987747192 -1 1 1 0 -0.01664679 -0.01681791 -0.01620585 -0.01599468 -0.01629841 1000 -0.01664679 -0.01681791 -0.01620585 -0.01599468 -0.01629841 1000 -0.0167929 -0.01663626 -0.0162414 -0.01598645 -0.01635706 1000 -0.0167929 -0.01663626 -0.0162414 -0.01598645 -0.01635706 1000
lala 1 1.2 0 first 10 1 42 6 3.96 0.979997396469116 1 0 -1 1 -0.0181933 -0.01859721 -0.01897349 1000 1000 1000 -0.0181933 -0.01859721 -0.01897349 1000 1000 1000 -0.0208668 -0.02039922 -0.02043619 -0.02044057 -0.02043165 1000 -0.0208668 -0.02039922 -0.02043619 -0.02044057 -0.02043165 1000
lala 5 1.2 1 second 2 1 43 5 5.7 0.379997968673706 -1 0 1 0 -0.02334292 -0.02325936 -0.02344061 -0.0241072 -0.02436547 1000 -0.02334292 -0.02325936 -0.02344061 -0.0241072 -0.02436547 1000 -0.02293265 -0.02275164 -0.02265239 -0.02237987 -0.02250787 1000 -0.02293265 -0.02275164 -0.02265239 -0.02237987 -0.02250787 1000
lala 4 1.2 1 first 12 1 44 4 3.84 1.59999680519104 0 0 1 1 -0.02386379 -0.02425851 -0.02455446 1000 1000 1000 -0.02386379 -0.02425851 -0.02455446 1000 1000 1000 -0.02038141 -0.02053761 -0.02111305 -0.02102397 -0.02095809 1000 -0.02038141 -0.02053761 -0.02111305 -0.02102397 -0.02095809 1000
lala 4 1.2 0 first 17 1 45 6 4.380001 0.939997434616089 0 1 -1 0 -0.02073604 -0.02221908 -0.0226832 1000 1000 1000 -0.02073604 -0.02221908 -0.0226832 1000 1000 1000 -0.01933998 -0.0208217 -0.0212958 -0.02092316 -0.0216408 1000 -0.01933998 -0.0208217 -0.0212958 -0.02092316 -0.0216408 1000
lala 4 1.2 1 second 14 1 46 5 4.5 0.379997968673706 0 0 1 1 -0.02020406 -0.01999459 -0.0208947 -0.02201503 -0.02291784 1000 -0.02020406 -0.01999459 -0.0208947 -0.02201503 -0.02291784 1000 -0.02315377 -0.01926714 -0.01721745 -0.01752007 -0.01721866 1000 -0.02315377 -0.01926714 -0.01721745 -0.01752007 -0.01721866 1000
lala 5 1.2 0 first 14 1 47 5 3.3 0.739997625350952 0 0 -1 0 -0.00891087 -0.008331092 -0.005875824 1000 1000 1000 -0.00891087 -0.008331092 -0.005875824 1000 1000 1000 -0.01060305 -0.01207272 -0.0130471 -0.01314122 -0.01311259 1000 -0.01060305 -0.01207272 -0.0130471 -0.01314122 -0.01311259 1000
lala 4 1.2 0 first 13 1 48 4 1.72 0.339998006820679 0 1 -1 0 -0.01195708 -0.01147581 -0.01177089 1000 1000 1000 -0.01195708 -0.01147581 -0.01177089 1000 1000 1000 -0.01096872 -0.01160171 -0.01132932 -0.01088361 -0.01127145 1000 -0.01096872 -0.01160171 -0.01132932 -0.01088361 -0.01127145 1000
lala 6 1.2 0 first 2 1 49 5 4.5 0.639997720718384 -1 0 -1 0 -0.01834144 -0.01668539 -0.0168663 1000 1000 1000 -0.01834144 -0.01668539 -0.0168663 1000 1000 1000 -0.01889547 -0.01911741 -0.01919556 -0.01916888 -0.01906754 1000 -0.01889547 -0.01911741 -0.01919556 -0.01916888 -0.01906754 1000
lala 2 1.2 1 second 3 1 50 5 5.45 0.39999794960022 -1 1 1 1 -0.01619657 -0.01781543 -0.01991735 -0.02495322 -0.02569377 1000 -0.01619657 -0.01781543 -0.01991735 -0.02495322 -0.02569377 1000 -0.01821268 -0.01817559 -0.01845254 -0.01861374 -0.01881112 1000 -0.01821268 -0.01817559 -0.01845254 -0.01861374 -0.01881112 1000
lala 1 1.2 0 second 4 1 51 6 3.96 0.439997911453247 -1 0 -1 0 -0.01144877 -0.01228343 -0.01373106 -0.01456244 -0.0146059 1000 -0.01144877 -0.01228343 -0.01373106 -0.01456244 -0.0146059 1000 -0.01211274 -0.01244915 -0.01277287 -0.01302934 -0.0127376 1000 -0.01211274 -0.01244915 -0.01277287 -0.01302934 -0.0127376 1000
lala 2 1.2 1 first 1 1 52 4 4.12 0.639997720718384 -1 1 1 1 -0.01147502 -0.01109315 -0.01143145 1000 1000 1000 -0.01147502 -0.01109315 -0.01143145 1000 1000 1000 -0.01539638 -0.0157498 -0.01609309 -0.01614859 -0.01642723 1000 -0.01539638 -0.0157498 -0.01609309 -0.01614859 -0.01642723 1000
lala 7 1.2 1 second 2 1 53 5 5.7 0.599997758865356 -1 0 1 0 -0.02069224 -0.02027625 -0.01968622 -0.01883861 -0.01863258 1000 -0.02069224 -0.02027625 -0.01968622 -0.01883861 -0.01863258 1000 -0.01885503 -0.01894593 -0.0190523 -0.01920844 -0.01929661 1000 -0.01885503 -0.01894593 -0.0190523 -0.01920844 -0.01929661 1000
lala 8 1.2 0 first 2 1 54 5 4.5 0.459997892379761 -1 0 -1 1 -0.01746555 -0.01759941 -0.01885674 1000 1000 1000 -0.01746555 -0.01759941 -0.01885674 1000 1000 1000 -0.02155812 -0.02114055 -0.02120597 -0.02187835 -0.02200309 1000 -0.02155812 -0.02114055 -0.02120597 -0.02187835 -0.02200309 1000
lala 4 1.2 0 second 8 1 55 5 2.1 0.939997434616089 1 0 -1 0 -0.02247067 -0.0226607 -0.01974098 -0.02053197 -0.02327792 1000 -0.02247067 -0.0226607 -0.01974098 -0.02053197 -0.02327792 1000 -0.02281944 -0.02283839 -0.02228957 -0.021267 -0.01948198 1000 -0.02281944 -0.02283839 -0.02228957 -0.021267 -0.01948198 1000
lala 3 1.2 0 first 9 1 56 5 4.25 1.5399968624115 1 1 -1 1 -0.01964161 -0.01997929 -0.0207694 1000 1000 1000 -0.01964161 -0.01997929 -0.0207694 1000 1000 1000 -0.02583769 -0.02706721 -0.02618822 -0.02609755 -0.02633187 1000 -0.02583769 -0.02706721 -0.02618822 -0.02609755 -0.02633187 1000
lala 2 1.2 1 second 4 1 57 6 5.16 0.339998006820679 -1 0 1 1 -0.02247654 -0.02300148 -0.02333179 -0.02290502 -0.02288057 1000 -0.02247654 -0.02300148 -0.02333179 -0.02290502 -0.02288057 1000 -0.02288219 -0.02273657 -0.02281244 -0.0228053 -0.02269677 1000 -0.02288219 -0.02273657 -0.02281244 -0.0228053 -0.02269677 1000
lala 3 1.2 0 first 4 1 58 6 3.96 0.979997396469116 -1 0 -1 1 -0.02162088 -0.02189863 -0.02138385 1000 1000 1000 -0.02162088 -0.02189863 -0.02138385 1000 1000 1000 -0.02361239 -0.02339484 -0.02332829 -0.02333302 -0.02303004 1000 -0.02361239 -0.02339484 -0.02332829 -0.02333302 -0.02303004 1000
lala 1 1.2 0 second 0 1 59 4 2.64 0.959997415542603 -1 0 -1 0 -0.02323198 -0.02419301 -0.0230394 -0.02386511 -0.02701627 1000 -0.02323198 -0.02419301 -0.0230394 -0.02386511 -0.02701627 1000 -0.02161123 -0.01951364 -0.01460078 -0.01316496 -0.01406043 1000 -0.02161123 -0.01951364 -0.01460078 -0.01316496 -0.01406043 1000
lala 5 1.2 1 second 8 1 60 5 3.3 1.65999698638916 1 0 1 0 -0.01769206 -0.01557494 -0.004675463 9.834889E-05 0.009355276 1000 -0.01769206 -0.01557494 -0.004675463 9.834889E-05 0.009355276 1000 0.004530944 0.004843637 0.003873372 0.002376792 0.002151148 1000 0.004530944 0.004843637 0.003873372 0.002376792 0.002151148 1000
lala 3 1.2 1 first 5 1 61 6 5.580001 2.75999593734741 -1 1 1 0 0.001191351 0.001094728 0.0009271083 1000 1000 1000 0.001191351 0.001094728 0.0009271083 1000 1000 1000 0.004469496 0.004276682 0.003904602 0.004327989 0.004395855 1000 0.004469496 0.004276682 0.003904602 0.004327989 0.004395855 1000
lala 6 1.2 0 first 14 1 62 5 4.5 1.93999671936035 0 0 -1 0 0.004924906 0.003756912 0.003503799 1000 1000 1000 0.004924906 0.003756912 0.003503799 1000 1000 1000 -0.004845357 -0.003824048 -0.002886259 -0.002938569 -0.003492456 1000 -0.004845357 -0.003824048 -0.002886259 -0.002938569 -0.003492456 1000
lala 5 1.2 0 first 6 1 63 4 5.04 1.27999711036682 1 0 -1 1 -0.005472042 -0.004646323 -0.004262445 1000 1000 1000 -0.005472042 -0.004646323 -0.004262445 1000 1000 1000 -0.002807544 -0.003123231 -0.003457029 -0.004076418 -0.003909691 1000 -0.002807544 -0.003123231 -0.003457029 -0.004076418 -0.003909691 1000
lala 4 1.2 0 first 5 1 64 6 4.380001 1.49999690055847 -1 1 -1 1 -0.0044987 -0.003906252 -0.004023034 1000 1000 1000 -0.0044987 -0.003906252 -0.004023034 1000 1000 1000 -0.009563227 -0.01043516 -0.01034575 -0.0101982 -0.01055524 1000 -0.009563227 -0.01043516 -0.01034575 -0.0101982 -0.01055524 1000
lala 2 1.2 1 first 11 1 65 6 6.780001 0.519997835159302 1 1 1 0 -0.009492242 -0.01007892 -0.01028175 1000 1000 1000 -0.009492242 -0.01007892 -0.01028175 1000 1000 1000 -0.0123482 -0.01248548 -0.01273936 -0.01272783 -0.01299127 1000 -0.0123482 -0.01248548 -0.01273936 -0.01272783 -0.01299127 1000
lala 3 1.2 0 first 16 1 66 6 3.96 0.459997892379761 0 0 -1 0 -0.01191357 -0.01166393 -0.01134847 1000 1000 1000 -0.01191357 -0.01166393 -0.01134847 1000 1000 1000 -0.01290173 -0.01340102 -0.01387306 -0.01369492 -0.01419138 1000 -0.01290173 -0.01340102 -0.01387306 -0.01369492 -0.01419138 1000
lala 7 1.2 0 second 14 1 67 5 5.7 1.57999682426453 0 0 -1 1 -0.01363221 -0.01376767 -0.01344299 -0.01356005 -0.01377247 1000 -0.01363221 -0.01376767 -0.01344299 -0.01356005 -0.01377247 1000 -0.01320935 -0.0129353 -0.01305995 -0.01325038 -0.01300544 1000 -0.01320935 -0.0129353 -0.01305995 -0.01325038 -0.01300544 1000
lala 6 1.2 1 first 6 1 68 4 6.24 0.419997930526733 1 0 1 0 -0.0145202 -0.01399173 -0.0140437 1000 1000 1000 -0.0145202 -0.01399173 -0.0140437 1000 1000 1000 -0.01374053 -0.01368688 -0.01358904 -0.01393571 -0.01372425 1000 -0.01374053 -0.01368688 -0.01358904 -0.01393571 -0.01372425 1000
lala 5 1.2 0 first 7 1 69 4 2.92 0.659997701644897 1 1 -1 1 -0.01272295 -0.01294727 -0.01301299 1000 1000 1000 -0.01272295 -0.01294727 -0.01301299 1000 1000 1000 -0.0140732 -0.01402656 -0.01404861 -0.01385264 -0.01373989 1000 -0.0140732 -0.01402656 -0.01404861 -0.01385264 -0.01373989 1000
lala 5 1.2 0 second 12 1 70 4 2.64 0.579997777938843 0 0 -1 0 -0.01418162 -0.01432249 -0.01394903 -0.01388092 -0.01427301 1000 -0.01418162 -0.01432249 -0.01394903 -0.01388092 -0.01427301 1000 -0.01398887 -0.01364897 -0.01386628 -0.01429703 -0.01404581 1000 -0.01398887 -0.01364897 -0.01386628 -0.01429703 -0.01404581 1000
lala 5 1.2 1 second 5 1 71 6 5.580001 2.57999610900879 -1 1 1 1 -0.01330644 -0.01347249 -0.01360915 -0.01341094 -0.01337217 1000 -0.01330644 -0.01347249 -0.01360915 -0.01341094 -0.01337217 1000 -0.01376602 -0.01344095 -0.01339644 -0.0137794 -0.01360103 1000 -0.01376602 -0.01344095 -0.01339644 -0.0137794 -0.01360103 1000
lala 6 1.2 1 second 12 1 72 4 3.84 1.29999709129334 0 0 1 0 -0.01426062 -0.01369489 -0.01401166 -0.01452173 -0.01390602 1000 -0.01426062 -0.01369489 -0.01401166 -0.01452173 -0.01390602 1000 -0.01318526 -0.01366359 -0.01347565 -0.01332804 -0.01347698 1000 -0.01318526 -0.01366359 -0.01347565 -0.01332804 -0.01347698 1000
lala 3 1.2 0 first 1 1 73 4 2.92 0.459997892379761 -1 1 -1 0 -0.01394756 -0.0138956 -0.01435755 1000 1000 1000 -0.01394756 -0.0138956 -0.01435755 1000 1000 1000 -0.02260994 -0.0210148 -0.02052063 -0.02041926 -0.02064566 1000 -0.02260994 -0.0210148 -0.02052063 -0.02041926 -0.02064566 1000
lala 4 1.2 0 second 1 1 74 4 4.12 5.25999355316162 -1 1 -1 1 -0.01929964 -0.01959823 -0.01955792 -0.01941758 -0.01973987 1000 -0.01929964 -0.01959823 -0.01955792 -0.01941758 -0.01973987 1000 -0.01977301 -0.0200512 -0.02005634 -0.01948437 -0.01946395 1000 -0.01977301 -0.0200512 -0.02005634 -0.01948437 -0.01946395 1000
lala 5 1.2 0 first 13 1 75 4 2.92 0.479997873306274 0 1 -1 0 -0.01924361 -0.01945318 -0.01945647 1000 1000 1000 -0.01924361 -0.01945318 -0.01945647 1000 1000 1000 -0.01994983 -0.01984898 -0.02035144 -0.02061324 -0.02055998 1000 -0.01994983 -0.01984898 -0.02035144 -0.02061324 -0.02055998 1000
lala 3 1.2 1 second 3 1 76 5 4.25 0.899997472763062 -1 1 1 0 -0.02037429 -0.01981692 -0.01973887 -0.02036749 -0.02108593 1000 -0.02037429 -0.01981692 -0.01973887 -0.02036749 -0.02108593 1000 -0.02076702 -0.02124506 -0.02116769 -0.02105224 -0.02133885 1000 -0.02076702 -0.02124506 -0.02116769 -0.02105224 -0.02133885 1000
lala 5 1.2 1 second 1 1 77 4 5.32 0.519997835159302 -1 1 1 1 -0.02055246 -0.02108213 -0.02101226 -0.02112305 -0.02129775 1000 -0.02055246 -0.02108213 -0.02101226 -0.02112305 -0.02129775 1000 -0.02091383 -0.02086085 -0.02086059 -0.02111091 -0.021524 1000 -0.02091383 -0.02086085 -0.02086059 -0.02111091 -0.021524 1000
lala 6 1.2 1 second 13 1 78 4 4.12 2.43999624252319 0 1 1 0 -0.02208557 -0.02125999 -0.02025086 -0.02286307 -0.02403428 1000 -0.02208557 -0.02125999 -0.02025086 -0.02286307 -0.02403428 1000 -0.02287439 -0.02351617 -0.02332001 -0.02288719 -0.02359921 1000 -0.02287439 -0.02351617 -0.02332001 -0.02288719 -0.02359921 1000
lala 4 1.2 0 second 3 1 79 5 3.05 0.539997816085815 -1 1 -1 1 -0.0223122 -0.02269726 -0.02280298 -0.02340619 -0.0240498 1000 -0.0223122 -0.02269726 -0.02280298 -0.02340619 -0.0240498 1000 -0.02311013 -0.02323429 -0.023517 -0.02330128 -0.02314533 1000 -0.02311013 -0.02323429 -0.023517 -0.02330128 -0.02314533 1000
lala 4 1.2 1 first 9 1 80 5 5.45 1.15999722480774 1 1 1 0 -0.02194336 -0.0218089 -0.02214937 1000 1000 1000 -0.02194336 -0.0218089 -0.02214937 1000 1000 1000 -0.02482162 -0.02447401 -0.02347595 -0.02201112 -0.02109848 1000 -0.02482162 -0.02447401 -0.02347595 -0.02201112 -0.02109848 1000
lala 6 1.2 0 second 5 1 81 6 4.380001 0.779997587203979 -1 1 -1 0 -0.01764106 -0.01825891 -0.01831353 -0.01857847 -0.01908028 1000 -0.01764106 -0.01825891 -0.01831353 -0.01857847 -0.01908028 1000 -0.02090483 -0.02087178 -0.02121432 -0.02128109 -0.0212033 1000 -0.02090483 -0.02087178 -0.02121432 -0.02128109 -0.0212033 1000
lala 9 1.2 1 second 2 1 82 5 5.7 0.599997758865356 -1 0 1 1 -0.02166272 -0.02391549 -0.02479044 -0.02324577 -0.02316527 1000 -0.02166272 -0.02391549 -0.02479044 -0.02324577 -0.02316527 1000 -0.02121734 -0.02128982 -0.02140443 -0.02139079 -0.02100366 1000 -0.02121734 -0.02128982 -0.02140443 -0.02139079 -0.02100366 1000
lala 7 1.2 1 first 5 1 83 6 5.580001 0.699997663497925 -1 1 1 0 -0.02170937 -0.02209873 -0.02175077 1000 1000 1000 -0.02170937 -0.02209873 -0.02175077 1000 1000 1000 -0.02396433 -0.02368692 -0.02445197 -0.02469661 -0.02416965 1000 -0.02396433 -0.02368692 -0.02445197 -0.02469661 -0.02416965 1000
lala 7 1.2 0 second 13 1 84 4 2.92 0.539997816085815 0 1 -1 0 -0.02259388 -0.02261798 -0.02239693 -0.02274201 -0.02347312 1000 -0.02259388 -0.02261798 -0.02239693 -0.02274201 -0.02347312 1000 -0.02298014 -0.02331988 -0.02354247 -0.02357155 -0.02361293 1000 -0.02298014 -0.02331988 -0.02354247 -0.02357155 -0.02361293 1000
lala 5 1.2 1 second 17 1 85 6 5.580001 0.419997930526733 0 1 1 0 -0.02072287 -0.021185 -0.021335 -0.02184622 -0.02167147 1000 -0.02072287 -0.021185 -0.021335 -0.02184622 -0.02167147 1000 -0.02163356 -0.02165576 -0.0218385 -0.0216232 -0.02163988 1000 -0.02163356 -0.02165576 -0.0218385 -0.0216232 -0.02163988 1000
lala 4 1.2 1 first 16 1 86 6 5.16 0.379997968673706 0 0 1 1 -0.02397157 -0.02286114 -0.02337492 1000 1000 1000 -0.02397157 -0.02286114 -0.02337492 1000 1000 1000 -0.02375008 -0.02343507 -0.02337413 -0.02358541 -0.02336879 1000 -0.02375008 -0.02343507 -0.02337413 -0.02358541 -0.02336879 1000
lala 4 1.2 1 second 4 1 87 6 5.16 0.559997797012329 -1 0 1 0 -0.02275356 -0.02336379 -0.0232219 -0.02341263 -0.02375527 1000 -0.02275356 -0.02336379 -0.0232219 -0.02341263 -0.02375527 1000 -0.02337213 -0.02418119 -0.02418942 -0.02399605 -0.02419122 1000 -0.02337213 -0.02418119 -0.02418942 -0.02399605 -0.02419122 1000
lala 8 1.2 0 second 5 1 88 6 4.380001 0.719997644424438 -1 1 -1 0 -0.02204715 -0.02254365 -0.02219384 -0.02239243 -0.02274886 1000 -0.02204715 -0.02254365 -0.02219384 -0.02239243 -0.02274886 1000 -0.02179298 -0.02182605 -0.02228403 -0.02314609 -0.02325372 1000 -0.02179298 -0.02182605 -0.02228403 -0.02314609 -0.02325372 1000
lala 3 1.2 1 second 11 1 89 6 5.580001 0.39999794960022 1 1 1 0 -0.02126829 -0.02143648 -0.02166391 -0.02162506 -0.02122162 1000 -0.02126829 -0.02143648 -0.02166391 -0.02162506 -0.02122162 1000 -0.02053062 -0.0207202 -0.02011174 -0.02000734 -0.02073834 1000 -0.02053062 -0.0207202 -0.02011174 -0.02000734 -0.02073834 1000
lala 5 1.2 1 second 16 1 90 6 3.96 1.15999722480774 0 0 1 0 -0.02123999 -0.02168793 -0.02144714 -0.02176558 -0.02178778 1000 -0.02123999 -0.02168793 -0.02144714 -0.02176558 -0.02178778 1000 -0.02093301 -0.02102396 -0.02112504 -0.0210304 -0.0213767 1000 -0.02093301 -0.02102396 -0.02112504 -0.0210304 -0.0213767 1000
lala 5 1.2 0 first 4 1 91 6 3.96 0.779997587203979 -1 0 -1 0 -0.02233763 -0.02171824 -0.02069332 1000 1000 1000 -0.02233763 -0.02171824 -0.02069332 1000 1000 1000 -0.01800239 -0.01840066 -0.0190557 -0.01964012 -0.01929288 1000 -0.01800239 -0.01840066 -0.0190557 -0.01964012 -0.01929288 1000
lala 5 1.2 0 second 3 1 92 5 4.25 0.759997606277466 -1 1 -1 1 -0.01869977 -0.01856002 -0.01873516 -0.01869897 -0.01864311 1000 -0.01869977 -0.01856002 -0.01873516 -0.01869897 -0.01864311 1000 -0.01874735 -0.01881571 -0.01845379 -0.01850998 -0.01876465 1000 -0.01874735 -0.01881571 -0.01845379 -0.01850998 -0.01876465 1000
lala 6 1.2 0 first 16 1 93 6 2.76 0.439997911453247 0 0 -1 1 -0.01839566 -0.01829766 -0.01785025 1000 1000 1000 -0.01839566 -0.01829766 -0.01785025 1000 1000 1000 -0.01696287 -0.01684025 -0.01712425 -0.01733441 -0.01731465 1000 -0.01696287 -0.01684025 -0.01712425 -0.01733441 -0.01731465 1000
lala 9 1.2 1 first 5 1 94 6 5.580001 0.539997816085815 -1 1 1 1 -0.01460168 -0.01407083 -0.01366034 1000 1000 1000 -0.01460168 -0.01407083 -0.01366034 1000 1000 1000 -0.0161129 -0.0162272 -0.01589232 -0.01627676 -0.01652006 1000 -0.0161129 -0.0162272 -0.01589232 -0.01627676 -0.01652006 1000
lala 6 1.2 1 second 7 1 95 4 4.12 0.919997453689575 1 1 1 0 -0.01675119 -0.01679593 -0.01695697 -0.01675894 -0.01657542 1000 -0.01675119 -0.01679593 -0.01695697 -0.01675894 -0.01657542 1000 -0.01639061 -0.01658703 -0.01654253 -0.01604844 -0.01582592 1000 -0.01639061 -0.01658703 -0.01654253 -0.01604844 -0.01582592 1000
lala 6 1.2 0 first 1 1 96 4 4.12 0.819997549057007 -1 1 -1 1 -0.01491027 -0.01467599 -0.01460407 1000 1000 1000 -0.01491027 -0.01467599 -0.01460407 1000 1000 1000 -0.009443664 -0.009552423 -0.0102467 -0.01020472 -0.01004592 1000 -0.009443664 -0.009552423 -0.0102467 -0.01020472 -0.01004592 1000
lala 8 1.2 1 first 13 1 97 4 4.12 1.27999711036682 0 1 1 0 -0.01043043 -0.01048605 -0.01073084 1000 1000 1000 -0.01043043 -0.01048605 -0.01073084 1000 1000 1000 -0.0112675 -0.01154003 -0.01168269 -0.01184575 -0.01221457 1000 -0.0112675 -0.01154003 -0.01168269 -0.01184575 -0.01221457 1000
lala 6 1.2 1 first 3 1 98 5 5.45 0.879997491836548 -1 1 1 1 -0.01202066 -0.01128374 -0.01119479 1000 1000 1000 -0.01202066 -0.01128374 -0.01119479 1000 1000 1000 -0.01212139 -0.01220744 -0.01201546 -0.01227737 -0.01251251 1000 -0.01212139 -0.01220744 -0.01201546 -0.01227737 -0.01251251 1000
lala 9 1.2 0 second 13 1 99 4 2.92 0.539997816085815 0 1 -1 0 -0.01210607 -0.01206644 -0.01248646 -0.01242019 -0.01218295 1000 -0.01210607 -0.01206644 -0.01248646 -0.01242019 -0.01218295 1000 -0.01361808 -0.01382981 -0.01339245 -0.01354476 -0.01309903 1000 -0.01361808 -0.01382981 -0.01339245 -0.01354476 -0.01309903 1000
lala 10 0.6 1 second 5 1 100 6 4.980001 0.319998025894165 -1 1 1 0 -0.0155568 -0.01488789 -0.01205995 -0.01147013 -0.01374252 1000 -0.0155568 -0.01488789 -0.01205995 -0.01147013 -0.01374252 1000 -0.01465715 -0.01698767 -0.01747711 -0.01772951 -0.01867838 1000 -0.01465715 -0.01698767 -0.01747711 -0.01772951 -0.01867838 1000
lala 10 0.6 0 second 2 1 101 5 5.1 0.379997968673706 -1 0 -1 0 -0.01349043 -0.01438402 -0.01339915 -0.01305458 -0.01346233 1000 -0.01349043 -0.01438402 -0.01339915 -0.01305458 -0.01346233 1000 -0.01512875 -0.01546271 -0.01613358 -0.01606214 -0.01575002 1000 -0.01512875 -0.01546271 -0.01613358 -0.01606214 -0.01575002 1000
lala 2 1.2 0 first 10 1 102 6 5.16 0.599997758865356 1 0 -1 0 -0.01408749 -0.014388 -0.01506673 1000 1000 1000 -0.01408749 -0.014388 -0.01506673 1000 1000 1000 -0.01433439 -0.01384425 -0.01351123 -0.01345002 -0.01312888 1000 -0.01433439 -0.01384425 -0.01351123 -0.01345002 -0.01312888 1000
lala 10 0.6 0 second 13 1 103 4 3.52 0.599997758865356 0 1 -1 0 -0.01114334 -0.01117448 -0.01115992 -0.01167244 -0.01164643 1000 -0.01114334 -0.01117448 -0.01115992 -0.01167244 -0.01164643 1000 -0.01070927 -0.01132852 -0.01064213 -0.01035567 -0.01048296 1000 -0.01070927 -0.01132852 -0.01064213 -0.01035567 -0.01048296 1000
lala 6 1.2 1 first 4 1 104 6 5.16 0.61999773979187 -1 0 1 1 -0.00863772 -0.0081277 -0.008137986 1000 1000 1000 -0.00863772 -0.0081277 -0.008137986 1000 1000 1000 -0.0105786 -0.0108528 -0.01057237 -0.01075512 -0.01049255 1000 -0.0105786 -0.0108528 -0.01057237 -0.01075512 -0.01049255 1000
lala 7 1.2 0 second 7 1 105 4 2.92 0.419997930526733 1 1 -1 0 -0.004918535 -0.005085275 -0.005897236 -0.006342175 -0.005869844 1000 -0.004918535 -0.005085275 -0.005897236 -0.006342175 -0.005869844 1000 -0.007880747 -0.007814631 -0.007836834 -0.009020075 -0.009476946 1000 -0.007880747 -0.007814631 -0.007836834 -0.009020075 -0.009476946 1000
lala 11 0.3 1 second 2 1 106 5 5.4 0.319998025894165 -1 0 1 1 -0.009719712 -0.00930366 -0.009253869 -0.009793956 -0.009907408 1000 -0.009719712 -0.00930366 -0.009253869 -0.009793956 -0.009907408 1000 -0.008567129 -0.00848633 -0.00875255 -0.008845372 -0.008522394 1000 -0.008567129 -0.00848633 -0.00875255 -0.008845372 -0.008522394 1000
lala 6 1.2 1 second 15 1 107 5 5.45 0.899997472763062 0 1 1 0 -0.006435547 -0.007277242 -0.007588844 -0.007565799 -0.007976077 1000 -0.006435547 -0.007277242 -0.007588844 -0.007565799 -0.007976077 1000 -0.007153146 -0.006977861 -0.007369112 -0.007936733 -0.007750776 1000 -0.007153146 -0.006977861 -0.007369112 -0.007936733 -0.007750776 1000
lala 7 1.2 1 first 6 1 108 4 5.04 1.57999682426453 1 0 1 0 -0.00686818 -0.006632139 -0.007189774 1000 1000 1000 -0.00686818 -0.006632139 -0.007189774 1000 1000 1000 -0.01199778 -0.01248071 -0.01294667 -0.01256071 -0.01197769 1000 -0.01199778 -0.01248071 -0.01294667 -0.01256071 -0.01197769 1000
lala 5 1.2 1 second 9 1 109 5 4.25 1.37999701499939 1 1 1 0 -0.007761301 -0.007963309 -0.007892457 -0.00787255 -0.00732019 1000 -0.007761301 -0.007963309 -0.007892457 -0.00787255 -0.00732019 1000 -0.008153243 -0.007875931 -0.008606846 -0.008988481 -0.009593965 1000 -0.008153243 -0.007875931 -0.008606846 -0.008988481 -0.009593965 1000
lala 7 1.2 0 second 4 1 110 6 3.96 0.279998064041138 -1 0 -1 0 -0.008957725 -0.009005633 -0.009396247 -0.009354614 -0.009147719 1000 -0.008957725 -0.009005633 -0.009396247 -0.009354614 -0.009147719 1000 -0.01033058 -0.01064202 -0.01060956 -0.01018774 -0.01060973 1000 -0.01033058 -0.01064202 -0.01060956 -0.01018774 -0.01060973 1000
lala 6 1.2 0 first 17 1 111 6 4.380001 0.739997625350952 0 1 -1 1 -0.009423793 -0.008771054 -0.008585609 1000 1000 1000 -0.009423793 -0.008771054 -0.008585609 1000 1000 1000 -0.01116852 -0.01117372 -0.01223949 -0.0143871 -0.01448663 1000 -0.01116852 -0.01117372 -0.01223949 -0.0143871 -0.01448663 1000
lala 6 1.2 0 second 9 1 112 5 3.05 0.739997625350952 1 1 -1 1 -0.01066775 -0.01128871 -0.01160078 -0.01136336 -0.01082934 1000 -0.01066775 -0.01128871 -0.01160078 -0.01136336 -0.01082934 1000 -0.01207954 -0.01212393 -0.01217524 -0.01242747 -0.01212229 1000 -0.01207954 -0.01212393 -0.01217524 -0.01242747 -0.01212229 1000
lala 7 1.2 1 second 3 1 113 5 4.25 1.21999716758728 -1 1 1 1 -0.01196098 -0.01175523 -0.01206173 -0.01212931 -0.01189192 1000 -0.01196098 -0.01175523 -0.01206173 -0.01212931 -0.01189192 1000 -0.01191306 -0.01205614 -0.01164803 -0.01137966 -0.01217429 1000 -0.01191306 -0.01205614 -0.01164803 -0.01137966 -0.01217429 1000
lala 7 1.2 1 first 17 1 114 6 5.580001 1.17999720573425 0 1 1 1 -0.01216939 -0.01198579 -0.01198366 1000 1000 1000 -0.01216939 -0.01198579 -0.01198366 1000 1000 1000 -0.01247421 -0.01335068 -0.01357791 -0.01276577 -0.01246311 1000 -0.01247421 -0.01335068 -0.01357791 -0.01276577 -0.01246311 1000
lala 8 1.2 1 second 4 1 115 6 5.16 0.419997930526733 -1 0 1 1 -0.01269317 -0.01279607 -0.0135042 -0.01405698 -0.01416922 1000 -0.01269317 -0.01279607 -0.0135042 -0.01405698 -0.01416922 1000 -0.01433153 -0.01471186 -0.01398657 -0.01364729 -0.01370499 1000 -0.01433153 -0.01471186 -0.01398657 -0.01364729 -0.01370499 1000
lala 7 1.2 0 first 16 1 116 6 3.96 0.979997396469116 0 0 -1 1 -0.01107376 -0.01107051 -0.01131208 1000 1000 1000 -0.01107376 -0.01107051 -0.01131208 1000 1000 1000 -0.01316143 -0.01323641 -0.01360785 -0.01336819 -0.01274658 1000 -0.01316143 -0.01323641 -0.01360785 -0.01336819 -0.01274658 1000
lala 2 1.2 0 first 0 1 117 4 3.84 1.37999701499939 -1 0 -1 1 -0.0126283 -0.01286263 -0.01325678 1000 1000 1000 -0.0126283 -0.01286263 -0.01325678 1000 1000 1000 -0.01596365 -0.01551429 -0.01482057 -0.01436919 -0.01420007 1000 -0.01596365 -0.01551429 -0.01482057 -0.01436919 -0.01420007 1000
lala 7 1.2 1 first 9 1 118 5 4.25 1.47999691963196 1 1 1 0 -0.01440353 -0.014594 -0.01453446 1000 1000 1000 -0.01440353 -0.014594 -0.01453446 1000 1000 1000 -0.01624498 -0.01601205 -0.0156529 -0.01548479 -0.01523062 1000 -0.01624498 -0.01601205 -0.0156529 -0.01548479 -0.01523062 1000
lala 8 1.2 1 second 16 1 119 6 5.16 0.899997472763062 0 0 1 0 -0.01425619 -0.01522799 -0.015342 -0.01531723 -0.01540618 1000 -0.01425619 -0.01522799 -0.015342 -0.01531723 -0.01540618 1000 -0.01541257 -0.01582412 -0.01605639 -0.01587979 -0.01513517 1000 -0.01541257 -0.01582412 -0.01605639 -0.01587979 -0.01513517 1000
lala 3 1.2 1 second 10 1 120 6 6.36 0.539997816085815 1 0 1 1 -0.01482975 -0.014952 -0.01518237 -0.01469471 -0.01459082 1000 -0.01482975 -0.014952 -0.01518237 -0.01469471 -0.01459082 1000 -0.01457367 -0.01498377 -0.01503633 -0.01386087 -0.01346924 1000 -0.01457367 -0.01498377 -0.01503633 -0.01386087 -0.01346924 1000
lala 11 0.6 0 first 5 1 121 6 4.380001 1.83999681472778 -1 1 -1 1 -0.01322272 -0.01381514 -0.01383734 1000 1000 1000 -0.01322272 -0.01381514 -0.01383734 1000 1000 1000 -0.01472739 -0.01392746 -0.01366674 -0.01366245 -0.01353693 1000 -0.01472739 -0.01392746 -0.01366674 -0.01366245 -0.01353693 1000
lala 8 1.2 0 second 17 1 122 6 4.380001 1.47999691963196 0 1 -1 1 -0.01467396 -0.01485547 -0.01497826 -0.01530168 -0.01540606 1000 -0.01467396 -0.01485547 -0.01497826 -0.01530168 -0.01540606 1000 -0.0147875 -0.01522087 -0.01586748 -0.01572419 -0.01473304 1000 -0.0147875 -0.01522087 -0.01586748 -0.01572419 -0.01473304 1000
lala 9 1.2 0 first 4 1 123 6 3.96 1.03999733924866 -1 0 -1 0 -0.01500489 -0.01546206 -0.01599034 1000 1000 1000 -0.01500489 -0.01546206 -0.01599034 1000 1000 1000 -0.01572501 -0.01592632 -0.01613568 -0.01565999 -0.01521515 1000 -0.01572501 -0.01592632 -0.01613568 -0.01565999 -0.01521515 1000
lala 4 1.2 1 first 10 1 124 6 5.16 0.699997663497925 1 0 1 0 -0.01551715 -0.01555164 -0.01543949 1000 1000 1000 -0.01551715 -0.01555164 -0.01543949 1000 1000 1000 -0.01525698 -0.01531473 -0.01600926 -0.01646193 -0.01608869 1000 -0.01525698 -0.01531473 -0.01600926 -0.01646193 -0.01608869 1000
lala 11 0.6 1 first 13 1 125 4 4.12 0.679997682571411 0 1 1 1 -0.0150568 -0.0150119 -0.01484691 1000 1000 1000 -0.0150568 -0.0150119 -0.01484691 1000 1000 1000 -0.01581304 -0.01595084 -0.01604411 -0.01593392 -0.0157087 1000 -0.01581304 -0.01595084 -0.01604411 -0.01593392 -0.0157087 1000
lala 9 1.2 0 first 16 1 126 6 3.96 0.439997911453247 0 0 -1 0 -0.01447743 -0.01424256 -0.0147167 1000 1000 1000 -0.01447743 -0.01424256 -0.0147167 1000 1000 1000 -0.01737413 -0.01737416 -0.01689368 -0.0161999 -0.01579125 1000 -0.01737413 -0.01737416 -0.01689368 -0.0161999 -0.01579125 1000
lala 10 0.6 0 second 4 1 127 6 4.56 0.639997720718384 -1 0 -1 1 -0.01576107 -0.01611074 -0.01631765 -0.01658585 -0.01649613 1000 -0.01576107 -0.01611074 -0.01631765 -0.01658585 -0.01649613 1000 -0.01712153 -0.01662024 -0.01555922 -0.01585124 -0.01644731 1000 -0.01712153 -0.01662024 -0.01555922 -0.01585124 -0.01644731 1000
lala 12 0.15 1 second 2 1 128 5 5.25 1.33999705314636 -1 0 1 1 -0.01568319 -0.01592514 -0.01631888 -0.01582866 -0.01578714 1000 -0.01568319 -0.01592514 -0.01631888 -0.01582866 -0.01578714 1000 -0.01628059 -0.01602769 -0.01604933 -0.01615078 -0.01597024 1000 -0.01628059 -0.01602769 -0.01604933 -0.01615078 -0.01597024 1000
lala 8 1.2 0 second 9 1 129 5 3.05 1.01999735832214 1 1 -1 1 -0.01666162 -0.01705813 -0.01732604 -0.01692204 -0.01691183 1000 -0.01666162 -0.01705813 -0.01732604 -0.01692204 -0.01691183 1000 -0.01342814 -0.01463749 -0.01437723 -0.01480866 -0.01519378 1000 -0.01342814 -0.01463749 -0.01437723 -0.01480866 -0.01519378 1000
lala 12 0.3 1 first 5 1 130 6 4.680001 1.3999969959259 -1 1 1 0 -0.01552523 -0.01530529 -0.01575874 1000 1000 1000 -0.01552523 -0.01530529 -0.01575874 1000 1000 1000 -0.01857474 -0.01834445 -0.01779707 -0.01761522 -0.01732931 1000 -0.01857474 -0.01834445 -0.01779707 -0.01761522 -0.01732931 1000
lala 13 0.15 1 second 2 1 131 5 5.1 0.779997587203979 -1 0 1 0 -0.017067 -0.01762073 -0.01814508 -0.01827507 -0.01826889 1000 -0.017067 -0.01762073 -0.01814508 -0.01827507 -0.01826889 1000 -0.01822099 -0.01841892 -0.01874025 -0.01837503 -0.01831387 1000 -0.01822099 -0.01841892 -0.01874025 -0.01837503 -0.01831387 1000
lala 4 1.2 0 second 11 1 132 6 4.380001 1.37999701499939 1 1 -1 1 -0.01749944 -0.01781995 -0.01774659 -0.01729945 -0.01738876 1000 -0.01749944 -0.01781995 -0.01774659 -0.01729945 -0.01738876 1000 -0.01826099 -0.01800501 -0.01718809 -0.01691072 -0.0172448 1000 -0.01826099 -0.01800501 -0.01718809 -0.01691072 -0.0172448 1000
lala 14 0.15 1 second 2 1 133 5 4.95 0.499997854232788 -1 0 1 1 -0.01604974 -0.01620033 -0.01570129 -0.01563805 -0.01603187 1000 -0.01604974 -0.01620033 -0.01570129 -0.01563805 -0.01603187 1000 -0.01640314 -0.0161449 -0.01631321 -0.0166026 -0.01604353 1000 -0.01640314 -0.0161449 -0.01631321 -0.0166026 -0.01604353 1000
lala 7 1.2 1 first 1 1 134 4 5.32 0.959997415542603 -1 1 1 0 -0.01593365 -0.0161527 -0.01655248 1000 1000 1000 -0.01593365 -0.0161527 -0.01655248 1000 1000 1000 -0.01928516 -0.01926845 -0.01912712 -0.0188768 -0.01903089 1000 -0.01928516 -0.01926845 -0.01912712 -0.0188768 -0.01903089 1000
lala 8 1.2 1 second 14 1 135 5 6.9 0.439997911453247 0 0 1 0 -0.01919563 -0.01877871 -0.01858639 -0.01869622 -0.01885926 1000 -0.01919563 -0.01877871 -0.01858639 -0.01869622 -0.01885926 1000 -0.01818246 -0.01836133 -0.01850767 -0.01862229 -0.0184778 1000 -0.01818246 -0.01836133 -0.01850767 -0.01862229 -0.0184778 1000
lala 8 1.2 0 first 1 1 136 4 4.12 0.99999737739563 -1 1 -1 1 -0.01719258 -0.01781045 -0.02081471 1000 1000 1000 -0.01719258 -0.01781045 -0.02081471 1000 1000 1000 -0.02062255 -0.02021817 -0.02045972 -0.02028856 -0.01955381 1000 -0.02062255 -0.02021817 -0.02045972 -0.02028856 -0.01955381 1000
lala 6 1.2 0 first 8 1 137 5 2.1 0.519997835159302 1 0 -1 0 -0.0195077 -0.01940994 -0.0192443 1000 1000 1000 -0.0195077 -0.01940994 -0.0192443 1000 1000 1000 -0.02277064 -0.02238336 -0.02164694 -0.02124951 -0.02180885 1000 -0.02277064 -0.02238336 -0.02164694 -0.02124951 -0.02180885 1000
lala 9 1.2 1 second 1 1 138 4 5.32 1.13999724388123 -1 1 1 1 -0.02054091 -0.02064677 -0.02112778 -0.02103166 -0.02071173 1000 -0.02054091 -0.02064677 -0.02112778 -0.02103166 -0.02071173 1000 -0.02105183 -0.02147273 -0.02127921 -0.02081799 -0.0208958 1000 -0.02105183 -0.02147273 -0.02127921 -0.02081799 -0.0208958 1000
lala 8 1.2 0 first 6 1 139 4 3.84 3.83999490737915 1 0 -1 1 -0.01954312 -0.01969956 -0.01951868 1000 1000 1000 -0.01954312 -0.01969956 -0.01951868 1000 1000 1000 -0.01948879 -0.01963392 -0.02010139 -0.01977536 -0.01951165 1000 -0.01948879 -0.01963392 -0.02010139 -0.01977536 -0.01951165 1000
lala 9 1.2 1 second 17 1 140 6 5.580001 0.739997625350952 0 1 1 0 -0.0186602 -0.01891193 -0.01836788 -0.01851942 -0.01917214 1000 -0.0186602 -0.01891193 -0.01836788 -0.01851942 -0.01917214 1000 -0.01970473 -0.01993038 -0.0196765 -0.01913064 -0.01922415 1000 -0.01970473 -0.01993038 -0.0196765 -0.01913064 -0.01922415 1000
lala 11 0.6 0 first 4 1 141 6 5.16 0.579997777938843 -1 0 -1 1 -0.01943622 -0.01972734 -0.02009185 1000 1000 1000 -0.01943622 -0.01972734 -0.02009185 1000 1000 1000 -0.02500182 -0.02415606 -0.02463218 -0.02467631 -0.02386979 1000 -0.02500182 -0.02415606 -0.02463218 -0.02467631 -0.02386979 1000
lala 3 1.2 1 second 0 1 142 4 5.04 0.439997911453247 -1 0 1 1 -0.02406907 -0.02489591 -0.02531225 -0.02474996 -0.02475859 1000 -0.02406907 -0.02489591 -0.02531225 -0.02474996 -0.02475859 1000 -0.02491738 -0.02444333 -0.02459195 -0.02486181 -0.02475321 1000 -0.02491738 -0.02444333 -0.02459195 -0.02486181 -0.02475321 1000
lala 5 1.2 1 second 11 1 143 6 5.580001 1.5399968624115 1 1 1 0 -0.020788 -0.02016716 -0.01938333 -0.01890543 -0.01903254 1000 -0.020788 -0.02016716 -0.01938333 -0.01890543 -0.01903254 1000 -0.01402742 -0.01405389 -0.01469936 -0.01370432 -0.01128991 1000 -0.01402742 -0.01405389 -0.01469936 -0.01370432 -0.01128991 1000
lala 8 1.2 0 second 3 1 144 5 3.05 0.359997987747192 -1 1 -1 0 -0.01250524 -0.01204774 -0.01203985 -0.01256338 -0.01260988 1000 -0.01250524 -0.01204774 -0.01203985 -0.01256338 -0.01260988 1000 -0.0128981 -0.01328687 -0.01354202 -0.01311221 -0.01344274 1000 -0.0128981 -0.01328687 -0.01354202 -0.01311221 -0.01344274 1000
lala 6 1.2 1 second 11 1 145 6 4.380001 2.51999616622925 1 1 1 0 -0.01522836 -0.01527825 -0.01573003 -0.01551002 -0.01553293 1000 -0.01522836 -0.01527825 -0.01573003 -0.01551002 -0.01553293 1000 -0.01144261 -0.01112547 -0.01147196 -0.0117687 -0.01225118 1000 -0.01144261 -0.01112547 -0.01147196 -0.0117687 -0.01225118 1000
lala 10 0.6 1 first 1 1 146 4 4.72 1.67999696731567 -1 1 1 1 -0.01190305 -0.01244781 -0.0123533 1000 1000 1000 -0.01190305 -0.01244781 -0.0123533 1000 1000 1000 -0.01393866 -0.01414188 -0.01410787 -0.01364858 -0.01394789 1000 -0.01393866 -0.01414188 -0.01410787 -0.01364858 -0.01394789 1000
lala 11 0.6 0 second 1 1 147 4 4.12 0.479997873306274 -1 1 -1 0 -0.01450654 -0.0145161 -0.01465838 -0.01496057 -0.01504791 1000 -0.01450654 -0.0145161 -0.01465838 -0.01496057 -0.01504791 1000 -0.01446578 -0.01435489 -0.01435602 -0.0139006 -0.01346203 1000 -0.01446578 -0.01435489 -0.01435602 -0.0139006 -0.01346203 1000
lala 12 0.6 1 second 4 1 148 6 5.76 0.379997968673706 -1 0 1 1 -0.01328233 -0.01338751 -0.01403033 -0.01343031 -0.01330619 1000 -0.01328233 -0.01338751 -0.01403033 -0.01343031 -0.01330619 1000 -0.01565852 -0.01563575 -0.01513005 -0.01508896 -0.01486676 1000 -0.01565852 -0.01563575 -0.01513005 -0.01508896 -0.01486676 1000
lala 10 0.6 1 second 16 1 149 6 4.56 1.05999732017517 0 0 1 1 -0.01399257 -0.01352847 -0.01307241 -0.01340384 -0.01372819 1000 -0.01399257 -0.01352847 -0.01307241 -0.01340384 -0.01372819 1000 -0.01525035 -0.01445212 -0.01485544 -0.01515599 -0.01463917 1000 -0.01525035 -0.01445212 -0.01485544 -0.01515599 -0.01463917 1000
lala 12 0.3 0 first 1 1 150 4 4.42 0.599997758865356 -1 1 -1 0 -0.01171165 -0.01090509 -0.007499425 -0.005507833 -0.005162968 -0.01014769 -0.01171165 -0.01090509 -0.007499425 -0.005507833 -0.005162968 -0.01014769 -0.02032631 -0.01635935 -0.01516291 -0.01725521 -0.01838156 1000 -0.02032631 -0.01635935 -0.01516291 -0.01725521 -0.01838156 1000
lala 9 1.2 0 second 3 1 151 5 4.25 0.759997606277466 -1 1 -1 1 -0.01478394 -0.0160937 -0.01666659 -0.01662695 -0.01664214 1000 -0.01478394 -0.0160937 -0.01666659 -0.01662695 -0.01664214 1000 -0.02294688 -0.02276524 -0.02261713 -0.02262022 -0.02325621 1000 -0.02294688 -0.02276524 -0.02261713 -0.02262022 -0.02325621 1000
lala 13 0.15 1 second 5 1 152 6 4.530001 0.939997434616089 -1 1 1 1 -0.02343138 -0.02420275 -0.02313741 -0.02287991 -0.02416779 1000 -0.02343138 -0.02420275 -0.02313741 -0.02287991 -0.02416779 1000 -0.02405714 -0.02419307 -0.02515446 -0.0262862 -0.02686303 1000 -0.02405714 -0.02419307 -0.02515446 -0.0262862 -0.02686303 1000
lala 7 1.2 0 second 11 1 153 6 3.180001 0.799997568130493 1 1 -1 1 -0.01159962 -0.01084746 -0.01067824 -0.01059405 -0.01041973 1000 -0.01159962 -0.01084746 -0.01067824 -0.01059405 -0.01041973 1000 -0.01128912 -0.01117537 -0.01097299 -0.01006429 -0.01025888 1000 -0.01128912 -0.01117537 -0.01097299 -0.01006429 -0.01025888 1000
lala 11 0.3 1 second 16 1 154 6 4.26 0.799997568130493 0 0 1 0 -0.005897388 -0.00639264 -0.007185125 -0.007792545 -0.007956385 1000 -0.005897388 -0.00639264 -0.007185125 -0.007792545 -0.007956385 1000 -0.00859636 -0.008734068 -0.008889204 -0.008322754 -0.007865729 1000 -0.00859636 -0.008734068 -0.008889204 -0.008322754 -0.007865729 1000
lala 9 1.2 1 first 14 1 155 5 5.7 0.379997968673706 0 0 1 1 -0.006693479 -0.006921574 -0.0072986 1000 1000 1000 -0.006693479 -0.006921574 -0.0072986 1000 1000 1000 -0.01064161 -0.010873 -0.01118949 -0.01154252 -0.01126334 1000 -0.01064161 -0.010873 -0.01118949 -0.01154252 -0.01126334 1000
lala 5 1.2 0 first 10 1 156 6 3.96 0.339998006820679 1 0 -1 0 -0.0115653 -0.01146195 -0.01123508 1000 1000 1000 -0.0115653 -0.01146195 -0.01123508 1000 1000 1000 -0.01011706 -0.009958337 -0.00986829 -0.009646852 -0.01018805 1000 -0.01011706 -0.009958337 -0.00986829 -0.009646852 -0.01018805 1000
lala 6 1.2 1 first 10 1 157 6 5.16 1.07999730110168 1 0 1 1 -0.009943198 -0.009528588 -0.01203729 1000 1000 1000 -0.009943198 -0.009528588 -0.01203729 1000 1000 1000 -0.01593779 -0.01607746 -0.01559903 -0.01544983 -0.01543226 1000 -0.01593779 -0.01607746 -0.01559903 -0.01544983 -0.01543226 1000
lala 4 1.2 0 first 0 1 158 4 3.84 1.05999732017517 -1 0 -1 1 -0.01448741 -0.01456242 -0.01457088 1000 1000 1000 -0.01448741 -0.01456242 -0.01457088 1000 1000 1000 -0.01407975 -0.01421859 -0.01466938 -0.01498205 -0.01512706 1000 -0.01407975 -0.01421859 -0.01466938 -0.01498205 -0.01512706 1000
lala 8 1.2 1 second 11 1 159 6 4.380001 0.559997797012329 1 1 1 1 -0.01454915 -0.01485993 -0.01454134 -0.01428856 -0.01437653 1000 -0.01454915 -0.01485993 -0.01454134 -0.01428856 -0.01437653 1000 -0.01314232 -0.01277931 -0.01287558 -0.01399921 -0.01402341 1000 -0.01314232 -0.01277931 -0.01287558 -0.01399921 -0.01402341 1000
lala 9 1.2 0 first 11 1 160 6 3.180001 0.479997873306274 1 1 -1 1 -0.01378333 -0.01380591 -0.01464515 1000 1000 1000 -0.01378333 -0.01380591 -0.01464515 1000 1000 1000 -0.01477645 -0.01445557 -0.01447293 -0.01409877 -0.0135444 1000 -0.01477645 -0.01445557 -0.01447293 -0.01409877 -0.0135444 1000
lala 9 1.2 1 second 9 1 161 5 4.25 1.65999698638916 1 1 1 0 -0.01197274 -0.01170804 -0.01214813 -0.013092 -0.01328883 1000 -0.01197274 -0.01170804 -0.01214813 -0.013092 -0.01328883 1000 -0.01367588 -0.01414796 -0.01468071 -0.01496482 -0.01510318 1000 -0.01367588 -0.01414796 -0.01468071 -0.01496482 -0.01510318 1000
lala 7 1.2 0 second 15 1 162 5 4.25 1.23999714851379 0 1 -1 0 -0.01579881 -0.01616619 -0.01583397 -0.01588971 -0.01633257 1000 -0.01579881 -0.01616619 -0.01583397 -0.01588971 -0.01633257 1000 -0.01584325 -0.01570638 -0.01556816 -0.0160289 -0.01607988 1000 -0.01584325 -0.01570638 -0.01556816 -0.0160289 -0.01607988 1000
lala 12 0.3 0 first 16 1 163 6 3.96 1.87999677658081 0 0 -1 0 -0.01627057 -0.01749784 -0.01771284 1000 1000 1000 -0.01627057 -0.01749784 -0.01771284 1000 1000 1000 -0.01654425 -0.01626203 -0.01662103 -0.01740187 -0.01767167 1000 -0.01654425 -0.01626203 -0.01662103 -0.01740187 -0.01767167 1000
lala 15 0.3 1 second 2 1 164 5 4.65 1.5399968624115 -1 0 1 0 -0.01847865 -0.01831152 -0.01824478 -0.01863738 -0.01888624 1000 -0.01847865 -0.01831152 -0.01824478 -0.01863738 -0.01888624 1000 -0.01780432 -0.01756952 -0.01805738 -0.01774925 -0.01742033 1000 -0.01780432 -0.01756952 -0.01805738 -0.01774925 -0.01742033 1000
lala 8 1.2 1 first 15 1 165 5 5.45 1.51999688148499 0 1 1 1 -0.01737189 -0.01769983 -0.01750177 1000 1000 1000 -0.01737189 -0.01769983 -0.01750177 1000 1000 1000 -0.01959552 -0.01978696 -0.01971495 -0.01990951 -0.02005514 1000 -0.01959552 -0.01978696 -0.01971495 -0.01990951 -0.02005514 1000
lala 16 0.6 0 second 2 1 166 5 4.05 1.67999696731567 -1 0 -1 0 -0.01839065 -0.01876065 -0.01892452 -0.01933602 -0.01952085 1000 -0.01839065 -0.01876065 -0.01892452 -0.01933602 -0.01952085 1000 -0.01885319 -0.01874489 -0.01931547 -0.0196502 -0.01984966 1000 -0.01885319 -0.01874489 -0.01931547 -0.0196502 -0.01984966 1000
lala 14 0.15 1 second 5 1 167 6 4.380001 0.439997911453247 -1 1 1 0 -0.01945074 -0.01995774 -0.01953539 -0.01954925 -0.01959017 1000 -0.01945074 -0.01995774 -0.01953539 -0.01954925 -0.01959017 1000 -0.01935731 -0.01905007 -0.0193372 -0.01962735 -0.01949417 1000 -0.01935731 -0.01905007 -0.0193372 -0.01962735 -0.01949417 1000
lala 10 0.6 0 second 9 1 168 5 3.65 0.659997701644897 1 1 -1 0 -0.01991202 -0.02061 -0.02056298 -0.02013983 -0.02028318 1000 -0.01991202 -0.02061 -0.02056298 -0.02013983 -0.02028318 1000 -0.01860849 -0.01872367 -0.02203697 -0.0231805 -0.02393107 1000 -0.01860849 -0.01872367 -0.02203697 -0.0231805 -0.02393107 1000
lala 5 1.2 0 first 0 1 169 4 5.04 2.89999580383301 -1 0 -1 1 -0.01690267 -0.01613502 -0.01626315 1000 1000 1000 -0.01690267 -0.01613502 -0.01626315 1000 1000 1000 -0.02550177 -0.02615745 -0.02741782 -0.02794656 -0.02786694 1000 -0.02550177 -0.02615745 -0.02741782 -0.02794656 -0.02786694 1000
lala 12 0.3 0 first 13 1 170 4 3.82 1.83999681472778 0 1 -1 1 -0.0211637 -0.0210009 -0.02165274 1000 1000 1000 -0.0211637 -0.0210009 -0.02165274 1000 1000 1000 -0.02187685 -0.02143305 -0.02164886 -0.02211307 -0.02204312 1000 -0.02187685 -0.02143305 -0.02164886 -0.02211307 -0.02204312 1000
lala 7 1.2 0 second 12 1 171 4 2.64 0.759997606277466 0 0 -1 1 -0.02271307 -0.02224068 -0.02236691 -0.02288738 -0.02275516 1000 -0.02271307 -0.02224068 -0.02236691 -0.02288738 -0.02275516 1000 -0.02156815 -0.02165391 -0.02225235 -0.02274491 -0.02247252 1000 -0.02156815 -0.02165391 -0.02225235 -0.02274491 -0.02247252 1000
lala 13 0.15 1 first 13 1 172 4 3.97 1.95999670028687 0 1 1 1 -0.02344803 -0.02361373 -0.02382074 1000 1000 1000 -0.02344803 -0.02361373 -0.02382074 1000 1000 1000 -0.0239448 -0.02401138 -0.02388546 -0.02398223 -0.02397322 1000 -0.0239448 -0.02401138 -0.02388546 -0.02398223 -0.02397322 1000
lala 10 0.6 0 first 17 1 173 6 4.980001 1.11999726295471 0 1 -1 1 -0.02416362 -0.02361614 -0.02364242 1000 1000 1000 -0.02416362 -0.02361614 -0.02364242 1000 1000 1000 -0.02451644 -0.02444671 -0.02401427 -0.0242806 -0.02438225 1000 -0.02451644 -0.02444671 -0.02401427 -0.0242806 -0.02438225 1000
lala 7 1.2 0 first 8 1 174 5 3.3 0.799997568130493 1 0 -1 1 -0.02309158 -0.02327284 -0.02380509 1000 1000 1000 -0.02309158 -0.02327284 -0.02380509 1000 1000 1000 -0.02513155 -0.02463519 -0.0245242 -0.02424954 -0.02388979 1000 -0.02513155 -0.02463519 -0.0245242 -0.02424954 -0.02388979 1000
lala 17 0.3 1 second 2 1 175 5 4.35 0.61999773979187 -1 0 1 0 -0.02482958 -0.02491836 -0.02514281 -0.02483653 -0.02478033 1000 -0.02482958 -0.02491836 -0.02514281 -0.02483653 -0.02478033 1000 -0.02456358 -0.02444245 -0.02429461 -0.02477309 -0.02493786 1000 -0.02456358 -0.02444245 -0.02429461 -0.02477309 -0.02493786 1000
lala 13 0.3 1 first 4 1 176 6 5.46 1.63999700546265 -1 0 1 0 -0.02398475 -0.02491163 -0.02511659 1000 1000 1000 -0.02398475 -0.02491163 -0.02511659 1000 1000 1000 -0.02612913 -0.02623762 -0.02655723 -0.02631062 -0.02653904 1000 -0.02612913 -0.02623762 -0.02655723 -0.02631062 -0.02653904 1000
lala 11 0.3 1 second 17 1 177 6 5.280001 0.559997797012329 0 1 1 0 -0.02174003 -0.02071375 -0.02054622 -0.01972972 -0.01892558 1000 -0.02174003 -0.02071375 -0.02054622 -0.01972972 -0.01892558 1000 -0.0159746 -0.01653484 -0.01903617 -0.01868949 -0.01821711 1000 -0.0159746 -0.01653484 -0.01903617 -0.01868949 -0.01821711 1000
lala 8 1.2 0 second 12 1 178 4 3.84 1.21999716758728 0 0 -1 1 -0.01822791 -0.01835489 -0.01760474 -0.01690906 -0.01734939 1000 -0.01822791 -0.01835489 -0.01760474 -0.01690906 -0.01734939 1000 -0.01779569 -0.01793715 -0.01843828 -0.01865989 -0.01822272 1000 -0.01779569 -0.01793715 -0.01843828 -0.01865989 -0.01822272 1000
lala 10 0.6 1 second 11 1 179 6 3.780001 0.679997682571411 1 1 1 0 -0.01537359 -0.01666898 -0.01652488 -0.01702374 -0.01759613 1000 -0.01537359 -0.01666898 -0.01652488 -0.01702374 -0.01759613 1000 -0.01710391 -0.01763287 -0.01831266 -0.0181198 -0.01807208 1000 -0.01710391 -0.01763287 -0.01831266 -0.0181198 -0.01807208 1000
lala 6 1.2 1 second 0 1 180 4 6.24 0.479997873306274 -1 0 1 0 -0.01813079 -0.01828503 -0.01743308 -0.01753983 -0.01789449 1000 -0.01813079 -0.01828503 -0.01743308 -0.01753983 -0.01789449 1000 -0.01905877 -0.01882382 -0.01759942 -0.01701847 -0.01676261 1000 -0.01905877 -0.01882382 -0.01759942 -0.01701847 -0.01676261 1000
lala 8 1.2 1 second 8 1 181 5 4.5 0.539997816085815 1 0 1 0 -0.01543932 -0.01593674 -0.01677223 -0.0169295 -0.01635068 1000 -0.01543932 -0.01593674 -0.01677223 -0.0169295 -0.01635068 1000 -0.0172963 -0.01714175 -0.01687807 -0.01658455 -0.01640496 1000 -0.0172963 -0.01714175 -0.01687807 -0.01658455 -0.01640496 1000
lala 11 0.3 0 first 9 1 182 5 3.95 0.379997968673706 1 1 -1 0 -0.01758145 -0.01756299 -0.01765517 1000 1000 1000 -0.01758145 -0.01756299 -0.01765517 1000 1000 1000 -0.01759906 -0.01775866 -0.01761974 -0.01800718 -0.01778664 1000 -0.01759906 -0.01775866 -0.01761974 -0.01800718 -0.01778664 1000
lala 8 1.2 0 first 7 1 183 4 4.12 0.639997720718384 1 1 -1 0 -0.01641568 -0.01670409 -0.01693657 1000 1000 1000 -0.01641568 -0.01670409 -0.01693657 1000 1000 1000 -0.01813225 -0.01855502 -0.01910799 -0.01851213 -0.0178941 1000 -0.01813225 -0.01855502 -0.01910799 -0.01851213 -0.0178941 1000
lala 10 1.2 1 first 3 1 184 5 5.45 0.979997396469116 -1 1 1 0 -0.01892577 -0.01834097 -0.01828421 1000 1000 1000 -0.01892577 -0.01834097 -0.01828421 1000 1000 1000 -0.01902165 -0.01903849 -0.01854425 -0.01874396 -0.01918473 1000 -0.01902165 -0.01903849 -0.01854425 -0.01874396 -0.01918473 1000
lala 14 0.3 0 second 4 1 185 6 5.159999 2.53999614715576 -1 0 -1 0 -0.02091901 -0.02124175 -0.02085426 -0.02066026 -0.0209783 1000 -0.02091901 -0.02124175 -0.02085426 -0.02066026 -0.0209783 1000 -0.01958033 -0.01940948 -0.01990323 -0.01927702 -0.01883562 1000 -0.01958033 -0.01940948 -0.01990323 -0.01927702 -0.01883562 1000
lala 15 0.15 0 first 5 1 186 6 4.230001 0.459997892379761 -1 1 -1 0 -0.01974375 -0.019998 -0.01994803 1000 1000 1000 -0.01974375 -0.019998 -0.01994803 1000 1000 1000 -0.0190096 -0.01850872 -0.01763132 -0.01737889 -0.01805807 1000 -0.0190096 -0.01850872 -0.01763132 -0.01737889 -0.01805807 1000
lala 12 0.15 1 second 17 1 187 6 5.130001 0.439997911453247 0 1 1 0 -0.01754651 -0.01800052 -0.01978383 -0.02238554 -0.02400747 1000 -0.01754651 -0.01800052 -0.01978383 -0.02238554 -0.02400747 1000 -0.02654027 -0.02105675 -0.01660873 -0.01345438 -0.01266581 1000 -0.02654027 -0.02105675 -0.01660873 -0.01345438 -0.01266581 1000
lala 14 0.075 0 second 13 1 188 4 3.895 0.439997911453247 0 1 -1 1 -0.02098171 -0.02478812 -0.02202988 -0.01867029 -0.01575103 1000 -0.02098171 -0.02478812 -0.02202988 -0.01867029 -0.01575103 1000 -0.005740201 -0.00595657 -0.007484079 -0.008209233 -0.005346709 1000 -0.005740201 -0.00595657 -0.007484079 -0.008209233 -0.005346709 1000
lala 15 0.0375 1 first 13 1 189 4 3.9325 1.33999705314636 0 1 1 1 -0.006486488 -0.003483058 -0.004419443 1000 1000 1000 -0.006486488 -0.003483058 -0.004419443 1000 1000 1000 -0.01680632 -0.01886624 -0.01922234 -0.01948889 -0.0208355 1000 -0.01680632 -0.01886624 -0.01922234 -0.01948889 -0.0208355 1000
lala 12 0.3 0 second 9 1 190 5 4.25 0.839997529983521 1 1 -1 1 -0.01197018 -0.01277076 -0.01398097 -0.0141218 -0.01514131 1000 -0.01197018 -0.01277076 -0.01398097 -0.0141218 -0.01514131 1000 -0.01773932 -0.01808331 -0.01834255 -0.01965558 -0.02046451 1000 -0.01773932 -0.01808331 -0.01834255 -0.01965558 -0.02046451 1000
lala 10 1.2 1 first 14 1 191 5 4.5 0.719997644424438 0 0 1 1 -0.02246514 -0.02257506 -0.02251876 1000 1000 1000 -0.02246514 -0.02257506 -0.02251876 1000 1000 1000 -0.02672079 -0.02748689 -0.02739556 -0.02664177 -0.02530348 1000 -0.02672079 -0.02748689 -0.02739556 -0.02664177 -0.02530348 1000
lala 16 0.075 0 first 5 1 192 6 4.305001 1.03999733924866 -1 1 -1 1 -0.004945684 -0.00401296 -0.005000585 1000 1000 1000 -0.004945684 -0.00401296 -0.005000585 1000 1000 1000 -0.01024853 -0.009810281 -0.01018641 -0.01024827 -0.01055703 1000 -0.01024853 -0.009810281 -0.01018641 -0.01024827 -0.01055703 1000
lala 13 0.15 1 first 17 1 193 6 4.980001 0.539997816085815 0 1 1 0 -0.01239534 -0.01192456 -0.01265793 1000 1000 1000 -0.01239534 -0.01192456 -0.01265793 1000 1000 1000 -0.01366159 -0.01336452 -0.0135872 -0.01395171 -0.01401195 1000 -0.01366159 -0.01336452 -0.0135872 -0.01395171 -0.01401195 1000
lala 9 1.2 0 second 8 1 194 5 3.3 0.319998025894165 1 0 -1 1 -0.01417744 -0.008281689 -0.001441139 0.000583388 -0.001880825 1000 -0.01417744 -0.008281689 -0.001441139 0.000583388 -0.001880825 1000 0.0008173626 0.003342255 0.00351671 0.0005999186 -0.0006476875 1000 0.0008173626 0.003342255 0.00351671 0.0005999186 -0.0006476875 1000
lala 13 0.3 0 first 9 1 195 5 4.55 0.499997854232788 1 1 -1 0 -0.002747732 -0.005981053 -0.007302573 1000 1000 1000 -0.002747732 -0.005981053 -0.007302573 1000 1000 1000 -0.00634584 -0.006804134 -0.008039201 -0.007807238 -0.00735122 1000 -0.00634584 -0.006804134 -0.008039201 -0.007807238 -0.00735122 1000
lala 9 1.2 1 first 7 1 196 4 5.32 0.639997720718384 1 1 1 0 -0.00838535 -0.008609883 -0.008704149 1000 1000 1000 -0.00838535 -0.008609883 -0.008704149 1000 1000 1000 -0.01321468 -0.01275197 -0.01316597 -0.0131401 -0.01335808 1000 -0.01321468 -0.01275197 -0.01316597 -0.0131401 -0.01335808 1000
lala 7 1.2 0 first 0 1 197 4 5.04 0.419997930526733 -1 0 -1 0 -0.01290674 -0.01284566 -0.01306567 1000 1000 1000 -0.01290674 -0.01284566 -0.01306567 1000 1000 1000 -0.01700827 -0.01704604 -0.01733059 -0.01851558 -0.01869636 1000 -0.01700827 -0.01704604 -0.01733059 -0.01851558 -0.01869636 1000
lala 11 0.3 0 second 11 1 198 6 3.480001 0.799997568130493 1 1 -1 1 -0.01808004 -0.01869076 -0.01885054 -0.01884605 -0.01866154 1000 -0.01808004 -0.01869076 -0.01885054 -0.01884605 -0.01866154 1000 -0.01914593 -0.01851118 -0.0183991 -0.01819803 -0.01709777 1000 -0.01914593 -0.01851118 -0.0183991 -0.01819803 -0.01709777 1000
lala 16 0.01875 1 second 13 1 199 4 3.91375 0.879997491836548 0 1 1 0 -0.01926753 -0.01935665 -0.0196328 -0.01943913 -0.01877582 1000 -0.01926753 -0.01935665 -0.0196328 -0.01943913 -0.01877582 1000 -0.02064191 -0.02057059 -0.02029041 -0.02074441 -0.02058778 1000 -0.02064191 -0.02057059 -0.02029041 -0.02074441 -0.02058778 1000
lala 11 2.4 0 first 14 1 200 5 2.1 0.299998044967651 0 0 -1 1 -0.0184573 -0.01601658 -0.01583484 -0.01655872 -0.01676706 -0.0165217 -0.0184573 -0.01601658 -0.01583484 -0.01655872 -0.01676706 -0.0165217 -0.01218266 -0.01251752 -0.01299506 -0.01373847 -0.01478902 1000 -0.01218266 -0.01251752 -0.01299506 -0.01373847 -0.01478902 1000
lala 10 0.6 1 second 7 1 201 4 4.72 0.459997892379761 1 1 1 0 -0.01387719 -0.01584255 -0.01649594 -0.01692939 -0.01809135 1000 -0.01387719 -0.01584255 -0.01649594 -0.01692939 -0.01809135 1000 -0.02325165 -0.02365365 -0.02492123 -0.02491942 -0.02453492 1000 -0.02325165 -0.02365365 -0.02492123 -0.02491942 -0.02453492 1000
lala 12 0.15 0 first 11 1 202 6 3.630001 0.379997968673706 1 1 -1 1 -0.02159891 -0.02113733 -0.02069154 1000 1000 1000 -0.02159891 -0.02113733 -0.02069154 1000 1000 1000 -0.02263106 -0.02220364 -0.02184752 -0.02180066 -0.02195137 1000 -0.02263106 -0.02220364 -0.02184752 -0.02180066 -0.02195137 1000
lala 7 1.2 0 first 10 1 203 6 3.96 1.55999684333801 1 0 -1 0 -0.02510649 -0.02524043 -0.02425474 1000 1000 1000 -0.02510649 -0.02524043 -0.02425474 1000 1000 1000 -0.01730317 -0.01783999 -0.01801511 -0.01865437 -0.01867101 1000 -0.01730317 -0.01783999 -0.01801511 -0.01865437 -0.01867101 1000
lala 15 0.15 1 first 4 1 204 6 5.309999 0.739997625350952 -1 0 1 1 -0.01990223 -0.01953462 -0.01917304 1000 1000 1000 -0.01990223 -0.01953462 -0.01917304 1000 1000 1000 -0.01642245 -0.01721661 -0.01760836 -0.01740932 -0.01774416 1000 -0.01642245 -0.01721661 -0.01760836 -0.01740932 -0.01774416 1000
lala 10 0.6 0 second 8 1 205 5 3.9 0.39999794960022 1 0 -1 0 -0.01755612 -0.01744529 -0.01745603 -0.0182522 -0.01924097 1000 -0.01755612 -0.01744529 -0.01745603 -0.0182522 -0.01924097 1000 -0.01655619 -0.0181456 -0.01744973 -0.01666097 -0.01738132 1000 -0.01655619 -0.0181456 -0.01744973 -0.01666097 -0.01738132 1000
lala 14 0.15 0 first 17 1 206 6 4.830001 0.479997873306274 0 1 -1 0 -0.01587735 -0.01519047 -0.01435667 1000 1000 1000 -0.01587735 -0.01519047 -0.01435667 1000 1000 1000 -0.01849804 -0.01889979 -0.01964239 -0.0193425 -0.01902987 1000 -0.01849804 -0.01889979 -0.01964239 -0.0193425 -0.01902987 1000
lala 17 0.01875 1 first 13 1 207 4 3.895 0.319998025894165 0 1 1 1 -0.003925226 -0.001371822 -0.0001545156 1000 1000 1000 -0.003925226 -0.001371822 -0.0001545156 1000 1000 1000 -0.006585802 -0.00883197 -0.00901526 -0.009144402 -0.009600655 1000 -0.006585802 -0.00883197 -0.00901526 -0.009144402 -0.009600655 1000
lala 8 1.2 1 second 10 1 208 6 5.16 0.359997987747192 1 0 1 1 -0.008837271 -0.007440928 -0.007994407 -0.008925371 -0.009019362 1000 -0.008837271 -0.007440928 -0.007994407 -0.008925371 -0.009019362 1000 -0.0129513 -0.0125513 -0.01385935 -0.01498371 -0.01556165 1000 -0.0129513 -0.0125513 -0.01385935 -0.01498371 -0.01556165 1000
lala 11 0.6 1 first 3 1 209 5 4.85 1.29999709129334 -1 1 1 0 -0.01191738 -0.0117144 -0.0120407 1000 1000 1000 -0.01191738 -0.0117144 -0.0120407 1000 1000 1000 -0.01366767 -0.0143175 -0.01469967 -0.01525709 -0.01613752 1000 -0.01366767 -0.0143175 -0.01469967 -0.01525709 -0.01613752 1000
lala 11 0.6 0 first 8 1 210 5 4.5 1.65999698638916 1 0 -1 1 -0.01718424 -0.01688737 -0.01651163 1000 1000 1000 -0.01718424 -0.01688737 -0.01651163 1000 1000 1000 -0.02301272 -0.02246763 -0.02228804 -0.02281268 -0.02275365 1000 -0.02301272 -0.02246763 -0.02228804 -0.02281268 -0.02275365 1000
lala 9 1.2 1 first 15 1 211 5 4.25 0.719997644424438 0 1 1 1 -0.006888497 -0.006935046 -0.007570842 1000 1000 1000 -0.006888497 -0.006935046 -0.007570842 1000 1000 1000 -0.01857025 -0.01823026 -0.01851881 -0.01882376 -0.018473 1000 -0.01857025 -0.01823026 -0.01851881 -0.01882376 -0.018473 1000
lala 15 0.075 1 second 17 1 212 6 4.905001 0.719997644424438 0 1 1 0 -0.01835967 -0.01864685 -0.01896209 -0.01934186 -0.01899783 1000 -0.01835967 -0.01864685 -0.01896209 -0.01934186 -0.01899783 1000 -0.01832218 -0.01818813 -0.01832269 -0.01821196 -0.01885124 1000 -0.01832218 -0.01818813 -0.01832269 -0.01821196 -0.01885124 1000
lala 11 0.6 0 second 7 1 213 4 4.12 0.99999737739563 1 1 -1 0 -0.02068216 -0.02009906 -0.02029379 -0.0198193 -0.01943551 1000 -0.02068216 -0.02009906 -0.02029379 -0.0198193 -0.01943551 1000 -0.01910159 -0.01920649 -0.01881847 -0.01877147 -0.0188291 1000 -0.01910159 -0.01920649 -0.01881847 -0.01877147 -0.0188291 1000
lala 8 1.2 1 second 0 1 214 4 6.24 0.39999794960022 -1 0 1 1 -0.02124574 -0.02186813 -0.0227564 -0.02253354 -0.02248452 1000 -0.02124574 -0.02186813 -0.0227564 -0.02253354 -0.02248452 1000 -0.02372281 -0.02400251 -0.02379843 -0.02357092 -0.02346775 1000 -0.02372281 -0.02400251 -0.02379843 -0.02357092 -0.02346775 1000
lala 18 0.15 1 first 2 1 215 5 4.2 2.35999631881714 -1 0 1 1 -0.02196532 -0.02182911 -0.02233902 1000 1000 1000 -0.02196532 -0.02182911 -0.02233902 1000 1000 1000 -0.02539677 -0.02497781 -0.02349974 -0.02215949 -0.02152276 1000 -0.02539677 -0.02497781 -0.02349974 -0.02215949 -0.02152276 1000
lala 9 1.2 0 first 10 1 216 6 3.96 0.419997930526733 1 0 -1 1 -0.0176427 -0.01757285 -0.01889044 1000 1000 1000 -0.0176427 -0.01757285 -0.01889044 1000 1000 1000 -0.02090445 -0.0211733 -0.02155962 -0.02205564 -0.02210774 1000 -0.02090445 -0.0211733 -0.02155962 -0.02205564 -0.02210774 1000
lala 12 0.3 1 second 7 1 217 4 4.42 0.779997587203979 1 1 1 0 -0.02219286 -0.02201482 -0.02208308 -0.02218032 -0.02188319 1000 -0.02219286 -0.02201482 -0.02208308 -0.02218032 -0.02188319 1000 -0.02161279 -0.02103326 -0.02091521 -0.02118474 -0.02121212 1000 -0.02161279 -0.02103326 -0.02091521 -0.02118474 -0.02121212 1000
lala 13 0.15 0 second 7 1 218 4 4.27 1.5399968624115 1 1 -1 0 -0.02021141 -0.0191208 -0.01715638 -0.01682459 -0.01799685 1000 -0.02021141 -0.0191208 -0.01715638 -0.01682459 -0.01799685 1000 -0.01920263 -0.01919904 -0.01910195 -0.01900419 -0.01873785 1000 -0.01920263 -0.01919904 -0.01910195 -0.01900419 -0.01873785 1000
lala 13 0.15 1 second 11 1 219 6 3.780001 0.879997491836548 1 1 1 1 -0.01335918 -0.01393643 -0.01315927 -0.01354352 -0.01441727 1000 -0.01335918 -0.01393643 -0.01315927 -0.01354352 -0.01441727 1000 -0.01550752 -0.01586619 -0.0156366 -0.01524396 -0.01550143 1000 -0.01550752 -0.01586619 -0.0156366 -0.01524396 -0.01550143 1000
lala 14 0.075 0 first 11 1 220 6 3.705001 0.359997987747192 1 1 -1 1 -0.01625788 -0.01642817 -0.01706465 1000 1000 1000 -0.01625788 -0.01642817 -0.01706465 1000 1000 1000 -0.02063617 -0.02067494 -0.02068832 -0.02077176 -0.02118316 1000 -0.02063617 -0.02067494 -0.02068832 -0.02077176 -0.02118316 1000
lala 18 0.01875 0 first 13 1 221 4 3.87625 0.779997587203979 0 1 -1 1 -0.02003781 -0.02057806 -0.02062936 1000 1000 1000 -0.02003781 -0.02057806 -0.02062936 1000 1000 1000 -0.02157106 -0.02203874 -0.02196964 -0.02208089 -0.0222191 1000 -0.02157106 -0.02203874 -0.02196964 -0.02208089 -0.0222191 1000
lala 13 0.3 0 second 1 1 222 4 4.72 1.0999972820282 -1 1 -1 1 -0.02549501 -0.02554857 -0.02530872 -0.02540307 -0.02567551 1000 -0.02549501 -0.02554857 -0.02530872 -0.02540307 -0.02567551 1000 -0.02477868 -0.02533303 -0.0257451 -0.02548769 -0.02497385 1000 -0.02477868 -0.02533303 -0.0257451 -0.02548769 -0.02497385 1000
lala 13 0.15 0 first 16 1 223 6 4.11 0.61999773979187 0 0 -1 0 -0.01713601 -0.01769865 -0.01671758 1000 1000 1000 -0.01713601 -0.01769865 -0.01671758 1000 1000 1000 -0.01919629 -0.01932803 -0.02001961 -0.02023475 -0.01975663 1000 -0.01919629 -0.01932803 -0.02001961 -0.02023475 -0.01975663 1000
lala 14 0.6 1 second 9 1 224 5 5.15 2.75999593734741 1 1 1 1 -0.02154836 -0.02131508 -0.02121893 -0.02130063 -0.02128852 1000 -0.02154836 -0.02131508 -0.02121893 -0.02130063 -0.02128852 1000 -0.021009 -0.02113665 -0.02132311 -0.02127651 -0.02131697 1000 -0.021009 -0.02113665 -0.02132311 -0.02127651 -0.02131697 1000
lala 19 0.15 0 first 2 1 225 5 4.05 1.01999735832214 -1 0 -1 0 -0.02304964 -0.02244124 -0.02269134 1000 1000 1000 -0.02304964 -0.02244124 -0.02269134 1000 1000 1000 -0.01663456 -0.01601115 -0.01623318 -0.01606795 -0.01589147 1000 -0.01663456 -0.01601115 -0.01623318 -0.01606795 -0.01589147 1000
lala 10 0.6 1 second 10 1 226 6 4.56 0.379997968673706 1 0 1 1 -0.01723246 -0.01800337 -0.01771317 -0.01707623 -0.01762119 1000 -0.01723246 -0.01800337 -0.01771317 -0.01707623 -0.01762119 1000 -0.01776315 -0.0181744 -0.01876384 -0.01875648 -0.01843891 1000 -0.01776315 -0.0181744 -0.01876384 -0.01875648 -0.01843891 1000
lala 9 1.2 0 first 0 1 227 4 5.04 2.03999662399292 -1 0 -1 1 -0.01837672 -0.01858677 -0.01897486 1000 1000 1000 -0.01837672 -0.01858677 -0.01897486 1000 1000 1000 -0.02012824 -0.02010619 -0.0196396 -0.02010341 -0.02069132 1000 -0.02012824 -0.02010619 -0.0196396 -0.02010341 -0.02069132 1000
lala 10 1.2 0 first 15 1 228 5 3.05 0.719997644424438 0 1 -1 1 -0.02118558 -0.02162852 -0.0214164 1000 1000 1000 -0.02118558 -0.02162852 -0.0214164 1000 1000 1000 -0.02457011 -0.02457095 -0.02537387 -0.02528591 -0.02517682 1000 -0.02457011 -0.02457095 -0.02537387 -0.02528591 -0.02517682 1000
lala 11 0.6 1 first 15 1 229 5 3.65 0.699997663497925 0 1 1 0 -0.01834269 -0.01800602 -0.01866768 1000 1000 1000 -0.01834269 -0.01800602 -0.01866768 1000 1000 1000 -0.02122997 -0.02111178 -0.0212715 -0.02107534 -0.02069794 1000 -0.02122997 -0.02111178 -0.0212715 -0.02107534 -0.02069794 1000
lala 12 0.3 1 second 15 1 230 5 3.35 0.479997873306274 0 1 1 1 -0.02169608 -0.0211644 -0.02089461 -0.02132524 -0.02199442 1000 -0.02169608 -0.0211644 -0.02089461 -0.02132524 -0.02199442 1000 -0.02141505 -0.02158866 -0.02166414 -0.02136818 -0.02049599 1000 -0.02141505 -0.02158866 -0.02166414 -0.02136818 -0.02049599 1000
lala 17 0.075 1 second 5 1 231 6 4.380001 0.379997968673706 -1 1 1 1 -0.02257867 -0.02284416 -0.0227392 -0.02294094 -0.02310446 1000 -0.02257867 -0.02284416 -0.0227392 -0.02294094 -0.02310446 1000 -0.02229135 -0.02257857 -0.02329251 -0.02320365 -0.02310076 1000 -0.02229135 -0.02257857 -0.02329251 -0.02320365 -0.02310076 1000
lala 14 0.3 1 second 1 1 232 4 5.02 0.379997968673706 -1 1 1 0 -0.0239707 -0.02434757 -0.02489956 -0.02510242 -0.0246607 1000 -0.0239707 -0.02434757 -0.02489956 -0.02510242 -0.0246607 1000 -0.01965467 -0.0210983 -0.0219564 -0.02179496 -0.02132322 1000 -0.01965467 -0.0210983 -0.0219564 -0.02179496 -0.02132322 1000
lala 12 0.6 1 first 8 1 233 5 5.1 0.459997892379761 1 0 1 0 -0.02480449 -0.02463453 -0.02492925 1000 1000 1000 -0.02480449 -0.02463453 -0.02492925 1000 1000 1000 -0.02311272 -0.02295779 -0.02302964 -0.02240062 -0.02194908 1000 -0.02311272 -0.02295779 -0.02302964 -0.02240062 -0.02194908 1000
lala 20 0.075 0 first 2 1 234 5 4.125 1.31999707221985 -1 0 -1 0 -0.02348748 -0.02342086 -0.02364559 1000 1000 1000 -0.02348748 -0.02342086 -0.02364559 1000 1000 1000 -0.02279978 -0.02292974 -0.02357612 -0.02330004 -0.02305077 1000 -0.02279978 -0.02292974 -0.02357612 -0.02330004 -0.02305077 1000
lala 12 1.2 0 first 14 1 235 5 3.3 1.65999698638916 0 0 -1 1 -0.02515553 -0.02583619 -0.02523467 1000 1000 1000 -0.02515553 -0.02583619 -0.02523467 1000 1000 1000 -0.01843442 -0.01837073 -0.01859156 -0.01888306 -0.01863419 1000 -0.01843442 -0.01837073 -0.01859156 -0.01888306 -0.01863419 1000
lala 9 1.2 1 first 12 1 236 4 5.04 0.319998025894165 0 0 1 1 -0.01936638 -0.0183058 -0.01786226 1000 1000 1000 -0.01936638 -0.0183058 -0.01786226 1000 1000 1000 -0.01917757 -0.01998192 -0.02124169 -0.02207884 -0.02207834 1000 -0.01917757 -0.01998192 -0.02124169 -0.02207884 -0.02207834 1000
lala 15 0.15 1 second 1 1 237 4 4.87 0.539997816085815 -1 1 1 1 -0.02154754 -0.0218345 -0.02201369 -0.02302865 -0.02328739 1000 -0.02154754 -0.0218345 -0.02201369 -0.02302865 -0.02328739 1000 -0.02292746 -0.02314995 -0.02333973 -0.02331012 -0.02262656 1000 -0.02292746 -0.02314995 -0.02333973 -0.02331012 -0.02262656 1000
lala 13 0.3 0 first 15 1 238 5 3.05 0.379997968673706 0 1 -1 1 -0.02102537 -0.02114216 -0.02206234 1000 1000 1000 -0.02102537 -0.02114216 -0.02206234 1000 1000 1000 -0.02349741 -0.02336319 -0.02328779 -0.02342596 -0.02346609 1000 -0.02349741 -0.02336319 -0.02328779 -0.02342596 -0.02346609 1000
lala 13 1.2 1 first 14 1 239 5 4.5 0.299998044967651 0 0 1 0 -0.02334767 -0.02394257 -0.0239632 1000 1000 1000 -0.02334767 -0.02394257 -0.0239632 1000 1000 1000 -0.0219015 -0.01937091 -0.01792178 -0.01834202 -0.01885106 1000 -0.0219015 -0.01937091 -0.01792178 -0.01834202 -0.01885106 1000
lala 12 0.6 0 first 3 1 240 5 4.25 1.25999712944031 -1 1 -1 1 -0.02123302 -0.02127795 -0.02221756 1000 1000 1000 -0.02123302 -0.02127795 -0.02221756 1000 1000 1000 -0.02223737 -0.02215525 -0.02131587 -0.02109612 -0.02167899 1000 -0.02223737 -0.02215525 -0.02131587 -0.02109612 -0.02167899 1000
lala 15 0.0375 1 second 11 1 241 6 3.742501 1.25999712944031 1 1 1 1 -0.02247941 -0.02306114 -0.02364701 -0.02341808 -0.02319508 1000 -0.02247941 -0.02306114 -0.02364701 -0.02341808 -0.02319508 1000 -0.02458124 -0.02489149 -0.02435466 -0.02449042 -0.02420331 1000 -0.02458124 -0.02489149 -0.02435466 -0.02449042 -0.02420331 1000
lala 10 0.6 1 second 0 1 242 4 5.64 0.339998006820679 -1 0 1 0 -0.02393021 -0.02490225 -0.02541303 -0.02554748 -0.02565485 1000 -0.02393021 -0.02490225 -0.02541303 -0.02554748 -0.02565485 1000 -0.01778655 -0.01697002 -0.01535461 -0.0147804 -0.0147841 1000 -0.01778655 -0.01697002 -0.01535461 -0.0147804 -0.0147841 1000
lala 14 0.15 1 first 16 1 243 6 4.26 1.15999722480774 0 0 1 0 -0.008458795 -0.009263715 -0.009587175 1000 1000 1000 -0.008458795 -0.009263715 -0.009587175 1000 1000 1000 0.005184707 0.003983012 0.003580627 0.003378247 0.003484645 1000 0.005184707 0.003983012 0.003580627 0.003378247 0.003484645 1000
lala 18 0.0375 0 first 5 1 244 6 4.342501 0.879997491836548 -1 1 -1 1 0.004669426 0.005311521 0.005490552 1000 1000 1000 0.004669426 0.005311521 0.005490552 1000 1000 1000 0.001469153 0.002041532 0.001673017 0.00153533 0.001483037 1000 0.001469153 0.002041532 0.001673017 0.00153533 0.001483037 1000
lala 13 0.3 0 first 8 1 245 5 4.8 1.87999677658081 1 0 -1 1 0.00140724 0.001884266 0.003123104 1000 1000 1000 0.00140724 0.001884266 0.003123104 1000 1000 1000 -0.002113663 -0.002938763 -0.003855077 -0.003933088 -0.003799233 1000 -0.002113663 -0.002938763 -0.003855077 -0.003933088 -0.003799233 1000
lala 16 0.15 0 first 1 1 246 4 4.72 0.39999794960022 -1 1 -1 0 -0.003036401 -0.003250104 -0.003003922 1000 1000 1000 -0.003036401 -0.003250104 -0.003003922 1000 1000 1000 -0.003916389 -0.004479869 -0.004820002 -0.004490592 -0.004703368 1000 -0.003916389 -0.004479869 -0.004820002 -0.004490592 -0.004703368 1000
lala 19 0.009375 1 second 13 1 247 4 3.885625 0.259998083114624 0 1 1 1 -0.004669862 -0.004530929 -0.004426496 -0.004570164 -0.004467831 1000 -0.004669862 -0.004530929 -0.004426496 -0.004570164 -0.004467831 1000 -0.004634244 -0.004496184 -0.004313772 -0.004182918 -0.004290236 1000 -0.004634244 -0.004496184 -0.004313772 -0.004182918 -0.004290236 1000
lala 15 0.3 1 second 9 1 248 5 4.85 0.659997701644897 1 1 1 1 -0.00442552 -0.004434297 -0.004610202 -0.004718045 -0.004891572 1000 -0.00442552 -0.004434297 -0.004610202 -0.004718045 -0.004891572 1000 -0.004735055 -0.004763848 -0.005061393 -0.005479299 -0.005599323 1000 -0.004735055 -0.004763848 -0.005061393 -0.005479299 -0.005599323 1000
lala 16 0.01875 0 first 11 1 249 6 3.723751 0.299998044967651 1 1 -1 0 -0.004179462 -0.0042984 -0.004248901 1000 1000 1000 -0.004179462 -0.0042984 -0.004248901 1000 1000 1000 -0.005595982 -0.006102378 -0.005993125 -0.005917525 -0.006004158 1000 -0.005595982 -0.006102378 -0.005993125 -0.005917525 -0.006004158 1000
lala 17 0.009375 0 second 11 1 250 6 3.733126 0.459997892379761 1 1 -1 1 -0.01220514 -0.01236806 -0.01339464 -0.01378426 -0.01321337 1000 -0.01220514 -0.01236806 -0.01339464 -0.01378426 -0.01321337 1000 -0.01503507 -0.0155555 -0.01612199 -0.0174168 -0.01733756 1000 -0.01503507 -0.0155555 -0.01612199 -0.0174168 -0.01733756 1000
lala 9 1.2 0 first 6 1 251 4 5.04 0.519997835159302 1 0 -1 1 -0.01704236 -0.01668047 -0.0173444 1000 1000 1000 -0.01704236 -0.01668047 -0.0173444 1000 1000 1000 -0.01830722 -0.01770252 -0.01775853 -0.0180574 -0.01791325 1000 -0.01830722 -0.01770252 -0.01775853 -0.0180574 -0.01791325 1000
lala 16 0.075 1 second 4 1 252 6 5.235 0.259998083114624 -1 0 1 1 -0.01972341 -0.02030672 -0.02030735 -0.01997215 -0.02044118 1000 -0.01972341 -0.02030672 -0.02030735 -0.01997215 -0.02044118 1000 -0.02013908 -0.02009837 -0.02065245 -0.02081663 -0.02098917 1000 -0.02013908 -0.02009837 -0.02065245 -0.02081663 -0.02098917 1000
lala 15 0.075 0 second 16 1 253 6 4.185 0.319998025894165 0 0 -1 0 -0.02136527 -0.02135985 -0.02190038 -0.02240171 -0.02226817 1000 -0.02136527 -0.02135985 -0.02190038 -0.02240171 -0.02226817 1000 -0.02328528 -0.02362982 -0.02377322 -0.02413838 -0.02449365 1000 -0.02328528 -0.02362982 -0.02377322 -0.02413838 -0.02449365 1000
lala 10 1.2 1 second 6 1 254 4 6.24 0.339998006820679 1 0 1 1 -0.02307426 -0.02343112 -0.02336718 -0.02317811 -0.02364245 1000 -0.02307426 -0.02343112 -0.02336718 -0.02317811 -0.02364245 1000 -0.02218308 -0.02173449 -0.02040249 -0.01932944 -0.01905865 1000 -0.02218308 -0.02173449 -0.02040249 -0.01932944 -0.01905865 1000
lala 16 0.0375 0 first 16 1 255 6 4.2225 0.359997987747192 0 0 -1 0 -0.01948251 -0.01935511 -0.01908955 1000 1000 1000 -0.01948251 -0.01935511 -0.01908955 1000 1000 1000 -0.02487005 -0.0256102 -0.02064002 -0.01687413 -0.01416045 1000 -0.02487005 -0.0256102 -0.02064002 -0.01687413 -0.01416045 1000
lala 17 0.0375 1 first 16 1 256 6 4.26 1.75999689102173 0 0 1 1 -0.00439054 -0.006220139 -0.009164884 1000 1000 1000 -0.00439054 -0.006220139 -0.009164884 1000 1000 1000 -0.01408804 -0.01803283 -0.01743534 -0.01638631 -0.01442092 1000 -0.01408804 -0.01803283 -0.01743534 -0.01638631 -0.01442092 1000
lala 11 0.3 0 first 10 1 257 6 4.26 0.419997930526733 1 0 -1 1 0.007132256 0.005449749 0.002911691 1000 1000 1000 0.007132256 0.005449749 0.002911691 1000 1000 1000 0.004021501 -0.0005240433 -0.005498989 -0.006611665 -0.004037692 1000 0.004021501 -0.0005240433 -0.005498989 -0.006611665 -0.004037692 1000
lala 16 0.0375 1 second 17 1 258 6 4.867501 0.979997396469116 0 1 1 0 0.0001124941 0.001057072 0.002033046 0.002554749 0.003180547 1000 0.0001124941 0.001057072 0.002033046 0.002554749 0.003180547 1000 0.008861422 0.006696687 0.004894068 0.004436723 0.004128658 1000 0.008861422 0.006696687 0.004894068 0.004436723 0.004128658 1000
lala 18 0.009375 0 first 11 1 259 6 3.742501 0.23999810218811 1 1 -1 1 -0.0007210031 -0.001863991 -0.001771047 1000 1000 1000 -0.0007210031 -0.001863991 -0.001771047 1000 1000 1000 0.0001553945 -0.0003388566 -0.003492504 -0.005076448 -0.006396457 1000 0.0001553945 -0.0003388566 -0.003492504 -0.005076448 -0.006396457 1000
lala 13 0.3 1 second 3 1 260 5 4.55 0.299998044967651 -1 1 1 1 -0.01928369 -0.02059772 -0.02053029 -0.02048047 -0.02076047 1000 -0.01928369 -0.02059772 -0.02053029 -0.02048047 -0.02076047 1000 -0.02049562 -0.01962683 -0.01956411 -0.01997201 -0.02086783 1000 -0.02049562 -0.01962683 -0.01956411 -0.01997201 -0.02086783 1000
lala 14 0.15 1 second 3 1 261 5 4.4 1.99999666213989 -1 1 1 0 0.0374111 0.03696846 0.036443 0.03164611 0.0261838 1000 0.0374111 0.03696846 0.036443 0.03164611 0.0261838 1000 0.006674574 0.01041884 0.01401769 0.01580824 0.01905048 1000 0.006674574 0.01041884 0.01401769 0.01580824 0.01905048 1000
lala 10 0.6 1 first 12 1 262 4 4.44 0.319998025894165 0 0 1 1 -0.01524768 -0.01662909 -0.01699774 1000 1000 1000 -0.01524768 -0.01662909 -0.01699774 1000 1000 1000 -0.01461702 -0.01500608 -0.01491382 -0.01494397 -0.01565384 1000 -0.01461702 -0.01500608 -0.01491382 -0.01494397 -0.01565384 1000
lala 20 0.0046875 1 second 13 1 263 4 3.880938 0.579997777938843 0 1 1 0 -0.02219134 -0.02293162 -0.02246565 -0.02173422 -0.02189824 1000 -0.02219134 -0.02293162 -0.02246565 -0.02173422 -0.02189824 1000 -0.02190344 -0.02181698 -0.02181619 -0.02122704 -0.02081965 1000 -0.02190344 -0.02181698 -0.02181619 -0.02122704 -0.02081965 1000
lala 19 0.01875 0 second 5 1 264 6 4.361251 0.359997987747192 -1 1 -1 0 -0.02340392 -0.02300822 -0.02319244 -0.02309478 -0.02312659 1000 -0.02340392 -0.02300822 -0.02319244 -0.02309478 -0.02312659 1000 -0.02508993 -0.02504368 -0.02483994 -0.02469299 -0.02476852 1000 -0.02508993 -0.02504368 -0.02483994 -0.02469299 -0.02476852 1000
lala 21 0.075 0 first 2 1 265 5 4.199999 0.359997987747192 -1 0 -1 1 -0.02402164 -0.023512 -0.0228069 1000 1000 1000 -0.02402164 -0.023512 -0.0228069 1000 1000 1000 -0.01448933 -0.01357521 -0.01381775 -0.01460673 -0.01437969 1000 -0.01448933 -0.01357521 -0.01381775 -0.01460673 -0.01437969 1000
lala 11 0.3 1 first 0 1 266 4 5.34 0.319998025894165 -1 0 1 1 -0.0165066 -0.01667961 -0.01687448 1000 1000 1000 -0.0165066 -0.01667961 -0.01687448 1000 1000 1000 -0.01956038 -0.01977275 -0.02018678 -0.01995105 -0.01961299 1000 -0.01956038 -0.01977275 -0.02018678 -0.01995105 -0.01961299 1000
lala 17 0.0375 0 first 17 1 267 6 4.830001 1.11999726295471 0 1 -1 0 -0.01855794 -0.01805472 -0.01784395 1000 1000 1000 -0.01855794 -0.01805472 -0.01784395 1000 1000 1000 -0.006022569 -0.002624266 -0.002590589 -0.002422709 -0.003883524 1000 -0.006022569 -0.002624266 -0.002590589 -0.002422709 -0.003883524 1000
lala 22 0.075 1 first 2 1 268 5 4.274999 0.639997720718384 -1 0 1 1 -0.01409167 -0.01551941 -0.01484589 1000 1000 1000 -0.01409167 -0.01551941 -0.01484589 1000 1000 1000 -0.007268497 -0.009083234 -0.01011664 -0.0106542 -0.01118074 1000 -0.007268497 -0.009083234 -0.01011664 -0.0106542 -0.01118074 1000
lala 12 0.3 1 second 0 1 269 4 5.039999 0.439997911453247 -1 0 1 1 -0.01294968 -0.01281554 -0.01326657 -0.01344642 -0.01369034 1000 -0.01294968 -0.01281554 -0.01326657 -0.01344642 -0.01369034 1000 -0.01331337 -0.01176131 -0.01111449 -0.01181377 -0.01178878 1000 -0.01331337 -0.01176131 -0.01111449 -0.01181377 -0.01178878 1000
lala 19 0.009375 0 second 11 1 270 6 3.751877 0.439997911453247 1 1 -1 1 -0.01403885 -0.01405683 -0.01380871 -0.0139408 -0.01382386 1000 -0.01403885 -0.01405683 -0.01380871 -0.0139408 -0.01382386 1000 -0.01444992 -0.01458809 -0.01494927 -0.01540216 -0.01639821 1000 -0.01444992 -0.01458809 -0.01494927 -0.01540216 -0.01639821 1000
lala 16 0.3 1 first 9 1 271 5 4.55 0.359997987747192 1 1 1 0 -0.01695724 -0.01716879 -0.01756235 1000 1000 1000 -0.01695724 -0.01716879 -0.01756235 1000 1000 1000 -0.02035145 -0.01924392 -0.0182589 -0.01758335 -0.01727954 1000 -0.02035145 -0.01924392 -0.0182589 -0.01758335 -0.01727954 1000
lala 11 0.6 1 first 6 1 272 4 5.64 0.459997892379761 1 0 1 0 -0.01905581 -0.0192934 -0.01901354 1000 1000 1000 -0.01905581 -0.0192934 -0.01901354 1000 1000 1000 -0.02145089 -0.02138741 -0.02116694 -0.02101014 -0.02098254 1000 -0.02145089 -0.02138741 -0.02116694 -0.02101014 -0.02098254 1000
lala 23 0.0375 1 first 2 1 273 5 4.237499 0.99999737739563 -1 0 1 1 -0.02207509 -0.02180047 -0.02152052 1000 1000 1000 -0.02207509 -0.02180047 -0.02152052 1000 1000 1000 -0.0239822 -0.02437854 -0.02492491 -0.0244897 -0.02440627 1000 -0.0239822 -0.02437854 -0.02492491 -0.0244897 -0.02440627 1000
lala 15 0.15 0 second 3 1 274 5 4.25 0.599997758865356 -1 1 -1 1 -0.02053221 -0.01544649 -0.009651979 -0.007833458 -0.003273732 1000 -0.02053221 -0.01544649 -0.009651979 -0.007833458 -0.003273732 1000 0.005040426 0.003872353 0.003731809 0.004386505 0.00508454 1000 0.005040426 0.003872353 0.003731809 0.004386505 0.00508454 1000
lala 18 0.01875 0 first 16 1 275 6 4.24125 0.519997835159302 0 0 -1 1 0.005725215 0.005376488 0.005796179 1000 1000 1000 0.005725215 0.005376488 0.005796179 1000 1000 1000 0.002077236 0.001125933 0.0002923734 0.0002960628 0.0002064869 1000 0.002077236 0.001125933 0.0002923734 0.0002960628 0.0002064869 1000
lala 24 0.0375 1 second 2 1 276 5 4.199999 2.57999610900879 -1 0 1 0 -0.005442209 -0.007159978 -0.006001427 -0.00480413 -0.003812968 1000 -0.005442209 -0.007159978 -0.006001427 -0.00480413 -0.003812968 1000 -0.001967077 -0.002631935 -0.00318407 -0.002758293 -0.0029033 1000 -0.001967077 -0.002631935 -0.00318407 -0.002758293 -0.0029033 1000
lala 12 0.15 0 first 10 1 277 6 4.41 2.65999603271484 1 0 -1 0 -0.006160443 -0.005792518 -0.005771742 1000 1000 1000 -0.006160443 -0.005792518 -0.005771742 1000 1000 1000 -0.003749927 -0.004174582 -0.004530217 -0.004598614 -0.004074695 1000 -0.003749927 -0.004174582 -0.004530217 -0.004598614 -0.004074695 1000
lala 20 0.01875 0 first 11 1 278 6 3.770627 0.23999810218811 1 1 -1 0 0.00188138 0.001637673 0.001879448 1000 1000 1000 0.00188138 0.001637673 0.001879448 1000 1000 1000 0.001773835 0.001881969 0.001702365 0.001288484 0.0009182206 1000 0.001773835 0.001881969 0.001702365 0.001288484 0.0009182206 1000
lala 19 0.009375 0 first 16 1 279 6 4.250625 0.339998006820679 0 0 -1 1 -1.007853E-05 7.470861E-05 -0.0001820363 1000 1000 1000 -1.007853E-05 7.470861E-05 -0.0001820363 1000 1000 1000 -0.002161043 -0.002630377 -0.002976259 -0.00351775 -0.003177219 1000 -0.002161043 -0.002630377 -0.002976259 -0.00351775 -0.003177219 1000
lala 14 0.6 0 first 14 1 280 5 3.9 0.379997968673706 0 0 -1 0 -0.004194042 -0.004225816 -0.004427481 1000 1000 1000 -0.004194042 -0.004225816 -0.004427481 1000 1000 1000 -0.001918186 -0.001750837 -0.003018132 -0.003911637 -0.004378352 1000 -0.001918186 -0.001750837 -0.003018132 -0.003911637 -0.004378352 1000
lala 21 0.0046875 1 second 13 1 281 4 3.87625 0.39999794960022 0 1 1 0 -0.004119031 -0.004017522 -0.004070098 -0.004644623 -0.00463559 1000 -0.004119031 -0.004017522 -0.004070098 -0.004644623 -0.00463559 1000 -0.005400209 -0.005164945 -0.005890361 -0.006909128 -0.008386688 1000 -0.005400209 -0.005164945 -0.005890361 -0.006909128 -0.008386688 1000
lala 21 0.0375 0 first 11 1 282 6 3.808126 0.479997873306274 1 1 -1 0 -0.009957812 -0.01003793 -0.007300856 1000 1000 1000 -0.009957812 -0.01003793 -0.007300856 1000 1000 1000 0.004277227 0.004261746 0.004455328 0.004372798 0.003397814 1000 0.004277227 0.004261746 0.004455328 0.004372798 0.003397814 1000
lala 25 0.0375 1 first 2 1 283 5 4.162499 0.699997663497925 -1 0 1 0 0.0004331068 0.0003301504 0.0004586647 1000 1000 1000 0.0004331068 0.0003301504 0.0004586647 1000 1000 1000 -0.001743199 -0.001778906 -0.001937767 -0.002603259 -0.002455219 1000 -0.001743199 -0.001778906 -0.001937767 -0.002603259 -0.002455219 1000
lala 14 0.075 1 first 7 1 284 4 4.345 1.19999718666077 1 1 1 1 -0.004411582 -0.004532916 -0.004442695 1000 1000 1000 -0.004411582 -0.004532916 -0.004442695 1000 1000 1000 -0.005602854 -0.005819032 -0.006050509 -0.006625442 -0.007752306 1000 -0.005602854 -0.005819032 -0.006050509 -0.006625442 -0.007752306 1000
lala 17 0.3 1 second 9 1 285 5 4.25 1.27999711036682 1 1 1 1 -0.00842258 -0.008688045 -0.009004661 -0.008890574 -0.009242316 1000 -0.00842258 -0.008688045 -0.009004661 -0.008890574 -0.009242316 1000 -0.009295226 -0.008187642 -0.007804809 -0.007760605 -0.007917289 1000 -0.009295226 -0.008187642 -0.007804809 -0.007760605 -0.007917289 1000
lala 18 0.01875 0 first 17 1 286 6 4.848751 0.539997816085815 0 1 -1 1 -0.009729275 -0.009728422 -0.01018105 1000 1000 1000 -0.009729275 -0.009728422 -0.01018105 1000 1000 1000 0.0007296068 -0.0003068061 0.002445014 0.005735221 0.003947147 1000 0.0007296068 -0.0003068061 0.002445014 0.005735221 0.003947147 1000
lala 12 0.6 1 first 6 1 287 4 5.04 1.21999716758728 1 0 1 1 -0.002645272 -0.003472264 -0.004094983 1000 1000 1000 -0.002645272 -0.003472264 -0.004094983 1000 1000 1000 -0.007007342 -0.006956385 -0.006838629 -0.007377486 -0.007973169 1000 -0.007007342 -0.006956385 -0.006838629 -0.007377486 -0.007973169 1000
lala 13 0.3 0 first 0 1 288 4 4.739999 0.739997625350952 -1 0 -1 0 -0.01300503 -0.01282096 -0.01166324 1000 1000 1000 -0.01300503 -0.01282096 -0.01166324 1000 1000 1000 -0.01748563 -0.0157729 -0.01380148 -0.01409167 -0.01374017 1000 -0.01748563 -0.0157729 -0.01380148 -0.01409167 -0.01374017 1000
lala 22 0.075 0 second 11 1 289 6 3.883126 0.479997873306274 1 1 -1 0 -0.01735925 -0.01790717 -0.01748173 -0.01758618 -0.01765543 1000 -0.01735925 -0.01790717 -0.01748173 -0.01758618 -0.01765543 1000 -0.01810483 -0.0181275 -0.01757629 -0.01745627 -0.01726831 1000 -0.01810483 -0.0181275 -0.01757629 -0.01745627 -0.01726831 1000
lala 17 0.075 1 second 4 1 290 6 5.16 0.459997892379761 -1 0 1 0 -0.01683713 -0.01799904 -0.01748922 -0.01665732 -0.01611418 1000 -0.01683713 -0.01799904 -0.01748922 -0.01665732 -0.01611418 1000 -0.01496457 -0.01617303 -0.01723569 -0.01864127 -0.01537806 1000 -0.01496457 -0.01617303 -0.01723569 -0.01864127 -0.01537806 1000
lala 20 0.01875 0 second 5 1 291 6 4.380001 0.599997758865356 -1 1 -1 1 0.004577693 0.0007893539 -0.002299171 -0.004187221 -0.007949146 1000 0.004577693 0.0007893539 -0.002299171 -0.004187221 -0.007949146 1000 -0.007771259 -0.007196661 -0.008115153 -0.008770428 -0.009160196 1000 -0.007771259 -0.007196661 -0.008115153 -0.008770428 -0.009160196 1000
lala 13 0.15 1 second 10 1 292 6 4.56 0.419997930526733 1 0 1 1 -0.0035676 -0.004602161 -0.005239456 -0.005993893 -0.006653403 1000 -0.0035676 -0.004602161 -0.005239456 -0.005993893 -0.006653403 1000 -0.0003337684 -0.000903392 -0.001339583 -0.001876173 -0.002303848 1000 -0.0003337684 -0.000903392 -0.001339583 -0.001876173 -0.002303848 1000
lala 20 0.009375 0 first 16 1 293 6 4.26 0.339998006820679 0 0 -1 1 -0.006915733 -0.006939593 -0.007723963 1000 1000 1000 -0.006915733 -0.006939593 -0.007723963 1000 1000 1000 -0.01226282 -0.01215533 -0.0127557 -0.01262605 -0.0127504 1000 -0.01226282 -0.01215533 -0.0127557 -0.01262605 -0.0127504 1000
lala 21 0.009375 0 second 16 1 294 6 4.269375 0.879997491836548 0 0 -1 0 -0.003680843 -0.003073242 -0.003030376 -0.004222058 -0.00472099 1000 -0.003680843 -0.003073242 -0.003030376 -0.004222058 -0.00472099 1000 -0.005394637 -0.005827438 -0.006176366 -0.006687623 -0.006224024 1000 -0.005394637 -0.005827438 -0.006176366 -0.006687623 -0.006224024 1000
lala 19 0.01875 1 first 17 1 295 6 4.867501 0.0399982929229736 0 1 1 1 -0.008440948 -0.008013002 -0.005659167 1000 1000 1000 -0.008440948 -0.008013002 -0.005659167 1000 1000 1000 -0.01117474 -0.01166249 -0.01112825 -0.01140318 -0.01125671 1000 -0.01117474 -0.01166249 -0.01112825 -0.01140318 -0.01125671 1000
lala 22 0.01875 1 second 16 1 296 6 4.288125 0.499997854232788 0 0 1 1 -0.01040813 -0.01123089 -0.0110412 -0.01071727 -0.0107993 1000 -0.01040813 -0.01123089 -0.0110412 -0.01071727 -0.0107993 1000 -0.01227582 -0.01313843 -0.01386249 -0.01346532 -0.01346757 1000 -0.01227582 -0.01313843 -0.01386249 -0.01346532 -0.01346757 1000
lala 18 0.075 0 first 4 1 297 6 5.085 0.439997911453247 -1 0 -1 0 -0.01596958 -0.01607076 -0.01538783 1000 1000 1000 -0.01596958 -0.01607076 -0.01538783 1000 1000 1000 -0.01644146 -0.0169539 -0.01767748 -0.01839984 -0.01905625 1000 -0.01644146 -0.0169539 -0.01767748 -0.01839984 -0.01905625 1000
lala 23 0.009375 1 first 16 1 298 6 4.27875 0.519997835159302 0 0 1 1 -0.01824976 -0.01752577 -0.01701012 1000 1000 1000 -0.01824976 -0.01752577 -0.01701012 1000 1000 1000 -0.02232852 -0.02236169 -0.02302022 -0.02333864 -0.02304442 1000 -0.02232852 -0.02236169 -0.02302022 -0.02333864 -0.02304442 1000
lala 22 0.0046875 1 first 13 1 299 4 3.871562 0.939997434616089 0 1 1 0 -0.01874143 -0.0189972 -0.01942835 1000 1000 1000 -0.01874143 -0.0189972 -0.01942835 1000 1000 1000 -0.02073496 -0.02069179 -0.02067633 -0.02061727 -0.02089577 1000 -0.02073496 -0.02069179 -0.02067633 -0.02061727 -0.02089577 1000
lala 16 0.075 0 first 3 1 300 5 4.325 0.499997854232788 -1 1 -1 0 0.001289032 -0.01793382 -0.01843982 -0.01203109 -0.005695037 -0.006667449 0.001289032 -0.01793382 -0.01843982 -0.01203109 -0.005695037 -0.006667449 -0.004660808 -0.007235673 -0.01045859 -0.01412787 -0.01841148 1000 -0.004660808 -0.007235673 -0.01045859 -0.01412787 -0.01841148 1000
lala 18 0.6 1 second 9 1 301 5 3.65 1.33999705314636 1 1 1 1 -0.002291212 -0.002574797 -0.003702456 -0.004503352 -0.004876637 1000 -0.002291212 -0.002574797 -0.003702456 -0.004503352 -0.004876637 1000 0.008463548 0.009448781 0.01039628 0.01268327 0.0128814 1000 0.008463548 0.009448781 0.01039628 0.01268327 0.0128814 1000
lala 14 0.15 1 second 8 1 302 5 4.95 0.299998044967651 1 0 1 0 0.01433534 0.01471329 0.01508625 0.01479477 0.01472634 1000 0.01433534 0.01471329 0.01508625 0.01479477 0.01472634 1000 0.01854965 0.0119467 0.006817298 0.001336473 0.001766218 1000 0.01854965 0.0119467 0.006817298 0.001336473 0.001766218 1000
lala 15 0.3 0 first 14 1 303 5 4.2 0.259998083114624 0 0 -1 1 0.00121984 -0.001199254 -0.002467285 1000 1000 1000 0.00121984 -0.001199254 -0.002467285 1000 1000 1000 -0.003380721 -0.003785137 -0.004001144 -0.004205253 -0.00492647 1000 -0.003380721 -0.003785137 -0.004001144 -0.004205253 -0.00492647 1000
lala 14 0.15 1 first 0 1 304 4 4.889999 0.359997987747192 -1 0 1 1 -0.00746457 -0.007349306 -0.007624066 1000 1000 1000 -0.00746457 -0.007349306 -0.007624066 1000 1000 1000 -0.006109295 -0.005731621 -0.005525176 -0.00637032 -0.008145557 1000 -0.006109295 -0.005731621 -0.005525176 -0.00637032 -0.008145557 1000
lala 14 0.075 1 second 10 1 305 6 4.485 0.899997472763062 1 0 1 1 -0.014562 -0.01469278 -0.01469166 -0.01488772 -0.01544619 1000 -0.014562 -0.01469278 -0.01469166 -0.01488772 -0.01544619 1000 -0.01693296 -0.01659513 -0.01624525 -0.0162079 -0.01612414 1000 -0.01693296 -0.01659513 -0.01624525 -0.0162079 -0.01612414 1000
lala 17 0.075 0 second 3 1 306 5 4.4 0.779997587203979 -1 1 -1 1 -0.0200736 -0.02006918 -0.01995581 -0.01924573 -0.01923518 1000 -0.0200736 -0.02006918 -0.01995581 -0.01924573 -0.01923518 1000 -0.02095661 -0.02108733 -0.02119003 -0.02103564 -0.02100682 1000 -0.02095661 -0.02108733 -0.02119003 -0.02103564 -0.02100682 1000
lala 20 0.009375 1 first 17 1 307 6 4.858126 0.579997777938843 0 1 1 0 -0.02065004 -0.02063338 -0.02133291 1000 1000 1000 -0.02065004 -0.02063338 -0.02133291 1000 1000 1000 -0.01512299 -0.01354618 -0.01177341 -0.01073567 -0.01061449 1000 -0.01512299 -0.01354618 -0.01177341 -0.01073567 -0.01061449 1000
lala 13 0.6 1 second 6 1 308 4 4.44 0.379997968673706 1 0 1 1 -0.02167622 -0.02191742 -0.02218228 -0.02206491 -0.02211075 1000 -0.02167622 -0.02191742 -0.02218228 -0.02206491 -0.02211075 1000 -0.02992982 -0.0301445 -0.0290236 -0.02637026 -0.02261214 1000 -0.02992982 -0.0301445 -0.0290236 -0.02637026 -0.02261214 1000
lala 11 0.6 0 second 12 1 309 4 3.84 0.419997930526733 0 0 -1 1 -0.01320959 -0.01372077 -0.01451593 -0.01483497 -0.01437323 1000 -0.01320959 -0.01372077 -0.01451593 -0.01483497 -0.01437323 1000 -0.01416792 -0.0128645 -0.01173033 -0.01187505 -0.01144561 1000 -0.01416792 -0.0128645 -0.01173033 -0.01187505 -0.01144561 1000
lala 14 0.15 0 first 15 1 310 5 3.2 0.299998044967651 0 1 -1 0 -0.01086917 -0.01125238 -0.01176879 1000 1000 1000 -0.01086917 -0.01125238 -0.01176879 1000 1000 1000 -0.01478529 -0.01404183 -0.01199436 -0.01133251 -0.01145044 1000 -0.01478529 -0.01404183 -0.01199436 -0.01133251 -0.01145044 1000
lala 15 0.075 0 first 10 1 311 6 4.41 0.819997549057007 1 0 -1 0 -0.01846431 -0.01789257 -0.01754518 1000 1000 1000 -0.01846431 -0.01789257 -0.01754518 1000 1000 1000 -0.01762778 -0.01753788 -0.01784537 -0.018329 -0.01907932 1000 -0.01762778 -0.01753788 -0.01784537 -0.018329 -0.01907932 1000
lala 18 0.075 1 second 3 1 312 5 4.474999 0.39999794960022 -1 1 1 1 -0.02087112 -0.020987 -0.01941843 -0.01815828 -0.01640021 1000 -0.02087112 -0.020987 -0.01941843 -0.01815828 -0.01640021 1000 -0.01554745 -0.01592157 -0.01629541 -0.01665423 -0.01705782 1000 -0.01554745 -0.01592157 -0.01629541 -0.01665423 -0.01705782 1000
lala 26 0.075 0 first 2 1 313 5 4.0875 0.319998025894165 -1 0 -1 0 -0.01664893 -0.01656077 -0.01664898 1000 1000 1000 -0.01664893 -0.01656077 -0.01664898 1000 1000 1000 -0.0208744 -0.02051563 -0.01977968 -0.01931008 -0.01920298 1000 -0.0208744 -0.02051563 -0.01977968 -0.01931008 -0.01920298 1000
lala 16 0.0375 1 first 10 1 314 6 4.4475 1.41999697685242 1 0 1 0 -0.02027017 -0.02073014 -0.02029603 1000 1000 1000 -0.02027017 -0.02073014 -0.02029603 1000 1000 1000 -0.020451 -0.02041697 -0.02087692 -0.02103979 -0.02096771 1000 -0.020451 -0.02041697 -0.02087692 -0.02103979 -0.02096771 1000
lala 19 0.0375 1 second 3 1 315 5 4.4375 0.319998025894165 -1 1 1 1 -0.02202746 -0.02200469 -0.02192035 -0.02198204 -0.02262022 1000 -0.02202746 -0.02200469 -0.02192035 -0.02198204 -0.02262022 1000 -0.02144651 -0.02089678 -0.02083724 -0.02090835 -0.0210237 1000 -0.02144651 -0.02089678 -0.02083724 -0.02090835 -0.0210237 1000
lala 15 0.075 0 first 0 1 316 4 4.815 1.37999701499939 -1 0 -1 0 -0.02112208 -0.02065337 -0.01990792 1000 1000 1000 -0.02112208 -0.02065337 -0.01990792 1000 1000 1000 -0.02012525 -0.02010788 -0.02020271 -0.02052807 -0.0206797 1000 -0.02012525 -0.02010788 -0.02020271 -0.02052807 -0.0206797 1000
lala 23 0.15 0 first 11 1 317 6 4.033126 1.21999716758728 1 1 -1 0 -0.02166968 -0.02178448 -0.02127098 1000 1000 1000 -0.02166968 -0.02178448 -0.02127098 1000 1000 1000 -0.02038874 -0.01993308 -0.01945379 -0.0195106 -0.02017586 1000 -0.02038874 -0.01993308 -0.01945379 -0.0195106 -0.02017586 1000
lala 17 0.01875 1 second 10 1 318 6 4.42875 0.659997701644897 1 0 1 1 -0.02225355 -0.02201564 -0.02078373 -0.01969433 -0.01981068 1000 -0.02225355 -0.02201564 -0.02078373 -0.01969433 -0.01981068 1000 -0.02184904 -0.02155686 -0.02203653 -0.02186253 -0.02189134 1000 -0.02184904 -0.02155686 -0.02203653 -0.02186253 -0.02189134 1000
lala 24 0.3 0 first 11 1 319 6 4.333127 2.05999660491943 1 1 -1 1 -0.0203611 -0.02001835 -0.02008701 1000 1000 1000 -0.0203611 -0.02001835 -0.02008701 1000 1000 1000 -0.02387867 -0.02396549 -0.02447826 -0.02397833 -0.02345488 1000 -0.02387867 -0.02396549 -0.02447826 -0.02397833 -0.02345488 1000
lala 21 0.01875 1 second 5 1 320 6 4.398751 0.459997892379761 -1 1 1 1 -0.0252874 -0.02537814 -0.02519563 -0.02369909 -0.02121443 1000 -0.0252874 -0.02537814 -0.02519563 -0.02369909 -0.02121443 1000 0.006896914 0.01352565 0.01633509 0.01715227 0.01568995 1000 0.006896914 0.01352565 0.01633509 0.01715227 0.01568995 1000
