subject PestNr Step_Size_OnTrial Pest_Faster Pest_Interval Condition block trial velH velH_Pest Reaction_Time velH_Subject Start_Above Response_MotionEstimation RightOrLeftxRotations_first0 xRotations_first1 xRotations_first2 xRotations_first3 xRotations_first4 xRotations_first5 yRotations_first0 yRotations_first1 yRotations_first2 yRotations_first3 yRotations_first4 yRotations_first5 xRotations_second0 xRotations_second1 xRotations_second2 xRotations_second3 xRotations_second4 xRotations_second5 yRotations_second0 yRotations_second1 yRotations_second2 yRotations_second3 yRotations_second4 yRotations_second5
lala 1 1.2 1 second 3 1 1 5 6.65 0.779997587203979 -1 1 1 0 0.01847468 0.01509194 0.01842865 0.01576685 0.01375503 1000 0.01847468 0.01509194 0.01842865 0.01576685 0.01375503 1000 0.009556274 0.009726225 0.009793798 0.01116649 0.01189309 1000 0.009556274 0.009726225 0.009793798 0.01116649 0.01189309 1000
lala 1 1.2 1 second 17 1 2 6 7.98 0.559997797012329 0 1 1 0 0.01068316 0.01027711 0.01019735 0.01066137 0.01089866 1000 0.01068316 0.01027711 0.01019735 0.01066137 0.01089866 1000 0.009629891 0.009784025 0.009995574 0.009329679 0.009971085 1000 0.009629891 0.009784025 0.009995574 0.009329679 0.009971085 1000
lala 1 1.2 1 second 7 1 3 4 5.32 2.01999664306641 1 1 1 0 0.008090657 0.008551167 0.00866105 0.009783135 0.009669752 1000 0.008090657 0.008551167 0.00866105 0.009783135 0.009669752 1000 0.009875504 0.009956674 0.009789702 0.009584416 0.009308951 1000 0.009875504 0.009956674 0.009789702 0.009584416 0.009308951 1000
lala 1 1.2 0 second 12 1 4 4 2.64 0.739997625350952 0 0 -1 1 0.01378756 0.01401659 0.01331744 0.0137072 0.01386641 1000 0.01378756 0.01401659 0.01331744 0.0137072 0.01386641 1000 0.01310381 0.01316853 0.01398629 0.01349053 0.01390996 1000 0.01310381 0.01316853 0.01398629 0.01349053 0.01390996 1000
lala 1 1.2 1 second 11 1 5 6 7.98 0.459997892379761 1 1 1 0 0.01249514 0.0132093 0.01392882 0.01359134 0.01392959 1000 0.01249514 0.0132093 0.01392882 0.01359134 0.01392959 1000 0.01529827 0.01538794 0.01534298 0.01563362 0.0145101 1000 0.01529827 0.01538794 0.01534298 0.01563362 0.0145101 1000
lala 2 1.2 1 second 11 1 6 6 6.780001 0.559997797012329 1 1 1 1 0.01473174 0.01437722 0.01489137 0.01549539 0.01570538 1000 0.01473174 0.01437722 0.01489137 0.01549539 0.01570538 1000 0.01507627 0.01518918 0.01545934 0.01435496 0.01486666 1000 0.01507627 0.01518918 0.01545934 0.01435496 0.01486666 1000
lala 1 1.2 0 second 2 1 7 5 3.3 0.61999773979187 -1 0 -1 0 0.01594772 0.01620932 0.0158802 0.0162629 0.01646896 1000 0.01594772 0.01620932 0.0158802 0.0162629 0.01646896 1000 0.01388721 0.01487898 0.01546825 0.01519458 0.01566275 1000 0.01388721 0.01487898 0.01546825 0.01519458 0.01566275 1000
lala 1 1.2 0 first 4 1 8 6 3.96 1.23999714851379 -1 0 -1 1 0.0167773 0.01731403 0.01755864 1000 1000 1000 0.0167773 0.01731403 0.01755864 1000 1000 1000 0.0193926 0.01918333 0.01918722 0.01982343 0.02001465 1000 0.0193926 0.01918333 0.01918722 0.01982343 0.02001465 1000
lala 3 1.2 1 second 11 1 9 6 5.580001 1.03999733924866 1 1 1 0 0.02174992 0.02343898 0.02349026 0.02377347 0.02301782 1000 0.02174992 0.02343898 0.02349026 0.02377347 0.02301782 1000 0.02208775 0.0226279 0.02308085 0.02271706 0.0230025 1000 0.02208775 0.0226279 0.02308085 0.02271706 0.0230025 1000
lala 1 1.2 1 second 13 1 10 4 5.32 1.61999702453613 0 1 1 1 0.03171316 0.03146441 0.03055259 0.02929896 0.02575077 1000 0.03171316 0.03146441 0.03055259 0.02929896 0.02575077 1000 0.02710305 0.02741464 0.02976919 0.02850362 0.02537585 1000 0.02710305 0.02741464 0.02976919 0.02850362 0.02537585 1000
lala 1 1.2 1 first 1 1 11 4 5.32 1.01999735832214 -1 1 1 1 0.01830169 0.01968453 0.02041367 1000 1000 1000 0.01830169 0.01968453 0.02041367 1000 1000 1000 0.0202597 0.02052281 0.02001516 0.02019711 0.01961916 1000 0.0202597 0.02052281 0.02001516 0.02019711 0.01961916 1000
lala 2 1.2 0 second 13 1 12 4 4.12 0.499997854232788 0 1 -1 1 0.02183579 0.02216319 0.02222102 0.02299397 0.0230225 1000 0.02183579 0.02216319 0.02222102 0.02299397 0.0230225 1000 0.02151138 0.02194186 0.02181476 0.02116485 0.02158481 1000 0.02151138 0.02194186 0.02181476 0.02116485 0.02158481 1000
lala 1 1.2 0 first 0 1 13 4 2.64 0.599997758865356 -1 0 -1 0 0.02184712 0.02139907 0.02198991 1000 1000 1000 0.02184712 0.02139907 0.02198991 1000 1000 1000 0.02288491 0.02208651 0.02261688 0.023188 0.02342059 1000 0.02288491 0.02208651 0.02261688 0.023188 0.02342059 1000
lala 2 1.2 1 first 17 1 14 6 6.780001 1.65999698638916 0 1 1 0 0.02330287 0.02383701 0.02453442 1000 1000 1000 0.02330287 0.02383701 0.02453442 1000 1000 1000 0.006165466 0.005620386 0.006337829 0.008077552 0.008087977 1000 0.006165466 0.005620386 0.006337829 0.008077552 0.008087977 1000
lala 1 1.2 0 second 6 1 15 4 2.64 1.59999680519104 1 0 -1 0 0.01120448 0.009560633 0.008486076 0.00869962 0.009101092 1000 0.01120448 0.009560633 0.008486076 0.00869962 0.009101092 1000 0.01031047 0.0106073 0.01075117 0.01126027 0.01075413 1000 0.01031047 0.0106073 0.01075117 0.01126027 0.01075413 1000
lala 1 1.2 1 second 5 1 16 6 7.98 0.439997911453247 -1 1 1 0 0.01187256 0.01176676 0.01243642 0.01194716 0.01180414 1000 0.01187256 0.01176676 0.01243642 0.01194716 0.01180414 1000 0.01086098 0.0109067 0.01075665 0.01099944 0.01069635 1000 0.01086098 0.0109067 0.01075665 0.01099944 0.01069635 1000
lala 3 1.2 1 second 13 1 17 4 5.32 0.639997720718384 0 1 1 1 0.01199925 0.01160011 0.01117153 0.01144439 0.01128578 1000 0.01199925 0.01160011 0.01117153 0.01144439 0.01128578 1000 0.0106493 0.01006273 0.01057822 0.009704266 0.009218485 1000 0.0106493 0.01006273 0.01057822 0.009704266 0.009218485 1000
lala 4 1.2 0 first 11 1 18 6 4.380001 0.659997701644897 1 1 -1 0 0.01299168 0.01598867 0.01630237 1000 1000 1000 0.01299168 0.01598867 0.01630237 1000 1000 1000 0.01122707 0.01108338 0.01161954 0.01163586 0.01105496 1000 0.01122707 0.01108338 0.01161954 0.01163586 0.01105496 1000
lala 1 1.2 0 first 10 1 19 6 3.96 1.25999712944031 1 0 -1 0 0.01219033 0.01219807 0.01319335 1000 1000 1000 0.01219033 0.01219807 0.01319335 1000 1000 1000 0.0173374 0.01542961 0.01569211 0.01522884 0.01507205 1000 0.0173374 0.01542961 0.01569211 0.01522884 0.01507205 1000
lala 2 1.2 0 second 6 1 20 4 3.84 0.759997606277466 1 0 -1 0 0.0130204 0.01383248 0.01235368 0.01181882 0.01292548 1000 0.0130204 0.01383248 0.01235368 0.01181882 0.01292548 1000 0.01239694 0.01275358 0.01354526 0.01370144 0.01343205 1000 0.01239694 0.01275358 0.01354526 0.01370144 0.01343205 1000
lala 3 1.2 1 second 17 1 21 6 5.580001 0.459997892379761 0 1 1 1 0.01253989 0.01182994 0.01286183 0.01260225 0.01231333 1000 0.01253989 0.01182994 0.01286183 0.01260225 0.01231333 1000 0.01434358 0.01398086 0.01422371 0.01328321 0.01387728 1000 0.01434358 0.01398086 0.01422371 0.01328321 0.01387728 1000
lala 2 1.2 0 second 10 1 22 6 5.16 0.61999773979187 1 0 -1 0 0.01404091 0.01470827 0.01381899 0.01351431 0.01371898 1000 0.01404091 0.01470827 0.01381899 0.01351431 0.01371898 1000 0.01342534 0.01342199 0.01399496 0.01369095 0.01320299 1000 0.01342534 0.01342199 0.01399496 0.01369095 0.01320299 1000
lala 2 1.2 1 second 4 1 23 6 5.16 0.499997854232788 -1 0 1 1 0.01343195 0.01333863 0.01301245 0.01364321 0.01292425 1000 0.01343195 0.01333863 0.01301245 0.01364321 0.01292425 1000 0.01414101 0.014515 0.01443217 0.01387271 0.01407676 1000 0.01414101 0.014515 0.01443217 0.01387271 0.01407676 1000
lala 4 1.2 1 first 17 1 24 6 4.380001 0.599997758865356 0 1 1 0 0.01483663 0.01496771 0.01459937 1000 1000 1000 0.01483663 0.01496771 0.01459937 1000 1000 1000 0.01243462 0.01302546 0.0132017 0.01258202 0.01288541 1000 0.01243462 0.01302546 0.0132017 0.01258202 0.01288541 1000
lala 3 1.2 1 first 4 1 25 6 3.96 0.579997777938843 -1 0 1 0 0.0108657 0.01002439 0.01017414 1000 1000 1000 0.0108657 0.01002439 0.01017414 1000 1000 1000 0.01122635 0.01127298 0.01100825 0.01148815 0.01075377 1000 0.01122635 0.01127298 0.01100825 0.01148815 0.01075377 1000
lala 4 1.2 1 first 13 1 26 4 4.12 1.07999730110168 0 1 1 0 0.009948203 0.01051956 0.01149784 1000 1000 1000 0.009948203 0.01051956 0.01149784 1000 1000 1000 0.008095243 0.007193348 0.007978314 0.008321931 0.008218695 1000 0.008095243 0.007193348 0.007978314 0.008321931 0.008218695 1000
lala 5 1.2 0 first 13 1 27 4 2.92 1.93999671936035 0 1 -1 1 0.009856739 0.008499924 0.009623818 1000 1000 1000 0.009856739 0.008499924 0.009623818 1000 1000 1000 0.007018952 0.006443454 0.006234671 0.006283649 0.00603121 1000 0.007018952 0.006443454 0.006234671 0.006283649 0.00603121 1000
lala 5 1.2 0 second 17 1 28 6 3.180001 0.559997797012329 0 1 -1 0 0.008566236 0.008660105 0.008140369 0.008450713 0.007876645 1000 0.008566236 0.008660105 0.008140369 0.008450713 0.007876645 1000 0.00774126 0.007798231 0.00785971 0.007330348 0.007837749 1000 0.00774126 0.007798231 0.00785971 0.007330348 0.007837749 1000
lala 2 1.2 1 second 3 1 29 5 5.45 0.419997930526733 -1 1 1 1 0.006954634 0.006386606 0.006095798 0.007391477 0.007757921 1000 0.006954634 0.006386606 0.006095798 0.007391477 0.007757921 1000 0.008466014 0.008840225 0.008332461 0.007786871 0.008274637 1000 0.008466014 0.008840225 0.008332461 0.007786871 0.008274637 1000
lala 2 1.2 1 first 7 1 30 4 4.12 0.359997987747192 1 1 1 0 0.006658095 0.006641444 0.005881929 1000 1000 1000 0.006658095 0.006641444 0.005881929 1000 1000 1000 0.007319843 0.007437014 0.007551934 0.007086445 0.007580488 1000 0.007319843 0.007437014 0.007551934 0.007086445 0.007580488 1000
lala 3 1.2 0 second 6 1 31 4 5.04 2.05999660491943 1 0 -1 1 0.006023103 0.006740706 0.007146724 0.007867089 0.008003775 1000 0.006023103 0.006740706 0.007146724 0.007867089 0.008003775 1000 0.00587943 0.006598413 0.006092432 0.005478727 0.005047011 1000 0.00587943 0.006598413 0.006092432 0.005478727 0.005047011 1000
lala 3 1.2 1 second 7 1 32 4 2.92 0.899997472763062 1 1 1 1 0.003286581 0.00344141 0.005488494 0.00644947 0.004948734 1000 0.003286581 0.00344141 0.005488494 0.00644947 0.004948734 1000 0.002480614 0.002188849 0.002921936 0.004148125 0.004355605 1000 0.002480614 0.002188849 0.002921936 0.004148125 0.004355605 1000
lala 6 1.2 1 second 13 1 33 4 4.12 0.579997777938843 0 1 1 1 0.0030228 0.003299242 0.003055803 0.003724062 0.003311668 1000 0.0030228 0.003299242 0.003055803 0.003724062 0.003311668 1000 0.003328523 0.003614512 0.003687015 0.003708012 0.003641416 1000 0.003328523 0.003614512 0.003687015 0.003708012 0.003641416 1000
lala 4 1.2 1 first 6 1 34 4 6.24 0.339998006820679 1 0 1 1 0.002826648 0.002390848 0.002921028 1000 1000 1000 0.002826648 0.002390848 0.002921028 1000 1000 1000 0.003586931 0.002720356 0.002908275 0.003372327 0.003145883 1000 0.003586931 0.002720356 0.002908275 0.003372327 0.003145883 1000
lala 2 1.2 1 second 12 1 35 4 3.84 0.699997663497925 0 0 1 0 0.003076783 0.002897679 0.003074213 0.003248548 0.003948596 1000 0.003076783 0.002897679 0.003074213 0.003248548 0.003948596 1000 0.003640146 0.003653385 0.003689291 0.00346192 0.003064292 1000 0.003640146 0.003653385 0.003689291 0.00346192 0.003064292 1000
lala 1 1.2 0 second 14 1 36 5 3.3 0.99999737739563 0 0 -1 1 0.003434703 0.003491019 0.004655666 0.004850949 0.004643939 1000 0.003434703 0.003491019 0.004655666 0.004850949 0.004643939 1000 0.003298492 0.002997598 0.002211316 0.002503237 0.002641364 1000 0.003298492 0.002997598 0.002211316 0.002503237 0.002641364 1000
lala 4 1.2 0 second 7 1 37 4 1.72 0.439997911453247 1 1 -1 1 0.00372525 0.005034044 0.004124696 0.004591617 0.004006627 1000 0.00372525 0.005034044 0.004124696 0.004591617 0.004006627 1000 0.003904382 0.00300017 0.002898004 0.002616945 0.002508475 1000 0.003904382 0.00300017 0.002898004 0.002616945 0.002508475 1000
lala 5 1.2 1 first 6 1 38 4 5.04 0.939997434616089 1 0 1 0 0.003434752 0.002941596 0.003019235 1000 1000 1000 0.003434752 0.002941596 0.003019235 1000 1000 1000 0.001712379 0.001883029 0.001629195 0.0008798522 0.000942438 1000 0.001712379 0.001883029 0.001629195 0.0008798522 0.000942438 1000
lala 2 1.2 1 first 14 1 39 5 4.5 0.779997587203979 0 0 1 1 0.001788525 0.001263582 0.001733903 1000 1000 1000 0.001788525 0.001263582 0.001733903 1000 1000 1000 0.001542344 0.001547128 0.001302494 0.001369661 0.001428226 1000 0.001542344 0.001547128 0.001302494 0.001369661 0.001428226 1000
lala 4 1.2 0 second 4 1 40 6 2.76 1.17999720573425 -1 0 -1 0 0.001063445 0.001130062 0.0007003151 0.001178026 0.001216885 1000 0.001063445 0.001130062 0.0007003151 0.001178026 0.001216885 1000 0.0009477712 0.001666773 0.001477692 0.001368852 0.001318537 1000 0.0009477712 0.001666773 0.001477692 0.001368852 0.001318537 1000
lala 5 1.2 0 first 7 1 41 4 2.92 0.859997510910034 1 1 -1 0 -0.0001843549 9.056795E-05 0.000636948 1000 1000 1000 -0.0001843549 9.056795E-05 0.000636948 1000 1000 1000 0.002185538 0.002054007 0.002167927 0.001578895 0.0005752866 1000 0.002185538 0.002054007 0.002167927 0.001578895 0.0005752866 1000
lala 2 1.2 1 second 2 1 42 5 4.5 1.03999733924866 -1 0 1 1 0.001967918 0.001573744 0.001795182 0.00116105 0.001290691 1000 0.001967918 0.001573744 0.001795182 0.00116105 0.001290691 1000 0.001299502 0.001451816 0.001483108 0.001815308 0.001212539 1000 0.001299502 0.001451816 0.001483108 0.001815308 0.001212539 1000
lala 1 1.2 1 second 15 1 43 5 6.65 0.479997873306274 0 1 1 0 0.001526008 0.001590298 0.001794896 0.001517005 0.0005321718 1000 0.001526008 0.001590298 0.001794896 0.001517005 0.0005321718 1000 0.001655606 0.0009253332 0.001119482 0.001813679 0.002150719 1000 0.001655606 0.0009253332 0.001119482 0.001813679 0.002150719 1000
lala 3 1.2 1 first 14 1 44 5 3.3 1.41999697685242 0 0 1 0 0.000665719 0.000883243 0.001609949 1000 1000 1000 0.000665719 0.000883243 0.001609949 1000 1000 1000 0.001778762 0.001858754 0.001802389 0.002183195 0.002286466 1000 0.001778762 0.001858754 0.001802389 0.002183195 0.002286466 1000
lala 4 1.2 0 second 14 1 45 5 2.1 0.39999794960022 0 0 -1 0 0.000569736 0.001071467 0.001273531 0.001298605 0.0007967926 1000 0.000569736 0.001071467 0.001273531 0.001298605 0.0007967926 1000 0.001474499 0.0008716084 0.0005696553 0.0009725103 0.0007379518 1000 0.001474499 0.0008716084 0.0005696553 0.0009725103 0.0007379518 1000
lala 5 1.2 0 first 14 1 46 5 3.3 0.439997911453247 0 0 -1 1 0.0001623606 0.001260178 0.000982016 1000 1000 1000 0.0001623606 0.001260178 0.000982016 1000 1000 1000 0.001236171 0.001404255 0.001377789 0.001284718 0.001576081 1000 0.001236171 0.001404255 0.001377789 0.001284718 0.001576081 1000
lala 1 1.2 1 first 9 1 47 5 6.65 0.879997491836548 1 1 1 1 0.002546656 0.002670552 0.002358839 1000 1000 1000 0.002546656 0.002670552 0.002358839 1000 1000 1000 0.002520726 0.00218548 0.001928771 0.00232535 0.002282847 1000 0.002520726 0.00218548 0.001928771 0.00232535 0.002282847 1000
lala 6 1.2 1 first 17 1 48 6 4.380001 0.299998044967651 0 1 1 1 0.003306494 0.003134053 0.003544154 1000 1000 1000 0.003306494 0.003134053 0.003544154 1000 1000 1000 0.003269468 0.003069479 0.003274385 0.003368159 0.002797833 1000 0.003269468 0.003069479 0.003274385 0.003368159 0.002797833 1000
lala 1 1.2 1 first 16 1 49 6 3.96 0.699997663497925 0 0 1 0 0.003398372 0.003337931 0.003242436 1000 1000 1000 0.003398372 0.003337931 0.003242436 1000 1000 1000 0.00165085 0.002217651 0.002342183 0.002331623 0.003127144 1000 0.00165085 0.002217651 0.002342183 0.002331623 0.003127144 1000
lala 3 1.2 1 first 2 1 50 5 3.3 0.959997415542603 -1 0 1 0 -0.008187504 -0.004370375 0.0009992605 0.001694808 0.0004164674 8.998857E-06 -0.008187504 -0.004370375 0.0009992605 0.001694808 0.0004164674 8.998857E-06 0.002729889 0.002768319 0.002319933 0.003373095 0.003057339 1000 0.002729889 0.002768319 0.002319933 0.003373095 0.003057339 1000
lala 7 1.2 0 first 17 1 51 6 3.180001 0.379997968673706 0 1 -1 0 0.002898088 0.003692503 0.004197709 1000 1000 1000 0.002898088 0.003692503 0.004197709 1000 1000 1000 0.003504094 0.003236086 0.002937157 0.003296688 0.002538131 1000 0.003504094 0.003236086 0.002937157 0.003296688 0.002538131 1000
lala 2 1.2 1 first 0 1 52 4 3.84 0.599997758865356 -1 0 1 0 0.002101566 0.00222897 0.002281425 1000 1000 1000 0.002101566 0.00222897 0.002281425 1000 1000 1000 0.001230296 0.001954401 0.00187738 0.001254076 0.001318028 1000 0.001230296 0.001954401 0.00187738 0.001254076 0.001318028 1000
lala 5 1.2 1 second 4 1 53 6 3.96 0.899997472763062 -1 0 1 1 0.0007901657 0.001018798 0.0006873715 0.0008730481 0.0004590394 1000 0.0007901657 0.001018798 0.0006873715 0.0008730481 0.0004590394 1000 -0.001505309 -0.001002217 -0.001397662 -0.001877343 -0.002414333 1000 -0.001505309 -0.001002217 -0.001397662 -0.001877343 -0.002414333 1000
lala 6 1.2 0 first 4 1 54 6 2.76 0.639997720718384 -1 0 -1 0 -0.002262912 -0.002033335 -0.002061496 1000 1000 1000 -0.002262912 -0.002033335 -0.002061496 1000 1000 1000 -0.00459819 -0.005127201 -0.004408631 -0.004230888 -0.004109631 1000 -0.00459819 -0.005127201 -0.004408631 -0.004230888 -0.004109631 1000
lala 7 1.2 0 first 13 1 55 4 2.92 2.13999652862549 0 1 -1 1 -0.004554219 -0.004297413 -0.004461223 1000 1000 1000 -0.004554219 -0.004297413 -0.004461223 1000 1000 1000 -0.006414891 -0.006620881 -0.006228465 -0.005966198 -0.006214531 1000 -0.006414891 -0.006620881 -0.006228465 -0.005966198 -0.006214531 1000
lala 2 1.2 1 first 15 1 56 5 5.45 0.139998197555542 0 1 1 1 -0.005775885 -0.005857775 -0.006217394 1000 1000 1000 -0.005775885 -0.005857775 -0.006217394 1000 1000 1000 -0.004020198 -0.003714768 -0.003286091 -0.003565594 -0.003281581 1000 -0.004020198 -0.003714768 -0.003286091 -0.003565594 -0.003281581 1000
lala 3 1.2 1 second 10 1 57 6 6.36 0.339998006820679 1 0 1 1 -0.003418733 -0.003324877 -0.003371913 -0.003220994 -0.003235068 1000 -0.003418733 -0.003324877 -0.003371913 -0.003220994 -0.003235068 1000 -0.0043575 -0.004295134 -0.004309601 -0.004414981 -0.00491355 1000 -0.0043575 -0.004295134 -0.004309601 -0.004414981 -0.00491355 1000
lala 4 1.2 1 second 10 1 58 6 5.16 0.339998006820679 1 0 1 0 -0.003882347 -0.003908709 -0.004695335 -0.004989279 -0.005499982 1000 -0.003882347 -0.003908709 -0.004695335 -0.004989279 -0.005499982 1000 -0.006299254 -0.006234357 -0.006238921 -0.006066029 -0.005878821 1000 -0.006299254 -0.006234357 -0.006238921 -0.006066029 -0.005878821 1000
lala 2 1.2 1 second 5 1 59 6 6.780001 0.199998140335083 -1 1 1 1 -0.004441096 -0.004717639 -0.004184868 -0.004403349 -0.00487169 1000 -0.004441096 -0.004717639 -0.004184868 -0.004403349 -0.00487169 1000 -0.005746231 -0.00589982 -0.005924403 -0.006048029 -0.005579375 1000 -0.005746231 -0.00589982 -0.005924403 -0.006048029 -0.005579375 1000
lala 5 1.2 1 first 10 1 60 6 3.96 2.03999662399292 1 0 1 1 -0.005340577 -0.005441226 -0.005286617 1000 1000 1000 -0.005340577 -0.005441226 -0.005286617 1000 1000 1000 -0.006681822 -0.005991998 -0.005938665 -0.006198665 -0.006712617 1000 -0.006681822 -0.005991998 -0.005938665 -0.006198665 -0.006712617 1000
lala 3 1.2 1 first 3 1 61 5 4.25 0.579997777938843 -1 1 1 1 -0.003521456 -0.003461284 -0.003646142 1000 1000 1000 -0.003521456 -0.003461284 -0.003646142 1000 1000 1000 -0.003268615 -0.003531676 -0.003151166 -0.002424129 -0.002288834 1000 -0.003268615 -0.003531676 -0.003151166 -0.002424129 -0.002288834 1000
lala 3 1.2 0 first 12 1 62 4 2.64 0.359997987747192 0 0 -1 0 -0.00314781 -0.00275585 -0.002850558 1000 1000 1000 -0.00314781 -0.00275585 -0.002850558 1000 1000 1000 -0.001632117 -0.001359405 -0.00173987 -0.001446022 -0.001812918 1000 -0.001632117 -0.001359405 -0.00173987 -0.001446022 -0.001812918 1000
lala 7 1.2 1 second 4 1 63 6 3.96 0.699997663497925 -1 0 1 1 -0.002937236 -0.002314156 -0.002527028 -0.002663447 -0.001897676 1000 -0.002937236 -0.002314156 -0.002527028 -0.002663447 -0.001897676 1000 -0.0008445802 -0.0009991822 -0.001269167 -0.0007441976 -0.001192649 1000 -0.0008445802 -0.0009991822 -0.001269167 -0.0007441976 -0.001192649 1000
lala 3 1.2 0 first 0 1 64 4 2.64 0.199998140335083 -1 0 -1 0 -0.002033558 -0.0008623751 -0.001363004 1000 1000 1000 -0.002033558 -0.0008623751 -0.001363004 1000 1000 1000 -0.0009929882 -0.0009683631 -0.0003317828 -0.0003814045 -0.0007711393 1000 -0.0009929882 -0.0009683631 -0.0003317828 -0.0003814045 -0.0007711393 1000
lala 4 1.2 1 first 12 1 65 4 3.84 0.319998025894165 0 0 1 0 -0.001756059 -0.001650418 -0.0007375104 1000 1000 1000 -0.001756059 -0.001650418 -0.0007375104 1000 1000 1000 0.0001022666 -0.0004257184 -0.0005487836 -0.0001594491 -0.000511213 1000 0.0001022666 -0.0004257184 -0.0005487836 -0.0001594491 -0.000511213 1000
lala 4 1.2 0 second 3 1 66 5 3.05 0.539997816085815 -1 1 -1 0 -0.0002379915 0.0005215969 0.0007624671 0.0008888593 0.0004086965 1000 -0.0002379915 0.0005215969 0.0007624671 0.0008888593 0.0004086965 1000 -0.0005619476 -0.00113844 -0.0009014656 -0.0005700669 -0.0009990092 1000 -0.0005619476 -0.00113844 -0.0009014656 -0.0005700669 -0.0009990092 1000
lala 5 1.2 1 first 3 1 67 5 4.25 0.279998064041138 -1 1 1 0 0.0001600163 -0.0001594696 0.0006550519 1000 1000 1000 0.0001600163 -0.0001594696 0.0006550519 1000 1000 1000 -0.0009830056 -0.0006646539 -0.000148015 -0.000258469 -5.30418E-05 1000 -0.0009830056 -0.0006646539 -0.000148015 -0.000258469 -5.30418E-05 1000
lala 4 1.2 1 first 0 1 68 4 3.84 0.959997415542603 -1 0 1 0 0.0005611892 0.0004979677 0.0006366641 1000 1000 1000 0.0005611892 0.0004979677 0.0006366641 1000 1000 1000 -0.005735361 -0.005812551 -0.005003454 -0.004813043 -0.001348876 1000 -0.005735361 -0.005812551 -0.005003454 -0.004813043 -0.001348876 1000
lala 8 1.2 0 second 4 1 69 6 2.76 0.39999794960022 -1 0 -1 1 -0.003277682 -0.001889087 -0.000730574 -0.001180115 -0.0007195207 1000 -0.003277682 -0.001889087 -0.000730574 -0.001180115 -0.0007195207 1000 -0.001495134 -0.001686692 0.0001040521 4.167721E-05 -0.0005286059 1000 -0.001495134 -0.001686692 0.0001040521 4.167721E-05 -0.0005286059 1000
lala 8 1.2 1 first 17 1 70 6 4.380001 0.359997987747192 0 1 1 1 -0.001245483 -0.001281266 -0.00122148 1000 1000 1000 -0.001245483 -0.001281266 -0.00122148 1000 1000 1000 -0.00264371 -0.00267676 -0.002800029 -0.003275578 -0.002895304 1000 -0.00264371 -0.00267676 -0.002800029 -0.003275578 -0.002895304 1000
lala 2 1.2 0 second 16 1 71 6 2.76 0.61999773979187 0 0 -1 1 -0.003506917 -0.003200394 -0.003535507 -0.003369931 -0.003174136 1000 -0.003506917 -0.003200394 -0.003535507 -0.003369931 -0.003174136 1000 -0.003164177 -0.0032796 -0.002958416 -0.003524763 -0.00331159 1000 -0.003164177 -0.0032796 -0.002958416 -0.003524763 -0.00331159 1000
lala 3 1.2 1 second 16 1 72 6 3.96 0.439997911453247 0 0 1 0 -0.001381174 -0.001941658 -0.00235698 -0.003151965 -0.004318636 1000 -0.001381174 -0.001941658 -0.00235698 -0.003151965 -0.004318636 1000 -0.002781537 -0.00330883 -0.003106924 -0.003250005 -0.002960198 1000 -0.002781537 -0.00330883 -0.003106924 -0.003250005 -0.002960198 1000
lala 2 1.2 1 second 9 1 73 5 5.45 2.23999643325806 1 1 1 0 -0.001750093 -0.001604545 -0.001894445 -0.00136029 -0.00157896 1000 -0.001750093 -0.001604545 -0.001894445 -0.00136029 -0.00157896 1000 -0.002809837 -0.002905585 -0.00213835 -0.002512238 -0.002412793 1000 -0.002809837 -0.002905585 -0.00213835 -0.002512238 -0.002412793 1000
lala 6 1.2 0 first 3 1 74 5 3.05 0.379997968673706 -1 1 -1 1 -0.002594565 -0.002776188 -0.003137734 1000 1000 1000 -0.002594565 -0.002776188 -0.003137734 1000 1000 1000 -0.001523458 -0.0005955404 0.001122578 0.001772829 0.001310346 1000 -0.001523458 -0.0005955404 0.001122578 0.001772829 0.001310346 1000
lala 7 1.2 1 second 3 1 75 5 4.25 0.579997777938843 -1 1 1 1 -4.596491E-05 -0.0006196956 0.0004014162 0.0008533552 0.001023227 1000 -4.596491E-05 -0.0006196956 0.0004014162 0.0008533552 0.001023227 1000 0.002105996 0.001766641 0.001818696 0.00256375 0.002376996 1000 0.002105996 0.001766641 0.001818696 0.00256375 0.002376996 1000
lala 3 1.2 1 second 9 1 76 5 4.25 0.379997968673706 1 1 1 0 0.001308231 0.001866337 0.00274408 0.003074737 0.002022795 1000 0.001308231 0.001866337 0.00274408 0.003074737 0.002022795 1000 0.0004853554 0.001498602 0.001869495 0.001639458 0.00185826 1000 0.0004853554 0.001498602 0.001869495 0.001639458 0.00185826 1000
lala 8 1.2 1 first 13 1 77 4 4.12 0.419997930526733 0 1 1 0 -0.0005068189 -0.0003970584 -0.0004435436 1000 1000 1000 -0.0005068189 -0.0003970584 -0.0004435436 1000 1000 1000 0.002731781 0.003074542 0.003075118 0.002627187 0.00292165 1000 0.002731781 0.003074542 0.003075118 0.002627187 0.00292165 1000
lala 8 1.2 0 first 3 1 78 5 3.05 0.199998140335083 -1 1 -1 1 0.001530186 0.001534068 0.002136695 1000 1000 1000 0.001530186 0.001534068 0.002136695 1000 1000 1000 0.004173385 0.003713482 0.004483731 0.004673799 0.00424692 1000 0.004173385 0.003713482 0.004483731 0.004673799 0.00424692 1000
lala 4 1.2 0 second 9 1 79 5 3.05 8.68006372451782 1 1 -1 1 0.001884306 0.00155461 0.002675987 0.002725484 0.003028494 1000 0.001884306 0.00155461 0.002675987 0.002725484 0.003028494 1000 0.003713993 0.003874 0.003881366 0.004000956 0.004611305 1000 0.003713993 0.003874 0.003881366 0.004000956 0.004611305 1000
lala 6 1.2 0 first 6 1 80 4 3.84 1.41999697685242 1 0 -1 1 0.01487926 0.01558949 0.0160247 1000 1000 1000 0.01487926 0.01558949 0.0160247 1000 1000 1000 0.01359635 0.01393247 0.01364131 0.01338908 0.01368978 1000 0.01359635 0.01393247 0.01364131 0.01338908 0.01368978 1000
lala 9 1.2 1 second 17 1 81 6 3.180001 1.57999682426453 0 1 1 1 0.01557016 0.01581163 0.0157785 0.01516088 0.01591331 1000 0.01557016 0.01581163 0.0157785 0.01516088 0.01591331 1000 0.0156982 0.01582103 0.01554846 0.01617239 0.01548203 1000 0.0156982 0.01582103 0.01554846 0.01617239 0.01548203 1000
lala 9 1.2 0 first 13 1 82 4 2.92 0.439997911453247 0 1 -1 1 0.01643615 0.01809303 0.01989888 1000 1000 1000 0.01643615 0.01809303 0.01989888 1000 1000 1000 0.02156805 0.0215748 0.02163736 0.02155456 0.02164873 1000 0.02156805 0.0215748 0.02163736 0.02155456 0.02164873 1000
lala 4 1.2 0 first 2 1 83 5 2.1 0.959997415542603 -1 0 -1 1 0.02089836 0.01994922 0.01598687 1000 1000 1000 0.02089836 0.01994922 0.01598687 1000 1000 1000 0.01749017 0.01735449 0.01719245 0.01856501 0.01855052 1000 0.01749017 0.01735449 0.01719245 0.01856501 0.01855052 1000
lala 5 1.2 0 first 12 1 84 4 2.64 1.41999697685242 0 0 -1 0 0.01997481 0.01990952 0.02038095 1000 1000 1000 0.01997481 0.01990952 0.02038095 1000 1000 1000 0.0201413 0.01889939 0.01844113 0.01858506 0.0191757 1000 0.0201413 0.01889939 0.01844113 0.01858506 0.0191757 1000
lala 3 1.2 1 first 15 1 85 5 4.25 0.39999794960022 0 1 1 1 0.01937524 0.01916291 0.01853654 1000 1000 1000 0.01937524 0.01916291 0.01853654 1000 1000 1000 0.02160145 0.0216482 0.02081428 0.02140293 0.0217383 1000 0.02160145 0.0216482 0.02081428 0.02140293 0.0217383 1000
lala 10 1.2 0 second 17 1 86 6 1.980001 0.499997854232788 0 1 -1 0 0.02333155 0.02360629 0.02316571 0.02345454 0.02376945 1000 0.02333155 0.02360629 0.02316571 0.02345454 0.02376945 1000 0.02411894 0.02344897 0.02304365 0.02354059 0.02391615 1000 0.02411894 0.02344897 0.02304365 0.02354059 0.02391615 1000
lala 5 1.2 0 first 0 1 87 4 2.64 0.799997568130493 -1 0 -1 0 0.02298604 0.02296541 0.02363487 1000 1000 1000 0.02298604 0.02296541 0.02363487 1000 1000 1000 0.02051569 0.01833897 0.01848306 0.01817343 0.01973219 1000 0.02051569 0.01833897 0.01848306 0.01817343 0.01973219 1000
lala 9 1.2 1 first 4 1 88 6 3.96 0.539997816085815 -1 0 1 1 0.01893191 0.01897339 0.01959539 1000 1000 1000 0.01893191 0.01897339 0.01959539 1000 1000 1000 0.01891575 0.01832745 0.01910199 0.0188597 0.01845126 1000 0.01891575 0.01832745 0.01910199 0.0188597 0.01845126 1000
lala 5 1.2 1 first 9 1 89 5 4.25 0.959997415542603 1 1 1 0 0.02009438 0.02055706 0.02059348 1000 1000 1000 0.02009438 0.02055706 0.02059348 1000 1000 1000 0.01792755 0.01783451 0.01820307 0.01846528 0.0181564 1000 0.01792755 0.01783451 0.01820307 0.01846528 0.0181564 1000
lala 5 1.2 1 first 2 1 90 5 3.3 0.699997663497925 -1 0 1 0 0.02018302 0.02114179 0.02162605 1000 1000 1000 0.02018302 0.02114179 0.02162605 1000 1000 1000 0.01928976 0.01908178 0.0193554 0.0196413 0.02062488 1000 0.01928976 0.01908178 0.0193554 0.0196413 0.02062488 1000
lala 6 1.2 1 second 7 1 91 4 4.12 0.559997797012329 1 1 1 1 0.02098855 0.02124963 0.02124979 0.0213088 0.02130783 1000 0.02098855 0.02124963 0.02124979 0.0213088 0.02130783 1000 0.01839013 0.01926106 0.01994637 0.02011735 0.01974181 1000 0.01839013 0.01926106 0.01994637 0.02011735 0.01974181 1000
lala 6 1.2 1 first 0 1 92 4 3.84 2.09999656677246 -1 0 1 0 0.01977516 0.02046052 0.02040218 1000 1000 1000 0.01977516 0.02046052 0.02040218 1000 1000 1000 0.02079526 0.02080745 0.02151271 0.02135077 0.02179031 1000 0.02079526 0.02080745 0.02151271 0.02135077 0.02179031 1000
lala 6 1.2 0 first 10 1 93 6 2.76 0.459997892379761 1 0 -1 0 0.02055084 0.02079071 0.02107049 1000 1000 1000 0.02055084 0.02079071 0.02107049 1000 1000 1000 0.02299723 0.02348033 0.02310599 0.02298147 0.02202654 1000 0.02299723 0.02348033 0.02310599 0.02298147 0.02202654 1000
lala 5 1.2 0 first 11 1 94 6 5.580001 0.959997415542603 1 1 -1 1 0.02157659 0.02295073 0.02320113 1000 1000 1000 0.02157659 0.02295073 0.02320113 1000 1000 1000 0.024086 0.02344517 0.02348586 0.02314637 0.02261812 1000 0.024086 0.02344517 0.02348586 0.02314637 0.02261812 1000
lala 6 1.2 1 first 11 1 95 6 6.780001 0.579997777938843 1 1 1 0 0.02393778 0.02422839 0.02390077 1000 1000 1000 0.02393778 0.02422839 0.02390077 1000 1000 1000 0.02317519 0.0230654 0.02292953 0.02335724 0.02331463 1000 0.02317519 0.0230654 0.02292953 0.02335724 0.02331463 1000
lala 3 1.2 1 second 5 1 96 6 5.580001 0.61999773979187 -1 1 1 1 0.02132681 0.02262539 0.02200638 0.02138803 0.0210088 1000 0.02132681 0.02262539 0.02200638 0.02138803 0.0210088 1000 0.02038739 0.02030457 0.02102805 0.02118129 0.02108818 1000 0.02038739 0.02030457 0.02102805 0.02118129 0.02108818 1000
lala 4 1.2 0 first 5 1 97 6 4.380001 0.739997625350952 -1 1 -1 1 0.02229673 0.02284795 0.02264912 1000 1000 1000 0.02229673 0.02284795 0.02264912 1000 1000 1000 0.02262026 0.02248351 0.02308056 0.02291163 0.02241951 1000 0.02262026 0.02248351 0.02308056 0.02291163 0.02241951 1000
lala 2 1.2 1 second 1 1 98 4 4.12 0.939997434616089 -1 1 1 0 0.02437124 0.02411225 0.02452616 0.02409743 0.02341153 1000 0.02437124 0.02411225 0.02452616 0.02409743 0.02341153 1000 0.02410521 0.0242021 0.0243951 0.02436205 0.02417161 1000 0.02410521 0.0242021 0.0243951 0.02436205 0.02417161 1000
lala 7 1.2 1 second 0 1 99 4 2.64 0.899997472763062 -1 0 1 0 0.002980067 0.002439958 0.004552657 0.004563981 0.004603951 1000 0.002980067 0.002439958 0.004552657 0.004563981 0.004603951 1000 0.007283808 0.007582644 0.007781381 0.008029474 0.008323241 1000 0.007283808 0.007582644 0.007781381 0.008029474 0.008323241 1000
lala 7 1.2 0 first 10 1 100 6 3.96 0.39999794960022 1 0 -1 1 -0.008055507 -0.008973315 -0.009156424 -0.007209182 -0.005321517 -0.004079385 -0.008055507 -0.008973315 -0.009156424 -0.007209182 -0.005321517 -0.004079385 -0.00167709 -0.001988732 -0.001908168 -0.0024521 -0.001863394 1000 -0.00167709 -0.001988732 -0.001908168 -0.0024521 -0.001863394 1000
lala 4 1.2 0 second 15 1 101 5 3.05 0.779997587203979 0 1 -1 0 0.001480761 0.001860441 0.002392049 0.002300795 0.001899904 1000 0.001480761 0.001860441 0.002392049 0.002300795 0.001899904 1000 0.001507602 0.001031239 0.001347351 0.001872725 0.002009312 1000 0.001507602 0.001031239 0.001347351 0.001872725 0.002009312 1000
lala 3 1.2 1 first 1 1 102 4 2.92 0.99999737739563 -1 1 1 1 0.002652146 0.001791242 0.002243132 1000 1000 1000 0.002652146 0.001791242 0.002243132 1000 1000 1000 -0.0006206625 0.0002721112 0.0005147121 3.225446E-05 0.000384962 1000 -0.0006206625 0.0002721112 0.0005147121 3.225446E-05 0.000384962 1000
lala 5 1.2 1 first 15 1 103 5 4.25 0.959997415542603 0 1 1 1 0.0006889221 0.001539453 0.001625885 1000 1000 1000 0.0006889221 0.001539453 0.001625885 1000 1000 1000 0.001435027 0.0009966308 0.001664648 0.001902431 0.001606731 1000 0.001435027 0.0009966308 0.001664648 0.001902431 0.001606731 1000
lala 11 0.6 0 second 17 1 104 6 2.580001 0.799997568130493 0 1 -1 1 0.003690982 0.004406696 0.003726841 0.00300808 0.003435005 1000 0.003690982 0.004406696 0.003726841 0.00300808 0.003435005 1000 0.00259159 0.001770518 0.00186534 0.002215621 0.002078089 1000 0.00259159 0.001770518 0.00186534 0.002215621 0.002078089 1000
lala 7 1.2 1 second 11 1 105 6 5.580001 0.359997987747192 1 1 1 0 0.003063874 0.003268165 0.002842038 0.002294111 0.002983119 1000 0.003063874 0.003268165 0.002842038 0.002294111 0.002983119 1000 0.00310841 0.003387916 0.003917726 0.00380188 0.003524903 1000 0.00310841 0.003387916 0.003917726 0.00380188 0.003524903 1000
lala 6 1.2 0 first 9 1 106 5 3.05 0.479997873306274 1 1 -1 1 0.00478745 0.004926987 0.004618318 1000 1000 1000 0.00478745 0.004926987 0.004618318 1000 1000 1000 0.004495746 0.005091828 0.004836472 0.004753114 0.00465734 1000 0.004495746 0.005091828 0.004836472 0.004753114 0.00465734 1000
lala 6 1.2 1 second 12 1 107 4 3.84 0.799997568130493 0 0 1 0 0.005737169 0.005480479 0.005784204 0.005680756 0.006245768 1000 0.005737169 0.005480479 0.005784204 0.005680756 0.006245768 1000 0.004568293 0.004917859 0.006162629 0.006151142 0.00608563 1000 0.004568293 0.004917859 0.006162629 0.006151142 0.00608563 1000
lala 7 1.2 1 first 7 1 108 4 2.92 0.579997777938843 1 1 1 1 0.006867838 0.006312118 0.006820292 1000 1000 1000 0.006867838 0.006312118 0.006820292 1000 1000 1000 0.005200771 0.004827005 0.005285266 0.005337324 0.005137134 1000 0.005200771 0.004827005 0.005285266 0.005337324 0.005137134 1000
lala 7 1.2 0 second 12 1 109 4 2.64 0.699997663497925 0 0 -1 0 0.004816467 0.004856102 0.005083455 0.005923802 0.006186454 1000 0.004816467 0.004856102 0.005083455 0.005923802 0.006186454 1000 0.007190209 0.007349355 0.007819605 0.007341668 0.007928346 1000 0.007190209 0.007349355 0.007819605 0.007341668 0.007928346 1000
lala 6 1.2 1 first 15 1 110 5 3.05 0.899997472763062 0 1 1 1 0.006427815 0.005494809 0.005691604 1000 1000 1000 0.006427815 0.005494809 0.005691604 1000 1000 1000 0.007960362 0.008522258 0.008467486 0.007983987 0.007917123 1000 0.007960362 0.008522258 0.008467486 0.007983987 0.007917123 1000
lala 8 1.2 0 second 10 1 111 6 5.16 0.479997873306274 1 0 -1 1 0.007555857 0.007031032 0.00675161 0.00736439 0.006898586 1000 0.007555857 0.007031032 0.00675161 0.00736439 0.006898586 1000 0.008109775 0.00732163 0.00767524 0.00736701 0.006804315 1000 0.008109775 0.00732163 0.00767524 0.00736701 0.006804315 1000
lala 8 1.2 1 first 12 1 112 4 3.84 0.319998025894165 0 0 1 1 0.007278058 0.006815229 0.006247182 1000 1000 1000 0.007278058 0.006815229 0.006247182 1000 1000 1000 0.009718872 0.009967038 0.00909747 0.009653717 0.009291814 1000 0.009718872 0.009967038 0.00909747 0.009653717 0.009291814 1000
lala 4 1.2 0 first 1 1 113 4 1.72 0.219998121261597 -1 1 -1 1 0.009555759 0.01116027 0.01251681 1000 1000 1000 0.009555759 0.01116027 0.01251681 1000 1000 1000 0.0124784 0.01297365 0.01305778 0.01234578 0.01275799 1000 0.0124784 0.01297365 0.01305778 0.01234578 0.01275799 1000
lala 7 1.2 0 second 15 1 114 5 1.85 0.679997682571411 0 1 -1 1 0.01157608 0.01123418 0.01151606 0.01132031 0.01204939 1000 0.01157608 0.01123418 0.01151606 0.01132031 0.01204939 1000 0.0138408 0.01327288 0.01294123 0.01300455 0.01283534 1000 0.0138408 0.01327288 0.01294123 0.01300455 0.01283534 1000
lala 8 1.2 0 second 7 1 115 4 1.72 0.559997797012329 1 1 -1 1 0.01230546 0.01356493 0.01382634 0.01450086 0.01368236 1000 0.01230546 0.01356493 0.01382634 0.01450086 0.01368236 1000 0.01291379 0.01357267 0.01339739 0.01313482 0.01236817 1000 0.01291379 0.01357267 0.01339739 0.01313482 0.01236817 1000
lala 7 1.2 1 second 6 1 116 4 5.04 0.759997606277466 1 0 1 0 0.01449069 0.01473762 0.01458307 0.01503742 0.01505269 1000 0.01449069 0.01473762 0.01458307 0.01503742 0.01505269 1000 0.01545153 0.01478149 0.01515981 0.01470199 0.01466645 1000 0.01545153 0.01478149 0.01515981 0.01470199 0.01466645 1000
lala 7 1.2 1 second 9 1 117 5 4.25 0.459997892379761 1 1 1 1 0.01689968 0.01689367 0.01731658 0.01680316 0.01716751 1000 0.01689968 0.01689367 0.01731658 0.01680316 0.01716751 1000 0.01599132 0.01545666 0.0148161 0.01496132 0.01535625 1000 0.01599132 0.01545666 0.0148161 0.01496132 0.01535625 1000
lala 8 1.2 0 second 15 1 118 5 3.05 0.859997510910034 0 1 -1 1 0.01715744 0.01710474 0.01656353 0.01745915 0.01797535 1000 0.01715744 0.01710474 0.01656353 0.01745915 0.01797535 1000 0.01614317 0.01501984 0.01632256 0.01431764 0.01255839 1000 0.01614317 0.01501984 0.01632256 0.01431764 0.01255839 1000
lala 10 0.6 1 second 13 1 119 4 3.52 0.779997587203979 0 1 1 0 0.01557839 0.01848715 0.01809952 0.01954598 0.01991381 1000 0.01557839 0.01848715 0.01809952 0.01954598 0.01991381 1000 0.01538737 0.01496589 0.01526383 0.01522418 0.01614008 1000 0.01538737 0.01496589 0.01526383 0.01522418 0.01614008 1000
lala 8 1.2 0 second 0 1 120 4 1.44 0.359997987747192 -1 0 -1 1 0.01948301 0.01916533 0.01860524 0.01916008 0.0191243 1000 0.01948301 0.01916533 0.01860524 0.01916008 0.0191243 1000 0.01822121 0.01916168 0.01975941 0.01945279 0.01989285 1000 0.01822121 0.01916168 0.01975941 0.01945279 0.01989285 1000
lala 8 1.2 1 second 11 1 121 6 4.380001 0.639997720718384 1 1 1 0 0.02142657 0.02074794 0.02109456 0.02091667 0.02016627 1000 0.02142657 0.02074794 0.02109456 0.02091667 0.02016627 1000 0.01854564 0.02016483 0.0198264 0.01904645 0.02152184 1000 0.01854564 0.02016483 0.0198264 0.01904645 0.02152184 1000
lala 4 1.2 0 second 16 1 122 6 2.76 0.679997682571411 0 0 -1 0 0.0199721 0.0194723 0.0209168 0.02024444 0.0199541 1000 0.0199721 0.0194723 0.0209168 0.02024444 0.0199541 1000 0.01847572 0.01863019 0.01933248 0.02011402 0.0199182 1000 0.01847572 0.01863019 0.01933248 0.02011402 0.0199182 1000
lala 8 1.2 1 second 6 1 123 4 3.84 0.459997892379761 1 0 1 0 0.02070861 0.02032628 0.01998773 0.02009193 0.01935223 1000 0.02070861 0.02032628 0.01998773 0.02009193 0.01935223 1000 0.02014774 0.02108669 0.02134315 0.02086129 0.02124994 1000 0.02014774 0.02108669 0.02134315 0.02086129 0.02124994 1000
lala 12 0.6 1 second 17 1 124 6 3.180001 0.659997701644897 0 1 1 1 0.02125974 0.02165449 0.02159178 0.02121506 0.02177119 1000 0.02125974 0.02165449 0.02159178 0.02121506 0.02177119 1000 0.02008525 0.02003145 0.01958382 0.02052073 0.0201363 1000 0.02008525 0.02003145 0.01958382 0.02052073 0.0201363 1000
lala 11 0.3 0 first 13 1 125 4 3.22 3.4799952507019 0 1 -1 1 0.02217037 0.02233414 0.02203058 1000 1000 1000 0.02217037 0.02233414 0.02203058 1000 1000 1000 0.02029097 0.02034864 0.02002979 0.01981838 0.02077745 1000 0.02029097 0.02034864 0.02002979 0.01981838 0.02077745 1000
lala 12 0.15 1 second 13 1 126 4 3.37 0.519997835159302 0 1 1 1 0.02031558 0.02009407 0.01944592 0.01925098 0.02039451 1000 0.02031558 0.02009407 0.01944592 0.01925098 0.02039451 1000 0.020838 0.02055181 0.02065912 0.02164079 0.02091083 1000 0.020838 0.02055181 0.02065912 0.02164079 0.02091083 1000
lala 6 1.2 1 first 14 1 127 5 4.5 0.39999794960022 0 0 1 1 0.02033737 0.02032297 0.02001841 1000 1000 1000 0.02033737 0.02032297 0.02001841 1000 1000 1000 0.02248792 0.02215128 0.02289478 0.02234714 0.02147228 1000 0.02248792 0.02215128 0.02289478 0.02234714 0.02147228 1000
lala 1 1.2 0 second 8 1 128 5 3.3 1.37999701499939 1 0 -1 0 0.02275696 0.02223578 0.02297658 0.02221126 0.02236345 1000 0.02275696 0.02223578 0.02297658 0.02221126 0.02236345 1000 0.02149172 0.0211865 0.02090605 0.02101391 0.02098061 1000 0.02149172 0.0211865 0.02090605 0.02101391 0.02098061 1000
lala 9 1.2 1 second 7 1 129 4 2.92 0.799997568130493 1 1 1 1 0.02151352 0.0208015 0.02083466 0.0204396 0.0208843 1000 0.02151352 0.0208015 0.02083466 0.0204396 0.0208843 1000 0.02060899 0.02084725 0.02014835 0.02055177 0.02038506 1000 0.02060899 0.02084725 0.02014835 0.02055177 0.02038506 1000
lala 5 1.2 1 first 5 1 130 6 5.580001 0.439997911453247 -1 1 1 0 0.01948948 0.01906133 0.01939495 1000 1000 1000 0.01948948 0.01906133 0.01939495 1000 1000 1000 0.01956811 0.01974132 0.01982971 0.01839555 0.01914215 1000 0.01956811 0.01974132 0.01982971 0.01839555 0.01914215 1000
lala 9 1.2 1 first 15 1 131 5 4.25 0.179998159408569 0 1 1 0 0.0199119 0.02034881 0.01870277 1000 1000 1000 0.0199119 0.02034881 0.01870277 1000 1000 1000 0.01998153 0.02013462 0.0207684 0.02055118 0.02082555 1000 0.01998153 0.02013462 0.0207684 0.02055118 0.02082555 1000
lala 9 1.2 1 first 3 1 132 5 4.25 0.219998121261597 -1 1 1 1 0.02056276 0.02013724 0.0200324 1000 1000 1000 0.02056276 0.02013724 0.0200324 1000 1000 1000 0.01860489 0.01924088 0.02022531 0.02202378 0.02207841 1000 0.01860489 0.01924088 0.02022531 0.02202378 0.02207841 1000
lala 13 0.075 1 second 13 1 133 4 3.295 0.439997911453247 0 1 1 0 0.02002573 0.02005187 0.02205078 0.02292064 0.0224233 1000 0.02002573 0.02005187 0.02205078 0.02292064 0.0224233 1000 0.02209531 0.0226444 0.02203439 0.02172372 0.02161854 1000 0.02209531 0.0226444 0.02203439 0.02172372 0.02161854 1000
lala 9 1.2 1 second 10 1 134 6 6.36 0.579997777938843 1 0 1 1 0.019902 0.02095347 0.02173479 0.02143246 0.02126181 1000 0.019902 0.02095347 0.02173479 0.02143246 0.02126181 1000 0.02255611 0.02263932 0.02338204 0.02263107 0.0219377 1000 0.02255611 0.02263932 0.02338204 0.02263107 0.0219377 1000
lala 14 0.075 1 first 13 1 135 4 3.22 2.09999656677246 0 1 1 1 0.02161375 0.02236873 0.02279209 1000 1000 1000 0.02161375 0.02236873 0.02279209 1000 1000 1000 0.02293243 0.02210955 0.02260727 0.02203304 0.02162083 1000 0.02293243 0.02210955 0.02260727 0.02203304 0.02162083 1000
lala 5 1.2 0 first 16 1 136 6 3.96 0.859997510910034 0 0 -1 1 0.02182735 0.02137683 0.02199928 1000 1000 1000 0.02182735 0.02137683 0.02199928 1000 1000 1000 0.01734426 0.01683282 0.01694026 0.01741169 0.0172568 1000 0.01734426 0.01683282 0.01694026 0.01741169 0.0172568 1000
lala 2 1.2 1 first 8 1 137 5 4.5 0.419997930526733 1 0 1 0 0.01963111 0.01831126 0.0189894 1000 1000 1000 0.01963111 0.01831126 0.0189894 1000 1000 1000 0.02011069 0.02054332 0.02039035 0.02037271 0.01931002 1000 0.02011069 0.02054332 0.02039035 0.02037271 0.01931002 1000
lala 6 1.2 1 second 16 1 138 6 5.16 0.379997968673706 0 0 1 0 0.02310198 0.02351257 0.02238606 0.02290712 0.02178676 1000 0.02310198 0.02351257 0.02238606 0.02290712 0.02178676 1000 0.02165114 0.02215204 0.02161607 0.02075732 0.02068708 1000 0.02165114 0.02215204 0.02161607 0.02075732 0.02068708 1000
lala 7 1.2 1 first 16 1 139 6 3.96 0.479997873306274 0 0 1 0 0.02244893 0.02223404 0.02304198 1000 1000 1000 0.02244893 0.02223404 0.02304198 1000 1000 1000 0.02146123 0.02106706 0.02111045 0.02144105 0.02092351 1000 0.02146123 0.02106706 0.02111045 0.02144105 0.02092351 1000
lala 9 1.2 0 first 0 1 140 4 2.64 0.439997911453247 -1 0 -1 1 0.02222911 0.02241424 0.0217485 1000 1000 1000 0.02222911 0.02241424 0.0217485 1000 1000 1000 0.021934 0.02194662 0.02127217 0.02131402 0.02238564 1000 0.021934 0.02194662 0.02127217 0.02131402 0.02238564 1000
lala 6 1.2 0 second 2 1 141 5 2.1 0.559997797012329 -1 0 -1 1 0.02259599 0.02439852 0.0240989 0.02377561 0.0227474 1000 0.02259599 0.02439852 0.0240989 0.02377561 0.0227474 1000 0.02110378 0.02120635 0.0224132 0.02280695 0.02339046 1000 0.02110378 0.02120635 0.0224132 0.02280695 0.02339046 1000
lala 10 0.6 1 second 7 1 142 4 2.32 1.93999671936035 1 1 1 0 0.0205211 0.02082141 0.0206816 0.02019898 0.02063567 1000 0.0205211 0.02082141 0.0206816 0.02019898 0.02063567 1000 0.02002571 0.01966045 0.01998973 0.02016362 0.02017686 1000 0.02002571 0.01966045 0.01998973 0.02016362 0.02017686 1000
lala 10 0.6 1 first 3 1 143 5 3.65 1.21999716758728 -1 1 1 1 0.01642594 0.01837368 0.01818874 1000 1000 1000 0.01642594 0.01837368 0.01818874 1000 1000 1000 0.01921494 0.0199112 0.01999401 0.01909986 0.01979126 1000 0.01921494 0.0199112 0.01999401 0.01909986 0.01979126 1000
lala 9 1.2 0 second 12 1 144 4 2.64 0.879997491836548 0 0 -1 1 0.02206489 0.02158034 0.0215104 0.02100912 0.02165058 1000 0.02206489 0.02158034 0.0215104 0.02100912 0.02165058 1000 0.02004275 0.02027268 0.02054976 0.01979507 0.01920516 1000 0.02004275 0.02027268 0.02054976 0.01979507 0.01920516 1000
lala 10 1.2 0 first 0 1 145 4 3.84 0.519997835159302 -1 0 -1 0 0.020758 0.02064512 0.02055263 1000 1000 1000 0.020758 0.02064512 0.02055263 1000 1000 1000 0.01860492 0.01680822 0.01482844 0.01663753 0.0161521 1000 0.01860492 0.01680822 0.01482844 0.01663753 0.0161521 1000
lala 15 0.075 1 first 13 1 146 4 3.145 0.519997835159302 0 1 1 1 0.01919626 0.01906649 0.02024255 1000 1000 1000 0.01919626 0.01906649 0.02024255 1000 1000 1000 0.02117432 0.021967 0.02194807 0.02229002 0.02192868 1000 0.02117432 0.021967 0.02194807 0.02229002 0.02192868 1000
lala 9 1.2 0 first 6 1 147 4 2.64 0.779997587203979 1 0 -1 0 0.02222999 0.02192007 0.0224399 1000 1000 1000 0.02222999 0.02192007 0.0224399 1000 1000 1000 0.02397783 0.02375218 0.02432961 0.02347319 0.02386011 1000 0.02397783 0.02375218 0.02432961 0.02347319 0.02386011 1000
lala 10 0.6 0 first 4 1 148 6 3.36 1.13999724388123 -1 0 -1 1 0.02141063 0.02222524 0.02288053 1000 1000 1000 0.02141063 0.02222524 0.02288053 1000 1000 1000 0.02473303 0.02477504 0.02413027 0.02456993 0.02402649 1000 0.02473303 0.02477504 0.02413027 0.02456993 0.02402649 1000
lala 16 0.15 1 first 13 1 149 4 2.995 0.479997873306274 0 1 1 1 0.02342356 0.02350611 0.02308845 1000 1000 1000 0.02342356 0.02350611 0.02308845 1000 1000 1000 0.02144274 0.02187403 0.02186991 0.02312905 0.02356184 1000 0.02144274 0.02187403 0.02186991 0.02312905 0.02356184 1000
lala 9 1.2 1 second 11 1 150 6 3.180001 0.539997816085815 1 1 1 0 0.02907813 0.03103688 0.02973326 0.02495515 0.01371678 1000 0.02907813 0.03103688 0.02973326 0.02495515 0.01371678 1000 0.006298367 0.008031062 0.007138071 0.009697762 0.01104261 1000 0.006298367 0.008031062 0.007138071 0.009697762 0.01104261 1000
lala 8 1.2 1 first 16 1 151 6 2.76 0.719997644424438 0 0 1 0 0.006120642 0.005818495 0.006346569 1000 1000 1000 0.006120642 0.005818495 0.006346569 1000 1000 1000 0.003712445 0.002878666 0.003314958 0.003962317 0.003799699 1000 0.003712445 0.002878666 0.003314958 0.003962317 0.003799699 1000
lala 10 0.6 1 second 10 1 152 6 5.76 0.179998159408569 1 0 1 1 0.00564121 0.005885923 0.006340522 0.005858869 0.006011889 1000 0.00564121 0.005885923 0.006340522 0.005858869 0.006011889 1000 0.003250338 0.003181648 0.003342669 0.002999149 0.003445099 1000 0.003250338 0.003181648 0.003342669 0.002999149 0.003445099 1000
lala 17 0.3 0 first 13 1 153 4 2.695 0.39999794960022 0 1 -1 1 0.002859683 0.002784116 0.003266085 1000 1000 1000 0.002859683 0.002784116 0.003266085 1000 1000 1000 0.004440826 0.004898074 0.004671804 0.004833506 0.005589975 1000 0.004440826 0.004898074 0.004671804 0.004833506 0.005589975 1000
lala 11 2.4 1 first 0 1 154 4 6.24 0.99999737739563 -1 0 1 0 0.004470509 0.005488303 0.004660345 1000 1000 1000 0.004470509 0.005488303 0.004660345 1000 1000 1000 0.006770131 0.007253252 0.007710383 0.007060627 0.007567666 1000 0.006770131 0.007253252 0.007710383 0.007060627 0.007567666 1000
lala 5 1.2 0 first 1 1 155 4 2.92 0.659997701644897 -1 1 -1 1 0.005948998 0.006561443 0.00645552 1000 1000 1000 0.005948998 0.006561443 0.00645552 1000 1000 1000 0.006073499 0.006763653 0.005952034 0.005208107 0.005910812 1000 0.006073499 0.006763653 0.005952034 0.005208107 0.005910812 1000
lala 12 1.2 1 second 0 1 156 4 5.04 0.439997911453247 -1 0 1 0 0.009583501 0.009570498 0.009124367 0.008458306 0.007087279 1000 0.009583501 0.009570498 0.009124367 0.008458306 0.007087279 1000 0.006521773 0.006767776 0.006877324 0.007112945 0.007629731 1000 0.006521773 0.006767776 0.006877324 0.007112945 0.007629731 1000
lala 13 1.2 0 first 0 1 157 4 3.84 1.57999682426453 -1 0 -1 1 0.008567484 0.009109226 0.009827688 1000 1000 1000 0.008567484 0.009109226 0.009827688 1000 1000 1000 0.006793454 0.006611862 0.007436841 0.007608964 0.007055569 1000 0.006793454 0.006611862 0.007436841 0.007608964 0.007055569 1000
lala 6 1.2 1 second 5 1 158 6 4.380001 0.39999794960022 -1 1 1 1 0.008595244 0.007763778 0.007847665 0.007635999 0.007095354 1000 0.008595244 0.007763778 0.007847665 0.007635999 0.007095354 1000 0.008167906 0.007846832 0.00799893 0.007806218 0.007812539 1000 0.008167906 0.007846832 0.00799893 0.007806218 0.007812539 1000
lala 3 1.2 0 second 8 1 159 5 3.3 0.599997758865356 1 0 -1 0 0.008613848 0.009332152 0.00877394 0.008699534 0.009142589 1000 0.008613848 0.009332152 0.00877394 0.008699534 0.009142589 1000 0.009106899 0.008533012 0.00890811 0.008202192 0.008112717 1000 0.009106899 0.008533012 0.00890811 0.008202192 0.008112717 1000
lala 11 0.6 0 second 3 1 160 5 3.05 0.519997835159302 -1 1 -1 1 0.009125196 0.009113071 0.009130259 0.009389522 0.009611107 1000 0.009125196 0.009113071 0.009130259 0.009389522 0.009611107 1000 0.009540127 0.009385291 0.008681165 0.008668776 0.008086957 1000 0.009540127 0.009385291 0.008681165 0.008668776 0.008086957 1000
lala 11 0.3 1 second 4 1 161 6 3.66 0.279998064041138 -1 0 1 0 0.009608558 0.009279436 0.009780725 0.0106426 0.0107762 1000 0.009608558 0.009279436 0.009780725 0.0106426 0.0107762 1000 0.009387418 0.01033177 0.009914985 0.009814149 0.01014371 1000 0.009387418 0.01033177 0.009914985 0.009814149 0.01014371 1000
lala 10 0.6 1 second 15 1 162 5 3.65 0.61999773979187 0 1 1 1 0.009890858 0.01030157 0.01122467 0.01116218 0.01076912 1000 0.009890858 0.01030157 0.01122467 0.01116218 0.01076912 1000 0.009180687 0.008344879 0.007858883 0.00815066 0.008002057 1000 0.009180687 0.008344879 0.007858883 0.00815066 0.008002057 1000
lala 10 2.4 0 second 11 1 163 6 1.98 0.699997663497925 1 1 -1 1 0.01024973 0.01007602 0.008532552 0.007477272 0.007851707 1000 0.01024973 0.01007602 0.008532552 0.007477272 0.007851707 1000 0.009341811 0.009495676 0.009501471 0.008584584 0.008129651 1000 0.009341811 0.009495676 0.009501471 0.008584584 0.008129651 1000
lala 10 0.6 1 first 6 1 164 4 3.24 1.05999732017517 1 0 1 0 0.01023609 0.009754606 0.01007212 1000 1000 1000 0.01023609 0.009754606 0.01007212 1000 1000 1000 0.01013823 0.009470428 0.009092448 0.008782323 0.008879726 1000 0.01013823 0.009470428 0.009092448 0.008782323 0.008879726 1000
lala 9 1.2 0 second 16 1 165 6 1.98 0.439997911453247 0 0 -1 1 0.0156496 0.01517204 0.01433327 0.01518405 0.01561646 1000 0.0156496 0.01517204 0.01433327 0.01518405 0.01561646 1000 0.01351343 0.01416519 0.01399619 0.01370288 0.0144296 1000 0.01351343 0.01416519 0.01399619 0.01370288 0.0144296 1000
lala 10 0.6 1 first 16 1 166 6 2.58 1.57999682426453 0 0 1 1 0.01508648 0.01497428 0.01434324 1000 1000 1000 0.01508648 0.01497428 0.01434324 1000 1000 1000 0.01261471 0.01338985 0.01311395 0.01328865 0.01394337 1000 0.01261471 0.01338985 0.01311395 0.01328865 0.01394337 1000
lala 14 0.6 1 second 0 1 167 4 4.44 0.339998006820679 -1 0 1 0 0.03069772 0.02606952 0.01409231 0.01893273 0.01927995 1000 0.03069772 0.02606952 0.01409231 0.01893273 0.01927995 1000 0.01771774 0.02039305 0.01916607 0.02011269 0.02177727 1000 0.01771774 0.02039305 0.01916607 0.02011269 0.02177727 1000
lala 12 0.3 1 first 3 1 168 5 3.35 0.559997797012329 -1 1 1 0 0.01133243 0.01219188 0.01189289 1000 1000 1000 0.01133243 0.01219188 0.01189289 1000 1000 1000 0.01018332 0.01116866 0.01077352 0.009959737 0.01055375 1000 0.01018332 0.01116866 0.01077352 0.009959737 0.01055375 1000
lala 11 0.6 1 first 15 1 169 5 3.05 0.819997549057007 0 1 1 1 0.01006794 0.01121464 0.01054439 1000 1000 1000 0.01006794 0.01121464 0.01054439 1000 1000 1000 0.01226671 0.01264097 0.01248305 0.01226814 0.01242092 1000 0.01226671 0.01264097 0.01248305 0.01226814 0.01242092 1000
lala 11 0.6 0 second 7 1 170 4 1.72 0.479997873306274 1 1 -1 0 0.01550866 0.01585327 0.01523881 0.01541278 0.01625197 1000 0.01550866 0.01585327 0.01523881 0.01541278 0.01625197 1000 0.01510881 0.01477481 0.01523137 0.01575373 0.01588519 1000 0.01510881 0.01477481 0.01523137 0.01575373 0.01588519 1000
lala 13 0.3 1 second 17 1 171 6 2.880001 0.459997892379761 0 1 1 0 0.01473433 0.01442374 0.01478647 0.01562126 0.01573767 1000 0.01473433 0.01442374 0.01478647 0.01562126 0.01573767 1000 0.01788665 0.01752966 0.01820296 0.01822078 0.01781331 1000 0.01788665 0.01752966 0.01820296 0.01822078 0.01781331 1000
lala 11 1.2 1 second 11 1 172 6 3.18 0.479997873306274 1 1 1 0 0.01780462 0.01872762 0.01929625 0.01876313 0.0195307 1000 0.01780462 0.01872762 0.01929625 0.01876313 0.0195307 1000 0.02045019 0.0195072 0.01964906 0.01744613 0.0175367 1000 0.02045019 0.0195072 0.01964906 0.01744613 0.0175367 1000
lala 12 0.6 1 first 15 1 173 5 2.45 0.739997625350952 0 1 1 0 0.01844946 0.01947439 0.01814743 1000 1000 1000 0.01844946 0.01947439 0.01814743 1000 1000 1000 0.01864718 0.01902263 0.01882122 0.0183255 0.01855933 1000 0.01864718 0.01902263 0.01882122 0.0183255 0.01855933 1000
lala 12 0.3 0 second 7 1 174 4 2.02 0.719997644424438 1 1 -1 1 0.02140232 0.02067411 0.02009927 0.02014736 0.01953626 1000 0.02140232 0.02067411 0.02009927 0.02014736 0.01953626 1000 0.01939882 0.02018009 0.02075766 0.02028506 0.02153472 1000 0.01939882 0.02018009 0.02075766 0.02028506 0.02153472 1000
lala 15 0.3 1 first 0 1 175 4 4.14 0.379997968673706 -1 0 1 0 0.02371427 0.02332183 0.02366078 1000 1000 1000 0.02371427 0.02332183 0.02366078 1000 1000 1000 0.01634737 0.01721699 0.01777041 0.01831836 0.01873343 1000 0.01634737 0.01721699 0.01777041 0.01831836 0.01873343 1000
lala 4 1.2 1 first 8 1 176 5 4.5 0.359997987747192 1 0 1 1 0.02005235 0.02059629 0.02104692 1000 1000 1000 0.02005235 0.02059629 0.02104692 1000 1000 1000 0.02172342 0.021955 0.02288283 0.02226191 0.02237844 1000 0.02172342 0.021955 0.02288283 0.02226191 0.02237844 1000
lala 11 0.3 0 second 6 1 177 4 2.94 1.75999689102173 1 0 -1 1 0.02164108 0.02017083 0.02026703 0.02004804 0.02008802 1000 0.02164108 0.02017083 0.02026703 0.02004804 0.02008802 1000 0.0187504 0.01940805 0.01918575 0.01940414 0.02004925 1000 0.0187504 0.01940805 0.01918575 0.01940414 0.02004925 1000
lala 10 0.6 1 first 12 1 178 4 3.24 0.439997911453247 0 0 1 1 0.02196512 0.02266321 0.0221937 1000 1000 1000 0.02196512 0.02266321 0.0221937 1000 1000 1000 0.02178892 0.0200605 0.02045295 0.02051789 0.02103578 1000 0.02178892 0.0200605 0.02045295 0.02051789 0.02103578 1000
lala 13 1.2 1 first 15 1 179 5 1.65 0.979997396469116 0 1 1 0 0.01810708 0.01492554 0.01559534 1000 1000 1000 0.01810708 0.01492554 0.01559534 1000 1000 1000 0.008671159 0.008825338 0.008892514 0.008815916 0.009620038 1000 0.008671159 0.008825338 0.008892514 0.008815916 0.009620038 1000
lala 14 2.4 0 second 15 1 180 5 1.65 0.739997625350952 0 1 -1 1 0.007878088 0.008011288 0.008046734 0.008362084 0.007203496 1000 0.007878088 0.008011288 0.008046734 0.008362084 0.007203496 1000 0.007919755 0.0073625 0.007140276 0.007442103 0.007130286 1000 0.007919755 0.0073625 0.007140276 0.007442103 0.007130286 1000
lala 12 0.15 1 first 6 1 181 4 3.09 0.539997816085815 1 0 1 0 0.009588973 0.009973388 0.009568546 1000 1000 1000 0.009588973 0.009973388 0.009568546 1000 1000 1000 0.008655455 0.008852768 0.00941343 0.009717794 0.009748105 1000 0.008655455 0.008852768 0.00941343 0.009717794 0.009748105 1000
lala 12 0.6 0 first 11 1 182 6 2.58 2.79999589920044 1 1 -1 0 0.01143899 0.01119299 0.01175228 1000 1000 1000 0.01143899 0.01119299 0.01175228 1000 1000 1000 0.009118571 0.009723545 0.01033939 0.01025395 0.009829398 1000 0.009118571 0.009723545 0.01033939 0.01025395 0.009829398 1000
lala 7 1.2 0 second 14 1 183 5 3.3 0.479997873306274 0 0 -1 1 0.007729759 0.008219777 0.008540337 0.008462647 0.008518671 1000 0.007729759 0.008219777 0.008540337 0.008462647 0.008518671 1000 0.0101237 0.0105472 0.01036793 0.01113453 0.01169452 1000 0.0101237 0.0105472 0.01036793 0.01113453 0.01169452 1000
lala 11 0.6 1 first 10 1 184 6 5.16 0.599997758865356 1 0 1 0 0.01200902 0.01259716 0.01184065 1000 1000 1000 0.01200902 0.01259716 0.01184065 1000 1000 1000 0.009414466 0.00974374 0.01133959 0.01090545 0.0108594 1000 0.009414466 0.00974374 0.01133959 0.01090545 0.0108594 1000
lala 18 0.15 1 first 13 1 185 4 2.845 0.659997701644897 0 1 1 0 0.01457389 0.01685018 0.01456513 1000 1000 1000 0.01457389 0.01685018 0.01456513 1000 1000 1000 0.01292661 0.01262036 0.01335031 0.01338892 0.01441066 1000 0.01292661 0.01262036 0.01335031 0.01338892 0.01441066 1000
lala 11 0.3 1 second 12 1 186 4 2.94 0.919997453689575 0 0 1 1 0.01681634 0.01723558 0.01638058 0.01788833 0.01716247 1000 0.01681634 0.01723558 0.01638058 0.01788833 0.01716247 1000 0.01536918 0.01565796 0.01627551 0.01634924 0.01721639 1000 0.01536918 0.01565796 0.01627551 0.01634924 0.01721639 1000
lala 15 1.2 1 second 15 1 187 5 2.85 0.879997491836548 0 1 1 1 0.01789622 0.01958908 0.02121131 0.02173549 0.02012768 1000 0.01789622 0.01958908 0.02121131 0.02173549 0.02012768 1000 0.01621807 0.0151885 0.01575914 0.01681222 0.01701736 1000 0.01621807 0.0151885 0.01575914 0.01681222 0.01701736 1000
lala 16 0.6 0 first 15 1 188 5 2.25 0.799997568130493 0 1 -1 0 0.004324259 0.006009359 0.009124387 1000 1000 1000 0.004324259 0.006009359 0.009124387 1000 1000 1000 0.009194382 0.01037632 0.01012295 0.01032118 0.009975665 1000 0.009194382 0.01037632 0.01012295 0.01032118 0.009975665 1000
lala 8 1.2 1 first 14 1 189 5 4.5 0.439997911453247 0 0 1 0 0.01459626 0.01359088 0.01428092 1000 1000 1000 0.01459626 0.01359088 0.01428092 1000 1000 1000 0.01445315 0.01479291 0.01567442 0.0168865 0.01655729 1000 0.01445315 0.01479291 0.01567442 0.0168865 0.01655729 1000
lala 19 0.075 0 second 13 1 190 4 2.77 0.659997701644897 0 1 -1 0 0.01717354 0.01835331 0.01861701 0.01812786 0.01810611 1000 0.01717354 0.01835331 0.01861701 0.01812786 0.01810611 1000 0.01955718 0.01987263 0.01910569 0.01838681 0.01886552 1000 0.01955718 0.01987263 0.01910569 0.01838681 0.01886552 1000
lala 13 0.075 0 second 6 1 191 4 3.015 0.39999794960022 1 0 -1 1 0.01746875 0.01641114 0.01783281 0.01830535 0.01884997 1000 0.01746875 0.01641114 0.01783281 0.01830535 0.01884997 1000 0.01780239 0.01854947 0.01891118 0.01927223 0.01978133 1000 0.01780239 0.01854947 0.01891118 0.01927223 0.01978133 1000
lala 12 0.6 1 second 10 1 192 6 4.56 0.579997777938843 1 0 1 1 0.01973946 0.02026177 0.02021704 0.01890653 0.01813533 1000 0.01973946 0.02026177 0.02021704 0.01890653 0.01813533 1000 0.01740602 0.01792042 0.01700535 0.01663799 0.01791716 1000 0.01740602 0.01792042 0.01700535 0.01663799 0.01791716 1000
lala 13 0.3 1 second 11 1 193 6 2.88 0.779997587203979 1 1 1 1 0.01881865 0.01876806 0.01826547 0.01821781 0.01932606 1000 0.01881865 0.01876806 0.01826547 0.01821781 0.01932606 1000 0.01673622 0.0161346 0.01647118 0.01604534 0.01652703 1000 0.01673622 0.0161346 0.01647118 0.01604534 0.01652703 1000
lala 14 0.3 0 first 17 1 194 6 2.580001 2.63999605178833 0 1 -1 0 0.01800475 0.01813827 0.01779233 1000 1000 1000 0.01800475 0.01813827 0.01779233 1000 1000 1000 0.01658167 0.01634303 0.01589273 0.01636008 0.01664258 1000 0.01658167 0.01634303 0.01589273 0.01636008 0.01664258 1000
lala 7 1.2 1 first 5 1 195 6 3.180001 1.13999724388123 -1 1 1 0 0.02021249 0.02098051 0.02159916 1000 1000 1000 0.02021249 0.02098051 0.02159916 1000 1000 1000 0.02454484 0.0237942 0.02373376 0.02308236 0.02346595 1000 0.02454484 0.0237942 0.02373376 0.02308236 0.02346595 1000
lala 16 0.3 0 first 0 1 196 4 3.84 0.39999794960022 -1 0 -1 0 0.0222906 0.02274933 0.02230912 1000 1000 1000 0.0222906 0.02274933 0.02230912 1000 1000 1000 0.02224913 0.02225619 0.02225713 0.02176345 0.02203757 1000 0.02224913 0.02225619 0.02225713 0.02176345 0.02203757 1000
lala 17 0.15 1 first 0 1 197 4 3.99 1.19999718666077 -1 0 1 1 0.02310553 0.02376864 0.02376141 1000 1000 1000 0.02310553 0.02376864 0.02376141 1000 1000 1000 0.006024082 0.007134311 0.004801383 0.00338524 0.002347897 1000 0.006024082 0.007134311 0.004801383 0.00338524 0.002347897 1000
lala 9 1.2 0 second 14 1 198 5 3.3 0.659997701644897 0 0 -1 1 -0.001256701 -0.003117683 -0.004087754 -0.0003099923 0.00109088 1000 -0.001256701 -0.003117683 -0.004087754 -0.0003099923 0.00109088 1000 0.00294987 0.002680507 0.0008388688 0.0034064 0.002471428 1000 0.00294987 0.002680507 0.0008388688 0.0034064 0.002471428 1000
lala 8 1.2 0 first 5 1 199 6 1.980001 0.279998064041138 -1 1 -1 1 0.003301624 0.003008473 0.005898575 1000 1000 1000 0.003301624 0.003008473 0.005898575 1000 1000 1000 0.006099861 0.0024519 0.004690447 0.003862824 0.003233155 1000 0.006099861 0.0024519 0.004690447 0.003862824 0.003233155 1000
lala 18 0.075 0 second 0 1 200 4 3.915 3.07999563217163 -1 0 -1 0 -0.004776839 -0.005270659 -0.005297114 -0.005083918 -0.005629308 1000 -0.004776839 -0.005270659 -0.005297114 -0.005083918 -0.005629308 1000 -0.004920487 -0.004816499 -0.005069534 -0.005005005 -0.004875606 1000 -0.004920487 -0.004816499 -0.005069534 -0.005005005 -0.004875606 1000
lala 12 0.15 1 first 4 1 201 6 3.51 0.519997835159302 -1 0 1 1 0.002761618 0.006732728 0.005872438 1000 1000 1000 0.002761618 0.006732728 0.005872438 1000 1000 1000 0.005847106 0.006760916 0.006036908 0.006668339 0.006417325 1000 0.005847106 0.006760916 0.006036908 0.006668339 0.006417325 1000
lala 15 0.15 1 second 17 1 202 6 2.730001 1.03999733924866 0 1 1 0 0.004545898 0.004478208 0.004101579 0.004063423 0.005856776 1000 0.004545898 0.004478208 0.004101579 0.004063423 0.005856776 1000 0.007164534 0.007748412 0.008157314 0.007936964 0.008872303 1000 0.007164534 0.007748412 0.008157314 0.007936964 0.008872303 1000
lala 9 1.2 0 first 5 1 203 6 3.180001 0.979997396469116 -1 1 -1 0 0.01382553 0.01385049 0.01470086 1000 1000 1000 0.01382553 0.01385049 0.01470086 1000 1000 1000 0.01599758 0.01534709 0.0151603 0.01600457 0.01638534 1000 0.01599758 0.01534709 0.0151603 0.01600457 0.01638534 1000
lala 17 0.3 0 second 15 1 204 5 2.55 0.739997625350952 0 1 -1 0 0.01642308 0.01698661 0.01759605 0.01762819 0.01726724 1000 0.01642308 0.01698661 0.01759605 0.01762819 0.01726724 1000 0.01880625 0.01779215 0.0180341 0.01871913 0.01868425 1000 0.01880625 0.01779215 0.0180341 0.01871913 0.01868425 1000
lala 13 1.2 1 second 10 1 205 6 3.36 0.519997835159302 1 0 1 0 0.03591017 0.05352058 0.06941101 0.07905546 0.08061419 1000 0.03591017 0.05352058 0.06941101 0.07905546 0.08061419 1000 0.06828345 0.05632322 0.04515704 0.03883222 0.0401473 1000 0.06828345 0.05632322 0.04515704 0.03883222 0.0401473 1000
lala 14 0.0375 0 second 6 1 206 4 3.0525 1.13999724388123 1 0 -1 0 0.006322265 0.008005626 0.009427634 0.009288946 0.00750221 1000 0.006322265 0.008005626 0.009427634 0.009288946 0.00750221 1000 6.996955E-05 -0.0002945458 0.0001261265 0.003021574 0.006663533 1000 6.996955E-05 -0.0002945458 0.0001261265 0.003021574 0.006663533 1000
lala 14 2.4 0 second 10 1 207 6 1.98 0.339998006820679 1 0 -1 1 0.01036712 0.00831752 0.008590827 0.007866045 0.005923661 1000 0.01036712 0.00831752 0.008590827 0.007866045 0.005923661 1000 0.005301938 0.002083227 0.004682221 0.00321373 0.004054976 1000 0.005301938 0.002083227 0.004682221 0.00321373 0.004054976 1000
lala 7 1.2 0 first 2 1 208 5 3.3 0.599997758865356 -1 0 -1 0 0.002917546 0.001242902 0.003219496 1000 1000 1000 0.002917546 0.001242902 0.003219496 1000 1000 1000 0.006708721 0.004511292 0.005356106 0.005386614 0.004311669 1000 0.006708721 0.004511292 0.005356106 0.005386614 0.004311669 1000
lala 18 0.3 1 second 15 1 209 5 2.85 0.359997987747192 0 1 1 0 0.006331272 0.005633082 0.004729595 0.005645262 0.003085686 1000 0.006331272 0.005633082 0.004729595 0.005645262 0.003085686 1000 0.004653726 0.002327576 0.004501458 0.004280952 0.003846216 1000 0.004653726 0.002327576 0.004501458 0.004280952 0.003846216 1000
lala 14 0.15 1 second 11 1 210 6 2.73 0.679997682571411 1 1 1 0 0.002187495 0.001547881 0.002512172 0.003367891 0.002409257 1000 0.002187495 0.001547881 0.002512172 0.003367891 0.002409257 1000 0.00467897 0.003416116 0.006601291 0.004958808 0.005766 1000 0.00467897 0.003416116 0.006601291 0.004958808 0.005766 1000
lala 15 0.0375 1 second 6 1 211 4 3.09 0.499997854232788 1 0 1 1 0.005435405 0.00809703 0.006861991 0.006587434 0.007224475 1000 0.005435405 0.00809703 0.006861991 0.006587434 0.007224475 1000 0.005561951 0.007930306 0.006118486 0.008252565 0.006161929 1000 0.005561951 0.007930306 0.006118486 0.008252565 0.006161929 1000
lala 13 0.15 0 first 3 1 212 5 3.2 0.479997873306274 -1 1 -1 0 0.006704403 0.008017344 0.007097358 1000 1000 1000 0.006704403 0.008017344 0.007097358 1000 1000 1000 0.008546816 0.00881837 0.01033304 0.009952055 0.01132107 1000 0.008546816 0.00881837 0.01033304 0.009952055 0.01132107 1000
lala 10 1.2 0 second 5 1 213 6 4.380001 0.499997854232788 -1 1 -1 0 0.0003874674 0.001792899 0.00220023 0.005542619 0.004348659 1000 0.0003874674 0.001792899 0.00220023 0.005542619 0.004348659 1000 0.00749418 0.004036842 0.004732656 0.004943828 0.005389458 1000 0.00749418 0.004036842 0.004732656 0.004943828 0.005389458 1000
lala 8 1.2 1 first 2 1 214 5 4.5 0.679997682571411 -1 0 1 1 0.008544201 0.008021227 0.009294257 1000 1000 1000 0.008544201 0.008021227 0.009294257 1000 1000 1000 0.01229303 0.01179322 0.01007433 0.009744158 0.007849874 1000 0.01229303 0.01179322 0.01007433 0.009744158 0.007849874 1000
lala 5 1.2 1 first 8 1 215 5 3.3 1.27999711036682 1 0 1 1 0.008802589 0.0115205 0.009769243 1000 1000 1000 0.008802589 0.0115205 0.009769243 1000 1000 1000 0.01123998 0.01204166 0.01437338 0.01311218 0.01428421 1000 0.01123998 0.01204166 0.01437338 0.01311218 0.01428421 1000
lala 13 0.3 0 first 7 1 216 4 2.32 0.419997930526733 1 1 -1 0 0.01321028 0.01412496 0.01143162 1000 1000 1000 0.01321028 0.01412496 0.01143162 1000 1000 1000 0.01140865 0.01316166 0.01217176 0.01446646 0.01678272 1000 0.01140865 0.01316166 0.01217176 0.01446646 0.01678272 1000
lala 8 1.2 1 second 9 1 217 5 3.05 0.359997987747192 1 1 1 0 0.01515636 0.01415497 0.01358587 0.01471701 0.01352305 1000 0.01515636 0.01415497 0.01358587 0.01471701 0.01352305 1000 0.01494894 0.01491865 0.01521558 0.01778895 0.01499149 1000 0.01494894 0.01491865 0.01521558 0.01778895 0.01499149 1000
lala 16 0.075 1 first 17 1 218 6 2.655001 0.799997568130493 0 1 1 1 0.01899886 0.01696574 0.01832715 1000 1000 1000 0.01899886 0.01696574 0.01832715 1000 1000 1000 0.01811354 0.01994229 0.015315 0.01464959 0.01437579 1000 0.01811354 0.01994229 0.015315 0.01464959 0.01437579 1000
lala 11 0.3 0 first 16 1 219 6 2.28 0.199998140335083 0 0 -1 1 0.01800621 0.01926965 0.01851063 1000 1000 1000 0.01800621 0.01926965 0.01851063 1000 1000 1000 0.01991425 0.0223315 0.02117275 0.02331839 0.02269159 1000 0.01991425 0.0223315 0.02117275 0.02331839 0.02269159 1000
lala 20 0.0375 1 second 13 1 220 4 2.8075 1.35999703407288 0 1 1 0 0.02308248 0.0262822 0.02740805 0.02721758 0.02278213 1000 0.02308248 0.0262822 0.02740805 0.02721758 0.02278213 1000 0.01375816 0.01424879 0.01527209 0.01622724 0.01674079 1000 0.01375816 0.01424879 0.01527209 0.01622724 0.01674079 1000
lala 15 1.2 0 first 10 1 221 6 3.18 1.93999671936035 1 0 -1 1 0.01393323 0.01509298 0.01712072 1000 1000 1000 0.01393323 0.01509298 0.01712072 1000 1000 1000 0.01172396 0.008902652 0.01147029 0.01015174 0.01158425 1000 0.01172396 0.008902652 0.01147029 0.01015174 0.01158425 1000
lala 14 0.075 0 second 3 1 222 5 3.275 0.39999794960022 -1 1 -1 1 0.01991436 0.02185941 0.02248029 0.02027833 0.0210261 1000 0.01991436 0.02185941 0.02248029 0.02027833 0.0210261 1000 0.01708522 0.0187874 0.01776224 0.01980061 0.02077455 1000 0.01708522 0.0187874 0.01776224 0.01980061 0.02077455 1000
lala 9 1.2 0 second 9 1 223 5 1.85 0.259998083114624 1 1 -1 0 0.01538014 0.01565958 0.0125463 0.01240698 0.01415697 1000 0.01538014 0.01565958 0.0125463 0.01240698 0.01415697 1000 0.01688902 0.0197853 0.01818923 0.02076823 0.01888199 1000 0.01688902 0.0197853 0.01818923 0.02076823 0.01888199 1000
lala 15 0.15 0 first 11 1 224 6 2.58 0.279998064041138 1 1 -1 1 0.01829502 0.01911468 0.01659156 1000 1000 1000 0.01829502 0.01911468 0.01659156 1000 1000 1000 0.01956042 0.02099871 0.02313364 0.02178757 0.02487199 1000 0.01956042 0.02099871 0.02313364 0.02178757 0.02487199 1000
lala 16 1.2 1 second 10 1 225 6 4.38 0.339998006820679 1 0 1 1 6.983053E-05 -0.007080843 -0.005862134 -0.005544452 -0.005422154 1000 6.983053E-05 -0.007080843 -0.005862134 -0.005544452 -0.005422154 1000 0.001812118 0.0001007554 0.001033316 -0.0005812161 -0.0007340442 1000 0.001812118 0.0001007554 0.001033316 -0.0005812161 -0.0007340442 1000
lala 13 0.15 1 first 4 1 226 6 3.359999 0.759997606277466 -1 0 1 1 0.004189459 0.003170846 0.002795744 1000 1000 1000 0.004189459 0.003170846 0.002795744 1000 1000 1000 0.005438567 0.004745935 0.007001277 0.006143106 0.006246359 1000 0.005438567 0.004745935 0.007001277 0.006143106 0.006246359 1000
lala 12 0.15 0 first 16 1 227 6 2.43 1.07999730110168 0 0 -1 1 0.01132701 0.01047851 0.01145459 1000 1000 1000 0.01132701 0.01047851 0.01145459 1000 1000 1000 0.01566407 0.01377426 0.01290701 0.01279046 0.01226925 1000 0.01566407 0.01377426 0.01290701 0.01279046 0.01226925 1000
lala 10 0.6 1 second 14 1 228 5 3.9 0.23999810218811 0 0 1 1 0.01193534 0.0108119 0.0119307 0.01145222 0.01174248 1000 0.01193534 0.0108119 0.0119307 0.01145222 0.01174248 1000 0.01470508 0.01467142 0.01592604 0.01312708 0.01413007 1000 0.01470508 0.01467142 0.01592604 0.01312708 0.01413007 1000
lala 21 0.01875 1 second 13 1 229 4 2.78875 0.559997797012329 0 1 1 0 0.0109732 0.01364955 0.01118197 0.0138339 0.0150838 1000 0.0109732 0.01364955 0.01118197 0.0138339 0.0150838 1000 0.01935747 0.01837235 0.01582227 0.01733963 0.01668631 1000 0.01935747 0.01837235 0.01582227 0.01733963 0.01668631 1000
lala 19 0.0375 1 first 0 1 230 4 3.9525 0.759997606277466 -1 0 1 1 0.01897135 0.02084737 0.02190651 1000 1000 1000 0.01897135 0.02084737 0.02190651 1000 1000 1000 0.01266921 0.01571256 0.01687847 0.01867475 0.01876291 1000 0.01266921 0.01571256 0.01687847 0.01867475 0.01876291 1000
lala 14 0.15 1 second 4 1 231 6 3.209999 0.839997529983521 -1 0 1 1 0.02015627 0.02036499 0.02064837 0.01982062 0.02278792 1000 0.02015627 0.02036499 0.02064837 0.01982062 0.02278792 1000 0.01885774 0.01999399 0.01733376 0.01839933 0.01858019 1000 0.01885774 0.01999399 0.01733376 0.01839933 0.01858019 1000
lala 10 0.6 0 second 9 1 232 5 2.45 0.719997644424438 1 1 -1 1 0.01674124 0.01747162 0.01729768 0.0202669 0.01868444 1000 0.01674124 0.01747162 0.01729768 0.0202669 0.01868444 1000 0.01876249 0.0171997 0.01893297 0.01928664 0.01970298 1000 0.01876249 0.0171997 0.01893297 0.01928664 0.01970298 1000
lala 6 1.2 1 first 8 1 233 5 2.1 2.25999641418457 1 0 1 1 0.02073657 0.01934182 0.0195189 1000 1000 1000 0.02073657 0.01934182 0.0195189 1000 1000 1000 0.02240957 0.0233423 0.0230114 0.02521455 0.02427234 1000 0.02240957 0.0233423 0.0230114 0.02521455 0.02427234 1000
lala 15 0.075 1 second 3 1 234 5 3.35 0.659997701644897 -1 1 1 1 0.01207964 0.01157871 0.01161581 0.01220811 0.01274852 1000 0.01207964 0.01157871 0.01161581 0.01220811 0.01274852 1000 0.01160995 0.01170572 0.01166134 0.01311208 0.01370891 1000 0.01160995 0.01170572 0.01166134 0.01311208 0.01370891 1000
lala 11 0.3 1 first 14 1 235 5 3.6 0.739997625350952 0 0 1 1 0.01527592 0.01527503 0.01499662 1000 1000 1000 0.01527592 0.01527503 0.01499662 1000 1000 1000 0.01703212 0.01735685 0.01744381 0.01751442 0.01805428 1000 0.01703212 0.01735685 0.01744381 0.01751442 0.01805428 1000
lala 17 0.6 0 first 10 1 236 6 3.78 1.35999703407288 1 0 -1 0 0.01659624 0.0169234 0.01751411 1000 1000 1000 0.01659624 0.0169234 0.01751411 1000 1000 1000 0.01999056 0.01996237 0.01971405 0.01981319 0.01893776 1000 0.01999056 0.01996237 0.01971405 0.01981319 0.01893776 1000
lala 17 0.075 1 second 17 1 237 6 2.580001 1.5399968624115 0 1 1 0 0.02055582 0.02171554 0.01915765 0.02073805 0.01882769 1000 0.02055582 0.02171554 0.01915765 0.02073805 0.01882769 1000 0.02050459 0.0202963 0.01881036 0.01916649 0.01766716 1000 0.02050459 0.0202963 0.01881036 0.01916649 0.01766716 1000
lala 11 0.6 1 first 9 1 238 5 3.05 1.23999714851379 1 1 1 1 0.02178149 0.01908467 0.02211635 1000 1000 1000 0.02178149 0.01908467 0.02211635 1000 1000 1000 0.007215174 0.007158652 0.00660241 0.008889712 0.01026514 1000 0.007215174 0.007158652 0.00660241 0.008889712 0.01026514 1000
lala 20 0.01875 1 second 0 1 239 4 3.93375 0.539997816085815 -1 0 1 0 0.0165907 0.01439223 0.01453754 0.01347626 0.01358138 1000 0.0165907 0.01439223 0.01453754 0.01347626 0.01358138 1000 0.012695 0.01124244 0.009869697 0.01069156 0.01133942 1000 0.012695 0.01124244 0.009869697 0.01069156 0.01133942 1000
lala 14 0.3 1 second 7 1 240 4 2.62 0.99999737739563 1 1 1 1 0.01064669 0.01065181 0.01026589 0.01013075 0.01081306 1000 0.01064669 0.01065181 0.01026589 0.01013075 0.01081306 1000 0.01205799 0.01158126 0.01188688 0.0113096 0.01087994 1000 0.01205799 0.01158126 0.01188688 0.0113096 0.01087994 1000
lala 21 0.01875 1 first 0 1 241 4 3.915 0.39999794960022 -1 0 1 0 0.009007301 0.008887554 0.00698109 1000 1000 1000 0.009007301 0.008887554 0.00698109 1000 1000 1000 0.008730723 0.003134411 -0.001231165 0.002550798 0.004957159 1000 0.008730723 0.003134411 -0.001231165 0.002550798 0.004957159 1000
lala 6 1.2 1 first 1 1 242 4 4.12 3.73999500274658 -1 1 1 1 0.002482556 0.001435049 0.003520129 1000 1000 1000 0.002482556 0.001435049 0.003520129 1000 1000 1000 0.004675673 0.004479409 0.003804731 0.00531195 0.004106717 1000 0.004675673 0.004479409 0.003804731 0.00531195 0.004106717 1000
lala 12 0.3 0 first 14 1 243 5 3.3 0.959997415542603 0 0 -1 1 0.007633276 0.007755361 0.007015841 1000 1000 1000 0.007633276 0.007755361 0.007015841 1000 1000 1000 0.00415724 0.005303119 0.00509425 0.006647976 0.006671413 1000 0.00415724 0.005303119 0.00509425 0.006647976 0.006671413 1000
lala 11 2.4 1 second 5 1 244 6 6.780001 0.339998006820679 -1 1 1 1 0.003832218 0.003130594 0.004079871 0.003643071 0.004364846 1000 0.003832218 0.003130594 0.004079871 0.003643071 0.004364846 1000 0.003586018 0.00377816 0.005256597 0.004089769 0.006182126 1000 0.003586018 0.00377816 0.005256597 0.004089769 0.006182126 1000
lala 16 0.0375 0 first 3 1 245 5 3.3125 0.0599982738494873 -1 1 -1 1 0.005323039 0.006595373 0.004822521 1000 1000 1000 0.005323039 0.006595373 0.004822521 1000 1000 1000 0.007459259 0.008210002 0.007405778 0.00736443 0.0073349 1000 0.007459259 0.008210002 0.007405778 0.00736443 0.0073349 1000
lala 22 0.01875 0 second 0 1 246 4 3.89625 0.459997892379761 -1 0 -1 1 0.007417914 0.006618894 0.009831687 0.007568577 0.008160174 1000 0.007417914 0.006618894 0.009831687 0.007568577 0.008160174 1000 0.01020685 0.01064842 0.01096146 0.00982742 0.01102244 1000 0.01020685 0.01064842 0.01096146 0.00982742 0.01102244 1000
lala 12 0.3 0 first 9 1 247 5 2.75 0.419997930526733 1 1 -1 0 0.01163565 0.01139902 0.01228238 1000 1000 1000 0.01163565 0.01139902 0.01228238 1000 1000 1000 0.01193483 0.01138998 0.01193365 0.01151177 0.01204358 1000 0.01193483 0.01138998 0.01193365 0.01151177 0.01204358 1000
lala 22 0.01875 0 first 13 1 248 4 2.77 0.739997625350952 0 1 -1 1 0.01008625 0.01132593 0.0106629 1000 1000 1000 0.01008625 0.01132593 0.0106629 1000 1000 1000 0.01340553 0.01545953 0.01512647 0.01606085 0.0166279 1000 0.01340553 0.01545953 0.01512647 0.01606085 0.0166279 1000
lala 17 0.01875 0 first 3 1 249 5 3.33125 0.299998044967651 -1 1 -1 0 0.01733546 0.01766224 0.01730484 1000 1000 1000 0.01733546 0.01766224 0.01730484 1000 1000 1000 0.01793568 0.01742915 0.01739723 0.01698264 0.0181353 1000 0.01793568 0.01742915 0.01739723 0.01698264 0.0181353 1000
lala 15 0.3 0 second 4 1 250 6 2.909999 0.179998159408569 -1 0 -1 0 0.008527353 0.005293157 0.005103952 0.005563598 0.006331437 1000 0.008527353 0.005293157 0.005103952 0.005563598 0.006331437 1000 0.008764363 0.008925142 0.009152406 0.01008174 0.009936055 1000 0.008764363 0.008925142 0.009152406 0.01008174 0.009936055 1000
lala 13 0.15 0 second 9 1 251 5 2.9 0.519997835159302 1 1 -1 1 0.01426202 0.01448245 0.01512147 0.01468419 0.01515855 1000 0.01426202 0.01448245 0.01512147 0.01468419 0.01515855 1000 0.01719609 0.01676707 0.01607273 0.01671879 0.01599904 1000 0.01719609 0.01676707 0.01607273 0.01671879 0.01599904 1000
lala 16 0.15 0 second 4 1 252 6 3.059999 0.439997911453247 -1 0 -1 1 0.01559926 0.0164916 0.01728559 0.01760578 0.01818453 1000 0.01559926 0.0164916 0.01728559 0.01760578 0.01818453 1000 0.01847624 0.01867021 0.01933524 0.01967583 0.0195343 1000 0.01847624 0.01867021 0.01933524 0.01967583 0.0195343 1000
lala 13 0.15 1 second 14 1 253 5 3.45 0.339998006820679 0 0 1 1 0.01821955 0.01851937 0.01763064 0.01891501 0.01672515 1000 0.01821955 0.01851937 0.01763064 0.01891501 0.01672515 1000 0.02027103 0.018969 0.01766558 0.0177601 0.01537178 1000 0.02027103 0.018969 0.01766558 0.0177601 0.01537178 1000
lala 9 1.2 0 first 2 1 254 5 3.3 0.339998006820679 -1 0 -1 0 0.01788545 0.01637267 0.01923523 1000 1000 1000 0.01788545 0.01637267 0.01923523 1000 1000 1000 0.0197951 0.01891185 0.01783658 0.01793615 0.01670225 1000 0.0197951 0.01891185 0.01783658 0.01793615 0.01670225 1000
lala 19 0.15 0 second 15 1 255 5 2.7 0.479997873306274 0 1 -1 0 0.01693711 0.0244797 0.02281715 0.02500804 0.02537293 1000 0.01693711 0.0244797 0.02281715 0.02500804 0.02537293 1000 0.007843119 0.00907347 0.00845855 0.008210675 0.009108673 1000 0.007843119 0.00907347 0.00845855 0.008210675 0.009108673 1000
lala 23 0.009375 0 second 0 1 256 4 3.905625 0.499997854232788 -1 0 -1 0 0.008852545 0.008709281 0.009620255 0.00974516 0.009984746 1000 0.008852545 0.008709281 0.009620255 0.00974516 0.009984746 1000 0.01138034 0.01133397 0.01043946 0.01071582 0.01140337 1000 0.01138034 0.01133397 0.01043946 0.01071582 0.01140337 1000
lala 13 0.15 0 second 16 1 257 6 2.58 0.259998083114624 0 0 -1 1 0.009750525 0.00999998 0.009833601 0.01027051 0.009782664 1000 0.009750525 0.00999998 0.009833601 0.01027051 0.009782664 1000 0.01077201 0.01178503 0.0120838 0.01205828 0.01155166 1000 0.01077201 0.01178503 0.0120838 0.01205828 0.01155166 1000
lala 20 0.075 0 first 15 1 258 5 2.775 1.35999703407288 0 1 -1 1 0.01256335 0.01236243 0.01157614 1000 1000 1000 0.01256335 0.01236243 0.01157614 1000 1000 1000 0.0108589 0.01227124 0.01297077 0.01247272 0.01426458 1000 0.0108589 0.01227124 0.01297077 0.01247272 0.01426458 1000
lala 12 1.2 1 first 5 1 259 6 5.580001 0.459997892379761 -1 1 1 0 0.01537912 0.01373856 0.01505586 1000 1000 1000 0.01537912 0.01373856 0.01505586 1000 1000 1000 0.01391233 0.01412675 0.01240999 0.01329921 0.01025947 1000 0.01391233 0.01412675 0.01240999 0.01329921 0.01025947 1000
lala 23 0.009375 1 first 13 1 260 4 2.779375 0.879997491836548 0 1 1 0 0.01293183 0.01414449 0.01210481 1000 1000 1000 0.01293183 0.01414449 0.01210481 1000 1000 1000 0.01205638 0.01308821 0.01334084 0.01316318 0.01492984 1000 0.01205638 0.01308821 0.01334084 0.01316318 0.01492984 1000
lala 10 0.6 1 first 2 1 261 5 3.9 0.639997720718384 -1 0 1 1 0.01525293 0.01399267 0.0146504 1000 1000 1000 0.01525293 0.01399267 0.0146504 1000 1000 1000 0.01602294 0.01606207 0.0145754 0.01619347 0.0147289 1000 0.01602294 0.01606207 0.0145754 0.01619347 0.0147289 1000
lala 11 0.3 1 second 2 1 262 5 3.6 0.479997873306274 -1 0 1 1 0.01626413 0.01477563 0.01665613 0.01633104 0.01472394 1000 0.01626413 0.01477563 0.01665613 0.01633104 0.01472394 1000 0.0148129 0.01326346 0.01488207 0.01359753 0.01570086 1000 0.0148129 0.01326346 0.01488207 0.01359753 0.01570086 1000
lala 7 1.2 0 second 8 1 263 5 1.65 0.899997472763062 1 0 -1 1 0.01356133 0.01517712 0.01505657 0.01753306 0.01807301 1000 0.01356133 0.01517712 0.01505657 0.01753306 0.01807301 1000 0.01425328 0.01531894 0.0120838 0.01390511 0.01325858 1000 0.01425328 0.01531894 0.0120838 0.01390511 0.01325858 1000
lala 12 0.3 1 second 12 1 264 4 2.64 7.50003671646118 0 0 1 0 0.01657809 0.01458564 0.0157942 0.01573326 0.01533461 1000 0.01657809 0.01458564 0.0157942 0.01573326 0.01533461 1000 0.01623786 0.01432408 0.01480151 0.01376738 0.0162325 1000 0.01623786 0.01432408 0.01480151 0.01376738 0.0162325 1000
lala 12 0.3 0 second 2 1 265 5 3.3 0.61999773979187 -1 0 -1 1 0.01839791 0.01647358 0.02165201 0.02206768 0.02106556 1000 0.01839791 0.01647358 0.02165201 0.02206768 0.02106556 1000 0.02813805 0.02648472 0.02762073 0.02640474 0.02828819 1000 0.02813805 0.02648472 0.02762073 0.02640474 0.02828819 1000
lala 7 1.2 0 first 1 1 266 4 2.92 0.39999794960022 -1 1 -1 1 0.007819611 0.01144676 0.01207788 1000 1000 1000 0.007819611 0.01144676 0.01207788 1000 1000 1000 0.008386849 0.008124324 0.007370624 0.007671002 0.008248082 1000 0.008386849 0.008124324 0.007370624 0.007671002 0.008248082 1000
lala 18 0.01875 1 first 3 1 267 5 3.35 1.01999735832214 -1 1 1 1 0.01291301 0.01376445 0.01412933 1000 1000 1000 0.01291301 0.01376445 0.01412933 1000 1000 1000 0.01235972 0.01200385 0.01240815 0.01236301 0.01174528 1000 0.01235972 0.01200385 0.01240815 0.01236301 0.01174528 1000
lala 15 0.15 0 second 7 1 268 4 2.47 0.23999810218811 1 1 -1 0 0.01390018 0.013719 0.01422792 0.01409891 0.0142822 1000 0.01390018 0.013719 0.01422792 0.01409891 0.0142822 1000 0.01322337 0.01350117 0.01336911 0.01347664 0.01274507 1000 0.01322337 0.01350117 0.01336911 0.01347664 0.01274507 1000
lala 18 0.3 1 first 10 1 269 6 4.08 0.359997987747192 1 0 1 0 0.01196758 0.01275506 0.01257061 1000 1000 1000 0.01196758 0.01275506 0.01257061 1000 1000 1000 0.01385083 0.01533376 0.01471311 0.01455408 0.01414037 1000 0.01385083 0.01533376 0.01471311 0.01455408 0.01414037 1000
lala 14 0.15 0 first 9 1 270 5 3.05 0.459997892379761 1 1 -1 0 0.01370997 0.01456228 0.01323916 1000 1000 1000 0.01370997 0.01456228 0.01323916 1000 1000 1000 0.01102231 0.01053049 0.01001278 0.01035966 0.01158933 1000 0.01102231 0.01053049 0.01001278 0.01035966 0.01158933 1000
lala 14 0.075 0 second 14 1 271 5 3.375 0.39999794960022 0 0 -1 1 0.01340801 0.01351281 0.01312538 0.01361571 0.01370733 1000 0.01340801 0.01351281 0.01312538 0.01361571 0.01370733 1000 0.0163004 0.01610648 0.01642539 0.01567965 0.01808141 1000 0.0163004 0.01610648 0.01642539 0.01567965 0.01808141 1000
lala 21 0.075 1 second 15 1 272 5 2.85 0.519997835159302 0 1 1 1 0.01351767 0.01446685 0.01403088 0.0131599 0.01411795 1000 0.01351767 0.01446685 0.01403088 0.0131599 0.01411795 1000 0.01387812 0.01576143 0.01379503 0.01485184 0.01327366 1000 0.01387812 0.01576143 0.01379503 0.01485184 0.01327366 1000
lala 8 1.2 0 second 8 1 273 5 2.85 0.879997491836548 1 0 -1 0 0.013676 0.01386702 0.01501927 0.01309794 0.01574497 1000 0.013676 0.01386702 0.01501927 0.01309794 0.01574497 1000 0.01547953 0.01790711 0.01758556 0.01798476 0.01871254 1000 0.01547953 0.01790711 0.01758556 0.01798476 0.01871254 1000
lala 18 0.075 1 first 17 1 274 6 2.505001 0.459997892379761 0 1 1 0 0.01767193 0.0161691 0.01763415 1000 1000 1000 0.01767193 0.0161691 0.01763415 1000 1000 1000 0.02157896 0.02087467 0.02014099 0.02034063 0.01957456 1000 0.02157896 0.02087467 0.02014099 0.02034063 0.01957456 1000
lala 19 0.009375 1 second 3 1 275 5 3.340625 0.559997797012329 -1 1 1 0 0.02080918 0.02249304 0.02367174 0.02295208 0.02464451 1000 0.02080918 0.02249304 0.02367174 0.02295208 0.02464451 1000 -0.005809916 -0.0195472 -0.02713927 -0.02733708 -0.02231941 1000 -0.005809916 -0.0195472 -0.02713927 -0.02733708 -0.02231941 1000
lala 14 0.15 0 first 16 1 276 6 2.73 0.719997644424438 0 0 -1 0 0.0001036198 0.001164785 0.00205049 1000 1000 1000 0.0001036198 0.001164785 0.00205049 1000 1000 1000 0.003870524 0.004113524 0.002565545 0.004741924 0.004507258 1000 0.003870524 0.004113524 0.002565545 0.004741924 0.004507258 1000
lala 15 0.3 1 first 16 1 277 6 3.03 1.33999705314636 0 0 1 1 0.01095157 0.01075178 0.00928635 1000 1000 1000 0.01095157 0.01075178 0.00928635 1000 1000 1000 0.01372223 0.01134187 0.01251527 0.01261896 0.01384992 1000 0.01372223 0.01134187 0.01251527 0.01261896 0.01384992 1000
lala 24 0.0046875 1 second 13 1 278 4 2.774688 0.639997720718384 0 1 1 1 0.01062037 0.01090538 0.01181546 0.01182972 0.01129519 1000 0.01062037 0.01090538 0.01181546 0.01182972 0.01129519 1000 0.01664379 0.01601272 0.0158445 0.01671951 0.01455913 1000 0.01664379 0.01601272 0.0158445 0.01671951 0.01455913 1000
lala 13 0.3 1 second 12 1 279 4 2.34 0.479997873306274 0 0 1 1 0.01370083 0.01314271 0.01493562 0.01444343 0.01319009 1000 0.01370083 0.01314271 0.01493562 0.01444343 0.01319009 1000 0.01607639 0.01482024 0.01632702 0.01577282 0.01627642 1000 0.01607639 0.01482024 0.01632702 0.01577282 0.01627642 1000
lala 16 0.01875 0 second 6 1 280 4 3.07125 0.519997835159302 1 0 -1 1 0.0151712 0.01681721 0.01470049 0.01686322 0.01580734 1000 0.0151712 0.01681721 0.01470049 0.01686322 0.01580734 1000 0.01339003 0.01281418 0.01046112 0.01207688 0.01122006 1000 0.01339003 0.01281418 0.01046112 0.01207688 0.01122006 1000
lala 9 1.2 1 first 8 1 281 5 4.05 0.479997873306274 1 0 1 0 0.01546311 0.01278614 0.01446739 1000 1000 1000 0.01546311 0.01278614 0.01446739 1000 1000 1000 0.01698694 0.01741666 0.01523336 0.01664032 0.01366326 1000 0.01698694 0.01741666 0.01523336 0.01664032 0.01366326 1000
lala 13 0.15 0 second 2 1 282 5 3.45 0.599997758865356 -1 0 -1 1 0.01725748 0.01812319 0.02014435 0.01860304 0.01891197 1000 0.01725748 0.01812319 0.02014435 0.01860304 0.01891197 1000 0.01742999 0.01921529 0.0186283 0.01859605 0.01863394 1000 0.01742999 0.01921529 0.0186283 0.01859605 0.01863394 1000
lala 15 0.0375 1 second 14 1 283 5 3.4125 0.479997873306274 0 0 1 1 0.02198685 0.0217637 0.02259222 0.02293241 0.02485019 1000 0.02198685 0.0217637 0.02259222 0.02293241 0.02485019 1000 0.01324405 0.01520754 0.01600865 0.0157195 0.01676111 1000 0.01324405 0.01520754 0.01600865 0.0157195 0.01676111 1000
lala 13 1.2 0 second 5 1 284 6 4.380001 0.99999737739563 -1 1 -1 0 0.01594093 0.0159845 0.01613649 0.01513154 0.01480405 1000 0.01594093 0.0159845 0.01613649 0.01513154 0.01480405 1000 0.0135323 0.01219604 0.01241933 0.01210989 0.01265336 1000 0.0135323 0.01219604 0.01241933 0.01210989 0.01265336 1000
lala 15 0.15 1 first 9 1 285 5 3.2 1.73999691009521 1 1 1 1 0.01499916 0.0147605 0.01433366 1000 1000 1000 0.01499916 0.0147605 0.01433366 1000 1000 1000 0.01324923 0.01421195 0.01223564 0.01331293 0.01382711 1000 0.01324923 0.01421195 0.01223564 0.01331293 0.01382711 1000
lala 17 0.009375 0 first 6 1 286 4 3.080625 0.579997777938843 1 0 -1 1 0.01433075 0.01353366 0.01356308 1000 1000 1000 0.01433075 0.01353366 0.01356308 1000 1000 1000 0.0115263 0.01317346 0.01236226 0.01339997 0.01296304 1000 0.0115263 0.01317346 0.01236226 0.01339997 0.01296304 1000
lala 14 0.6 1 first 5 1 287 6 4.980001 4.31999444961548 -1 1 1 0 0.01366507 0.01266915 0.01297488 1000 1000 1000 0.01366507 0.01266915 0.01297488 1000 1000 1000 0.01395227 0.01557907 0.01581708 0.01848341 0.01761162 1000 0.01395227 0.01557907 0.01581708 0.01848341 0.01761162 1000
lala 16 0.01875 1 first 14 1 288 5 3.39375 1.43999695777893 0 0 1 1 0.01259973 0.01373672 0.01466424 1000 1000 1000 0.01259973 0.01373672 0.01466424 1000 1000 1000 0.01528304 0.01956539 0.01949825 0.01705311 0.01632034 1000 0.01528304 0.01956539 0.01949825 0.01705311 0.01632034 1000
lala 19 0.15 1 second 10 1 289 6 3.93 0.499997854232788 1 0 1 1 0.01602103 0.01818113 0.01753084 0.01741991 0.01772342 1000 0.01602103 0.01818113 0.01753084 0.01741991 0.01772342 1000 0.01688236 0.0180889 0.01670394 0.01793671 0.01640796 1000 0.01688236 0.0180889 0.01670394 0.01793671 0.01640796 1000
lala 17 0.15 0 second 4 1 290 6 3.21 0.199998140335083 -1 0 -1 0 0.01762678 0.01742923 0.01866112 0.0183482 0.01880244 1000 0.01762678 0.01742923 0.01866112 0.0183482 0.01880244 1000 0.01608692 0.01760921 0.01628749 0.01831241 0.01798078 1000 0.01608692 0.01760921 0.01628749 0.01831241 0.01798078 1000
lala 24 0.009375 1 first 0 1 291 4 3.915 0.319998025894165 -1 0 1 0 0.01759188 0.01538924 0.01502429 1000 1000 1000 0.01759188 0.01538924 0.01502429 1000 1000 1000 0.01496862 0.01398861 0.01369583 0.01304534 0.01500483 1000 0.01496862 0.01398861 0.01369583 0.01304534 0.01500483 1000
lala 19 0.15 1 first 17 1 292 6 2.355001 0.899997472763062 0 1 1 1 0.01449895 0.01511852 0.01458737 1000 1000 1000 0.01449895 0.01511852 0.01458737 1000 1000 1000 0.01100604 0.01002926 0.01162063 0.009836889 0.01081565 1000 0.01100604 0.01002926 0.01162063 0.009836889 0.01081565 1000
lala 10 0.6 0 second 8 1 293 5 3.45 0.219998121261597 1 0 -1 1 0.01745621 0.01911363 0.01558255 0.01481972 0.01173097 1000 0.01745621 0.01911363 0.01558255 0.01481972 0.01173097 1000 0.01351994 0.01249614 0.01261544 0.01358509 0.01272316 1000 0.01351994 0.01249614 0.01261544 0.01358509 0.01272316 1000
lala 14 0.15 0 first 2 1 294 5 3.6 0.459997892379761 -1 0 -1 1 0.01140485 0.01194716 0.01259532 1000 1000 1000 0.01140485 0.01194716 0.01259532 1000 1000 1000 0.007513399 0.009627359 0.008511355 0.01114878 0.01006025 1000 0.007513399 0.009627359 0.008511355 0.01114878 0.01006025 1000
lala 11 0.3 0 first 8 1 295 5 3.75 0.99999737739563 1 0 -1 1 0.01385135 0.01356292 0.01240687 1000 1000 1000 0.01385135 0.01356292 0.01240687 1000 1000 1000 0.008728696 0.01063221 0.0163192 0.01578934 0.01202307 1000 0.008728696 0.01063221 0.0163192 0.01578934 0.01202307 1000
lala 20 0.15 1 first 10 1 296 6 3.78 0.559997797012329 1 0 1 1 0.02768831 0.03358346 0.03354752 1000 1000 1000 0.02768831 0.03358346 0.03354752 1000 1000 1000 0.01471854 0.0192677 0.01726845 0.01589015 0.01772008 1000 0.01471854 0.0192677 0.01726845 0.01589015 0.01772008 1000
lala 16 0.075 0 first 9 1 297 5 3.125 0.01999831199646 1 1 -1 0 0.01767586 0.02038428 0.01755022 1000 1000 1000 0.01767586 0.02038428 0.01755022 1000 1000 1000 0.01739573 0.01615379 0.01714955 0.01480899 0.01565137 1000 0.01739573 0.01615379 0.01714955 0.01480899 0.01565137 1000
lala 22 0.0375 0 first 15 1 298 5 2.8125 0.939997434616089 0 1 -1 1 0.01509986 0.01523767 0.01785653 1000 1000 1000 0.01509986 0.01523767 0.01785653 1000 1000 1000 0.01535971 0.01328736 0.01462631 0.01386683 0.0157623 1000 0.01535971 0.01328736 0.01462631 0.01386683 0.0157623 1000
lala 15 0.3 1 second 5 1 299 6 4.680001 0.319998025894165 -1 1 1 1 0.01883471 0.01920063 0.01764692 0.01895139 0.01624734 1000 0.01883471 0.01920063 0.01764692 0.01895139 0.01624734 1000 0.01957778 0.01937494 0.02112421 0.02069224 0.01974516 1000 0.01957778 0.01937494 0.02112421 0.02069224 0.01974516 1000
lala 8 1.2 0 second 1 1 300 4 4.12 0.659997701644897 -1 1 -1 1 0.02179907 0.02276115 0.02144657 0.02095411 0.01853155 1000 0.02179907 0.02276115 0.02144657 0.02095411 0.01853155 1000 0.02095568 0.02080933 0.02160549 0.02220673 0.02213134 1000 0.02095568 0.02080933 0.02160549 0.02220673 0.02213134 1000
lala 25 0.0046875 1 second 0 1 301 4 3.910313 0.639997720718384 -1 0 1 1 0.02059188 0.01953402 0.01856735 0.01834645 0.01877326 1000 0.02059188 0.01953402 0.01856735 0.01834645 0.01877326 1000 0.01773311 0.01750812 0.01765029 0.0172391 0.01635676 1000 0.01773311 0.01750812 0.01765029 0.0172391 0.01635676 1000
lala 16 0.3 1 second 5 1 302 6 4.380001 0.559997797012329 -1 1 1 1 0.01941691 0.01973368 0.01943283 0.01978261 0.02101338 1000 0.01941691 0.01973368 0.01943283 0.01978261 0.02101338 1000 0.0205027 0.02003307 0.01959026 0.01908845 0.01991835 1000 0.0205027 0.02003307 0.01959026 0.01908845 0.01991835 1000
lala 17 0.0375 0 first 9 1 303 5 3.1625 0.379997968673706 1 1 -1 1 0.01895148 0.01980293 0.01919751 1000 1000 1000 0.01895148 0.01980293 0.01919751 1000 1000 1000 0.02226076 0.0223677 0.0222535 0.02177892 0.0207852 1000 0.02226076 0.0223677 0.0222535 0.02177892 0.0207852 1000
lala 25 0.0046875 0 first 13 1 304 4 2.77 0.759997606277466 0 1 -1 1 0.02041741 0.02182396 0.0217185 1000 1000 1000 0.02041741 0.02182396 0.0217185 1000 1000 1000 0.02360323 0.02334518 0.02361094 0.02364878 0.02318072 1000 0.02360323 0.02334518 0.02361094 0.02364878 0.02318072 1000
lala 18 0.009375 0 first 6 1 305 4 3.09 0.479997873306274 1 0 -1 0 0.02342829 0.02469261 0.02424979 1000 1000 1000 0.02342829 0.02469261 0.02424979 1000 1000 1000 0.02082313 0.01906246 0.0176579 0.01689896 0.01672763 1000 0.02082313 0.01906246 0.0176579 0.01689896 0.01672763 1000
lala 18 0.15 0 first 4 1 306 6 3.36 0.379997968673706 -1 0 -1 1 0.01850674 0.01833747 0.01916125 1000 1000 1000 0.01850674 0.01833747 0.01916125 1000 1000 1000 0.02280064 0.02314814 0.02216295 0.02276886 0.02220288 1000 0.02280064 0.02314814 0.02216295 0.02276886 0.02220288 1000
lala 18 0.0375 0 second 9 1 307 5 3.2 0.479997873306274 1 1 -1 1 0.02227514 0.02251494 0.02273678 0.02323969 0.02288775 1000 0.02227514 0.02251494 0.02273678 0.02323969 0.02288775 1000 0.02251176 0.02349151 0.0243558 0.0242935 0.02470288 1000 0.02251176 0.02349151 0.0243558 0.0242935 0.02470288 1000
lala 19 0.0375 0 second 9 1 308 5 3.2375 1.27999711036682 1 1 -1 0 0.022394 0.02220766 0.02293841 0.02277633 0.02411316 1000 0.022394 0.02220766 0.02293841 0.02277633 0.02411316 1000 0.02423667 0.02322201 0.01876558 0.01418295 0.01130259 1000 0.02423667 0.02322201 0.01876558 0.01418295 0.01130259 1000
lala 16 0.15 0 second 16 1 309 6 2.88 0.439997911453247 0 0 -1 0 -0.001125295 0.0001219518 -0.0004566275 -0.004598877 -0.008426831 1000 -0.001125295 0.0001219518 -0.0004566275 -0.004598877 -0.008426831 1000 -0.008643142 -0.009167776 -0.009314005 -0.008521597 -0.008660781 1000 -0.008643142 -0.009167776 -0.009314005 -0.008521597 -0.008660781 1000
lala 19 0.3 0 first 4 1 310 6 3.66 0.439997911453247 -1 0 -1 0 -0.008023164 -0.01370513 -0.01229655 1000 1000 1000 -0.008023164 -0.01370513 -0.01229655 1000 1000 1000 -0.009301276 -0.008313014 -0.007893709 -0.008372454 -0.009775775 1000 -0.009301276 -0.008313014 -0.007893709 -0.008372454 -0.009775775 1000
lala 20 0.3 0 first 17 1 311 6 2.055001 0.559997797012329 0 1 -1 0 -0.009327818 -0.01223921 -0.0107404 1000 1000 1000 -0.009327818 -0.01223921 -0.0107404 1000 1000 1000 -0.009811307 -0.009715379 -0.008196729 -0.00786576 -0.007840034 1000 -0.009811307 -0.009715379 -0.008196729 -0.00786576 -0.007840034 1000
lala 9 1.2 1 second 1 1 312 4 5.32 0.299998044967651 -1 1 1 1 -0.004774026 -0.006353191 -0.007390568 -0.006127099 -0.006077616 1000 -0.004774026 -0.006353191 -0.007390568 -0.006127099 -0.006077616 1000 -0.005150355 -0.004813568 -0.004697308 -0.00481838 -0.00471318 1000 -0.005150355 -0.004813568 -0.004697308 -0.00481838 -0.00471318 1000
lala 21 0.15 0 first 10 1 313 6 3.63 0.519997835159302 1 0 -1 1 -0.004436433 -0.004674688 -0.005342912 1000 1000 1000 -0.004436433 -0.004674688 -0.005342912 1000 1000 1000 -0.004958575 -0.005014847 -0.004763292 -0.004523579 -0.004050105 1000 -0.004958575 -0.005014847 -0.004763292 -0.004523579 -0.004050105 1000
lala 14 0.6 0 first 12 1 314 4 1.74 0.519997835159302 0 0 -1 0 -0.005229016 -0.004833046 -0.004721035 1000 1000 1000 -0.005229016 -0.004833046 -0.004721035 1000 1000 1000 -0.004477187 -0.0046043 -0.004161719 -0.004259619 -0.00456627 1000 -0.004477187 -0.0046043 -0.004161719 -0.004259619 -0.00456627 1000
lala 16 0.075 0 second 7 1 315 4 2.545 0.319998025894165 1 1 -1 1 0.0001954802 -0.001018242 -0.0007800972 -0.001570659 -0.002014923 1000 0.0001954802 -0.001018242 -0.0007800972 -0.001570659 -0.002014923 1000 -0.002444791 -0.003183255 -0.003302423 -0.001668725 -0.001559363 1000 -0.002444791 -0.003183255 -0.003302423 -0.001668725 -0.001559363 1000
lala 20 0.6 1 first 4 1 316 6 4.26 0.379997968673706 -1 0 1 0 -0.001358907 -0.000928325 9.520432E-05 1000 1000 1000 -0.001358907 -0.000928325 9.520432E-05 1000 1000 1000 -0.0007042216 0.001706019 0.002841145 0.002883192 0.002764003 1000 -0.0007042216 0.001706019 0.002841145 0.002883192 0.002764003 1000
lala 12 0.3 1 first 8 1 317 5 4.05 0.439997911453247 1 0 1 1 0.003447954 0.002656889 0.003569473 1000 1000 1000 0.003447954 0.002656889 0.003569473 1000 1000 1000 0.004696653 0.004546782 0.005194454 0.004928169 0.0055814 1000 0.004696653 0.004546782 0.005194454 0.004928169 0.0055814 1000
lala 19 0.009375 1 first 6 1 318 4 3.099375 0.599997758865356 1 0 1 1 0.006371523 0.005949602 0.005199562 1000 1000 1000 0.006371523 0.005949602 0.005199562 1000 1000 1000 0.004879916 0.004577535 0.005116767 0.005523973 0.006011617 1000 0.004879916 0.004577535 0.005116767 0.005523973 0.006011617 1000
lala 23 0.01875 1 first 15 1 319 5 2.83125 0.679997682571411 0 1 1 0 0.005956636 0.006227523 0.005887885 1000 1000 1000 0.005956636 0.006227523 0.005887885 1000 1000 1000 0.007220921 0.00720468 0.006539127 0.006404277 0.005922507 1000 0.007220921 0.00720468 0.006539127 0.006404277 0.005922507 1000
lala 20 0.075 1 first 9 1 320 5 3.3125 0.639997720718384 1 1 1 1 0.003107557 0.00243829 0.00371461 1000 1000 1000 0.003107557 0.00243829 0.00371461 1000 1000 1000 0.006038325 0.006201674 0.0057839 0.005741071 0.006208369 1000 0.006038325 0.006201674 0.0057839 0.005741071 0.006208369 1000
lala 22 0.075 1 first 10 1 321 6 3.705 0.799997568130493 1 0 1 1 0.002324961 0.002986505 0.002612458 1000 1000 1000 0.002324961 0.002986505 0.002612458 1000 1000 1000 0.006215835 0.01013908 0.009906047 0.008374917 0.003311324 1000 0.006215835 0.01013908 0.009906047 0.008374917 0.003311324 1000
lala 17 0.075 0 first 16 1 322 6 2.955 0.319998025894165 0 0 -1 1 0.003694763 0.004319088 0.003934532 1000 1000 1000 0.003694763 0.004319088 0.003934532 1000 1000 1000 0.006579386 0.006446393 0.007555528 0.007649125 0.00759701 1000 0.006579386 0.006446393 0.007555528 0.007649125 0.00759701 1000
lala 17 0.075 0 second 7 1 323 4 2.62 0.679997682571411 1 1 -1 1 0.009411449 0.01023409 0.01022321 0.01233877 0.01220475 1000 0.009411449 0.01023409 0.01022321 0.01233877 0.01220475 1000 0.01187884 0.01281214 0.01284124 0.0128821 0.01367125 1000 0.01187884 0.01281214 0.01284124 0.0128821 0.01367125 1000
lala 26 0.00234375 1 second 13 1 324 4 2.772344 0.23999810218811 0 1 1 0 0.01115561 0.01226271 0.01371489 0.01329587 0.01344456 1000 0.01115561 0.01226271 0.01371489 0.01329587 0.01344456 1000 0.01218439 0.01220517 0.01336708 0.01305117 0.01442234 1000 0.01218439 0.01220517 0.01336708 0.01305117 0.01442234 1000
lala 20 0.0046875 1 second 6 1 325 4 3.094687 1.59999680519104 1 0 1 1 0.01464769 0.01634733 0.01782309 0.01701366 0.01719484 1000 0.01464769 0.01634733 0.01782309 0.01701366 0.01719484 1000 0.01581736 0.01529095 0.01707561 0.0165091 0.01603931 1000 0.01581736 0.01529095 0.01707561 0.0165091 0.01603931 1000
lala 27 0.001171875 1 first 13 1 326 4 2.771172 0.479997873306274 0 1 1 0 0.01827147 0.01792381 0.01807571 1000 1000 1000 0.01827147 0.01792381 0.01807571 1000 1000 1000 0.01893563 0.01870563 0.01828193 0.01771274 0.01818043 1000 0.01893563 0.01870563 0.01828193 0.01771274 0.01818043 1000
lala 23 0.0375 0 first 10 1 327 6 3.6675 1.23999714851379 1 0 -1 0 0.01789889 0.01717077 0.01772271 1000 1000 1000 0.01789889 0.01717077 0.01772271 1000 1000 1000 0.01900071 0.0204325 0.0196285 0.01989684 0.01937813 1000 0.01900071 0.0204325 0.0196285 0.01989684 0.01937813 1000
lala 16 0.075 0 first 11 1 328 6 2.655 0.719997644424438 1 1 -1 1 0.02011009 0.02173174 0.02431852 1000 1000 1000 0.02011009 0.02173174 0.02431852 1000 1000 1000 0.01679803 0.01866098 0.01799207 0.01816568 0.01805244 1000 0.01679803 0.01866098 0.01799207 0.01816568 0.01805244 1000
lala 18 0.075 1 first 7 1 329 4 2.695 0.579997777938843 1 1 1 0 0.02071808 0.02134842 0.01975538 1000 1000 1000 0.02071808 0.02134842 0.01975538 1000 1000 1000 0.01813135 0.01906508 0.01947545 0.0194686 0.01802809 1000 0.01813135 0.01906508 0.01947545 0.0194686 0.01802809 1000
lala 20 0.009375 0 second 3 1 330 5 3.33125 0.599997758865356 -1 1 -1 0 0.01869512 0.01718538 0.01454153 0.01553341 0.0133796 1000 0.01869512 0.01718538 0.01454153 0.01553341 0.0133796 1000 0.01047385 0.01178428 0.0120658 0.01325153 0.01273738 1000 0.01047385 0.01178428 0.0120658 0.01325153 0.01273738 1000
lala 17 0.01875 1 second 14 1 331 5 3.375 0.299998044967651 0 0 1 0 0.01071041 0.01057104 0.010202 0.01008105 0.009077207 1000 0.01071041 0.01057104 0.010202 0.01008105 0.009077207 1000 0.008093143 0.008478684 0.008965935 0.01033837 0.01007943 1000 0.008093143 0.008478684 0.008965935 0.01033837 0.01007943 1000
lala 24 0.01875 1 first 10 1 332 6 3.68625 0.639997720718384 1 0 1 1 0.01026159 0.01049923 0.009968713 1000 1000 1000 0.01026159 0.01049923 0.009968713 1000 1000 1000 0.009172512 0.009767906 0.008530506 0.009636293 0.009384618 1000 0.009172512 0.009767906 0.008530506 0.009636293 0.009384618 1000
lala 19 0.0375 0 first 7 1 333 4 2.6575 0.459997892379761 1 1 -1 1 0.01133797 0.01159032 0.0134995 1000 1000 1000 0.01133797 0.01159032 0.0134995 1000 1000 1000 0.01350332 0.01314588 0.01281641 0.01177262 0.01338282 1000 0.01350332 0.01314588 0.01281641 0.01177262 0.01338282 1000
