subject PestNr Step_Size_OnTrial Pest_Faster Pest_Interval Condition block trial velH velH_Pest Reaction_Time velH_Subject Start_Above Response_MotionEstimation RightOrLeftxRotations_first0 xRotations_first1 xRotations_first2 xRotations_first3 xRotations_first4 xRotations_first5 yRotations_first0 yRotations_first1 yRotations_first2 yRotations_first3 yRotations_first4 yRotations_first5 xRotations_second0 xRotations_second1 xRotations_second2 xRotations_second3 xRotations_second4 xRotations_second5 yRotations_second0 yRotations_second1 yRotations_second2 yRotations_second3 yRotations_second4 yRotations_second5
lala 1 1.2 1 second 1 1 1 4 5.32 1.05999732017517 -1 1 1 1 -0.001802168 -0.002582377 -0.003088234 -0.002727164 -0.002024899 1000 -0.001802168 -0.002582377 -0.003088234 -0.002727164 -0.002024899 1000 -0.003677244 -0.004392497 -0.0037079 -0.003558519 -0.003847196 1000 -0.003677244 -0.004392497 -0.0037079 -0.003558519 -0.003847196 1000
lala 1 1.2 1 first 11 1 2 6 7.98 0.799997568130493 1 1 1 1 -0.002735507 -0.001236954 -0.001263064 1000 1000 1000 -0.002735507 -0.001236954 -0.001263064 1000 1000 1000 -0.002293054 -0.002596001 -0.003249985 -0.002571773 -0.002492917 1000 -0.002293054 -0.002596001 -0.003249985 -0.002571773 -0.002492917 1000
lala 1 1.2 1 first 3 1 3 5 6.65 1.67999696731567 -1 1 1 0 -0.004771833 -0.006576417 -0.00642739 1000 1000 1000 -0.004771833 -0.006576417 -0.00642739 1000 1000 1000 -0.0156713 -0.01479361 -0.0125177 -0.009587482 -0.005419179 1000 -0.0156713 -0.01479361 -0.0125177 -0.009587482 -0.005419179 1000
lala 1 1.2 1 second 16 1 4 6 3.96 1.37999701499939 0 0 1 1 -0.003796849 -0.00347031 -0.003877528 -0.004494754 -0.003962697 1000 -0.003796849 -0.00347031 -0.003877528 -0.004494754 -0.003962697 1000 -0.005227446 -0.005555217 -0.005777031 -0.005858747 -0.005644016 1000 -0.005227446 -0.005555217 -0.005777031 -0.005858747 -0.005644016 1000
lala 1 1.2 1 first 9 1 5 5 6.65 1.19999718666077 1 1 1 1 -0.006525968 -0.006723792 -0.007148014 1000 1000 1000 -0.006525968 -0.006723792 -0.007148014 1000 1000 1000 -0.007017786 -0.00746496 -0.00622254 -0.006618472 -0.006771601 1000 -0.007017786 -0.00746496 -0.00622254 -0.006618472 -0.006771601 1000
lala 1 1.2 0 first 0 1 6 4 2.64 1.11999726295471 -1 0 -1 1 -0.006636794 -0.006761735 -0.006870039 1000 1000 1000 -0.006636794 -0.006761735 -0.006870039 1000 1000 1000 -0.008684939 -0.008438663 -0.008532681 -0.007901786 -0.006952664 1000 -0.008684939 -0.008438663 -0.008532681 -0.007901786 -0.006952664 1000
lala 2 1.2 1 first 3 1 7 5 5.45 1.91999673843384 -1 1 1 1 -0.007874263 -0.007768427 -0.007896492 1000 1000 1000 -0.007874263 -0.007768427 -0.007896492 1000 1000 1000 -0.008258064 -0.007649986 -0.007523553 -0.00694062 -0.005990807 1000 -0.008258064 -0.007649986 -0.007523553 -0.00694062 -0.005990807 1000
lala 1 1.2 1 first 7 1 8 4 5.32 1.81999683380127 1 1 1 1 -0.01120483 -0.01156783 -0.01043727 1000 1000 1000 -0.01120483 -0.01156783 -0.01043727 1000 1000 1000 -0.008478133 -0.008791691 -0.00790875 -0.006976189 -0.00706341 1000 -0.008478133 -0.008791691 -0.00790875 -0.006976189 -0.00706341 1000
lala 1 1.2 1 second 2 1 9 5 3.3 0.659997701644897 -1 0 1 1 -0.006963251 -0.007296982 -0.007166703 -0.007067193 -0.007068991 1000 -0.006963251 -0.007296982 -0.007166703 -0.007067193 -0.007068991 1000 -0.009741066 -0.00965444 -0.008841302 -0.008514149 -0.00861057 1000 -0.009741066 -0.00965444 -0.008841302 -0.008514149 -0.00861057 1000
lala 1 1.2 1 first 10 1 10 6 3.96 4.41999435424805 1 0 1 0 -0.006832059 -0.006275245 -0.006690157 1000 1000 1000 -0.006832059 -0.006275245 -0.006690157 1000 1000 1000 -0.008772003 -0.009342046 -0.009501854 -0.008543826 -0.00831517 1000 -0.008772003 -0.009342046 -0.009501854 -0.008543826 -0.00831517 1000
lala 2 1.2 0 first 0 1 11 4 3.84 5.05999374389648 -1 0 -1 1 -0.004281069 -0.003710493 -0.00363456 1000 1000 1000 -0.004281069 -0.003710493 -0.00363456 1000 1000 1000 -0.003667159 -0.004450653 -0.004524541 -0.005376939 -0.004382813 1000 -0.003667159 -0.004450653 -0.004524541 -0.005376939 -0.004382813 1000
lala 2 1.2 1 first 9 1 12 5 5.45 0.61999773979187 1 1 1 1 -0.001142307 -0.0009615344 -0.0012103 1000 1000 1000 -0.001142307 -0.0009615344 -0.0012103 1000 1000 1000 -0.000241392 0.0003007363 -0.000124743 -0.0001261 -0.0006893406 1000 -0.000241392 0.0003007363 -0.000124743 -0.0001261 -0.0006893406 1000
lala 1 1.2 0 first 12 1 13 4 2.64 0.659997701644897 0 0 -1 0 -0.0008316667 -0.001523608 -0.001375392 1000 1000 1000 -0.0008316667 -0.001523608 -0.001375392 1000 1000 1000 1.991628E-05 -0.0008405594 -0.0005473171 -0.0004254203 -0.0002150693 1000 1.991628E-05 -0.0008405594 -0.0005473171 -0.0004254203 -0.0002150693 1000
lala 2 1.2 0 second 2 1 14 5 2.1 0.759997606277466 -1 0 -1 1 -0.001147097 -0.001481408 -0.001245545 -0.00110424 -0.000266968 1000 -0.001147097 -0.001481408 -0.001245545 -0.00110424 -0.000266968 1000 -0.0004039466 -0.0001102648 0.0002957637 0.0001004237 -0.0001450088 1000 -0.0004039466 -0.0001102648 0.0002957637 0.0001004237 -0.0001450088 1000
lala 1 1.2 0 first 8 1 15 5 3.3 0.879997491836548 1 0 -1 0 -0.0004780247 -0.0005014296 -0.0009233385 1000 1000 1000 -0.0004780247 -0.0005014296 -0.0009233385 1000 1000 1000 -0.001805696 -0.001187885 -3.408876E-05 -0.001746364 -0.001948672 1000 -0.001805696 -0.001187885 -3.408876E-05 -0.001746364 -0.001948672 1000
lala 3 1.2 1 second 0 1 16 4 5.04 0.739997625350952 -1 0 1 1 0.0120384 0.008479391 0.002027657 0.00236301 0.006513958 1000 0.0120384 0.008479391 0.002027657 0.00236301 0.006513958 1000 0.004697137 0.006110996 0.008372437 0.009080539 0.008616832 1000 0.004697137 0.006110996 0.008372437 0.009080539 0.008616832 1000
lala 2 1.2 0 first 16 1 17 6 2.76 0.279998064041138 0 0 -1 0 0.01162449 0.01237657 0.01375508 1000 1000 1000 0.01162449 0.01237657 0.01375508 1000 1000 1000 0.01250964 0.01148443 0.01143213 0.01185346 0.01188419 1000 0.01250964 0.01148443 0.01143213 0.01185346 0.01188419 1000
lala 1 1.2 0 second 4 1 18 6 3.96 0.639997720718384 -1 0 -1 1 0.009297085 0.01036254 0.01038729 0.01106581 0.01140976 1000 0.009297085 0.01036254 0.01038729 0.01106581 0.01140976 1000 0.01061832 0.01024712 0.01144485 0.01178179 0.01222411 1000 0.01061832 0.01024712 0.01144485 0.01178179 0.01222411 1000
lala 1 1.2 1 first 6 1 19 4 2.64 0.879997491836548 1 0 1 1 0.009231026 0.01059136 0.01076099 1000 1000 1000 0.009231026 0.01059136 0.01076099 1000 1000 1000 0.01175554 0.01141005 0.01182615 0.01214575 0.01334414 1000 0.01175554 0.01141005 0.01182615 0.01214575 0.01334414 1000
lala 1 1.2 1 first 5 1 20 6 7.98 0.479997873306274 -1 1 1 1 0.01473427 0.01442271 0.01425427 1000 1000 1000 0.01473427 0.01442271 0.01425427 1000 1000 1000 0.009833962 0.01065246 0.01158614 0.01216479 0.01341823 1000 0.009833962 0.01065246 0.01158614 0.01216479 0.01341823 1000
lala 2 1.2 0 first 10 1 21 6 2.76 0.359997987747192 1 0 -1 1 0.01209866 0.01095357 0.01106434 1000 1000 1000 0.01209866 0.01095357 0.01106434 1000 1000 1000 0.007607178 0.007080674 0.007744867 0.008837841 0.009154841 1000 0.007607178 0.007080674 0.007744867 0.008837841 0.009154841 1000
lala 2 1.2 1 second 1 1 22 4 4.12 0.639997720718384 -1 1 1 1 0.009500853 0.009207914 0.009065493 0.008451684 0.009113092 1000 0.009500853 0.009207914 0.009065493 0.008451684 0.009113092 1000 0.01129186 0.01317523 0.0141432 0.01447752 0.01430725 1000 0.01129186 0.01317523 0.0141432 0.01447752 0.01430725 1000
lala 4 1.2 1 first 0 1 23 4 3.84 0.799997568130493 -1 0 1 1 0.01373596 0.01372628 0.01329113 1000 1000 1000 0.01373596 0.01372628 0.01329113 1000 1000 1000 0.009749729 0.01055909 0.009771437 0.009639305 0.01044845 1000 0.009749729 0.01055909 0.009771437 0.009639305 0.01044845 1000
lala 3 1.2 0 second 9 1 24 5 4.25 3.4799952507019 1 1 -1 1 0.01077621 0.01152105 0.01137446 0.01194013 0.012563 1000 0.01077621 0.01152105 0.01137446 0.01194013 0.012563 1000 0.01060906 0.009701668 0.009856611 0.01028458 0.01075749 1000 0.01060906 0.009701668 0.009856611 0.01028458 0.01075749 1000
lala 3 1.2 1 second 2 1 25 5 3.3 0.679997682571411 -1 0 1 1 0.002531792 0.001658378 0.004329104 0.007164355 0.009135952 1000 0.002531792 0.001658378 0.004329104 0.007164355 0.009135952 1000 0.005330956 0.005188341 0.00473696 0.005267711 0.004446072 1000 0.005330956 0.005188341 0.00473696 0.005267711 0.004446072 1000
lala 3 1.2 0 second 1 1 26 4 2.92 1.03999733924866 -1 1 -1 0 0.004818633 0.004592254 0.004367885 0.00412737 0.004525998 1000 0.004818633 0.004592254 0.004367885 0.00412737 0.004525998 1000 0.004130871 0.004919385 0.004964248 0.004678481 0.004985077 1000 0.004130871 0.004919385 0.004964248 0.004678481 0.004985077 1000
lala 4 1.2 0 second 1 1 27 4 4.12 1.25999712944031 -1 1 -1 0 0.004004421 0.003845816 0.003771724 0.003396445 0.003454632 1000 0.004004421 0.003845816 0.003771724 0.003396445 0.003454632 1000 0.001833612 0.002554432 0.002147857 0.001845415 0.0008133443 1000 0.001833612 0.002554432 0.002147857 0.001845415 0.0008133443 1000
lala 1 1.2 0 first 14 1 28 5 3.3 0.519997835159302 0 0 -1 1 0.00333401 0.003007998 0.0026035 1000 1000 1000 0.00333401 0.003007998 0.0026035 1000 1000 1000 0.002834507 0.001884725 0.001188865 0.00150596 0.002967173 1000 0.002834507 0.001884725 0.001188865 0.00150596 0.002967173 1000
lala 5 1.2 1 second 1 1 29 4 5.32 0.939997434616089 -1 1 1 1 0.00532183 0.005199101 0.005271419 0.004929525 0.005440903 1000 0.00532183 0.005199101 0.005271419 0.004929525 0.005440903 1000 0.004104762 0.004930557 0.004757347 0.004215237 0.003323631 1000 0.004104762 0.004930557 0.004757347 0.004215237 0.003323631 1000
lala 2 1.2 0 first 7 1 30 4 4.12 0.659997701644897 1 1 -1 0 0.003679616 0.004193581 0.003966124 1000 1000 1000 0.003679616 0.004193581 0.003966124 1000 1000 1000 0.002909302 0.00346643 0.003122556 0.003053092 0.002449944 1000 0.002909302 0.00346643 0.003122556 0.003053092 0.002449944 1000
lala 4 1.2 1 second 9 1 31 5 5.45 0.879997491836548 1 1 1 1 0.004323057 0.004562144 0.004680879 0.004281098 0.004235297 1000 0.004323057 0.004562144 0.004680879 0.004281098 0.004235297 1000 0.004255707 0.003927766 0.003571035 0.004356683 0.003863058 1000 0.004255707 0.003927766 0.003571035 0.004356683 0.003863058 1000
lala 1 1.2 1 second 13 1 32 4 5.32 2.51999616622925 0 1 1 1 0.002876047 0.003007587 0.003921803 0.003703814 0.003505602 1000 0.002876047 0.003007587 0.003921803 0.003703814 0.003505602 1000 0.002366778 0.002507114 0.002291621 0.002725912 0.002830136 1000 0.002366778 0.002507114 0.002291621 0.002725912 0.002830136 1000
lala 2 1.2 1 first 14 1 33 5 4.5 0.859997510910034 0 0 1 0 0.001884818 0.002110953 0.002391777 1000 1000 1000 0.001884818 0.002110953 0.002391777 1000 1000 1000 0.002856616 0.003648829 0.003606005 0.003508891 0.003599232 1000 0.002856616 0.003648829 0.003606005 0.003508891 0.003599232 1000
lala 5 1.2 0 first 0 1 34 4 2.64 0.819997549057007 -1 0 -1 0 0.003616292 0.003650518 0.004152189 1000 1000 1000 0.003616292 0.003650518 0.004152189 1000 1000 1000 0.006174332 0.00628248 0.00637713 0.006277005 0.006236421 1000 0.006174332 0.00628248 0.00637713 0.006277005 0.006236421 1000
lala 2 1.2 1 second 13 1 35 4 4.12 0.639997720718384 0 1 1 1 0.006336337 0.005367731 0.005823253 0.004964932 0.00552036 1000 0.006336337 0.005367731 0.005823253 0.004964932 0.00552036 1000 0.007063955 0.006957415 0.006594911 0.007189921 0.006937213 1000 0.007063955 0.006957415 0.006594911 0.007189921 0.006937213 1000
lala 3 1.2 1 second 3 1 36 5 4.25 1.17999720573425 -1 1 1 0 0.005792033 0.005126856 0.004865671 0.004237268 0.004439655 1000 0.005792033 0.005126856 0.004865671 0.004237268 0.004439655 1000 0.004237591 0.004709033 0.004817689 0.004876503 0.004771679 1000 0.004237591 0.004709033 0.004817689 0.004876503 0.004771679 1000
lala 3 1.2 0 second 16 1 37 6 3.96 1.57999682426453 0 0 -1 1 0.0074311 0.007657737 0.007008289 0.007305697 0.007500143 1000 0.0074311 0.007657737 0.007008289 0.007305697 0.007500143 1000 0.00725679 0.006892669 0.007406202 0.0071775 0.007773709 1000 0.00725679 0.006892669 0.007406202 0.0071775 0.007773709 1000
lala 1 1.2 1 second 17 1 38 6 7.98 0.779997587203979 0 1 1 1 0.007567913 0.00688789 0.007192704 0.008340115 0.008214041 1000 0.007567913 0.00688789 0.007192704 0.008340115 0.008214041 1000 0.009364251 0.009472653 0.009620093 0.009621422 0.01083247 1000 0.009364251 0.009472653 0.009620093 0.009621422 0.01083247 1000
lala 2 1.2 1 first 4 1 39 6 5.16 1.17999720573425 -1 0 1 1 0.01048131 0.01060721 0.009632942 1000 1000 1000 0.01048131 0.01060721 0.009632942 1000 1000 1000 0.01194538 0.01174347 0.01208353 0.01217466 0.01323645 1000 0.01194538 0.01174347 0.01208353 0.01217466 0.01323645 1000
lala 2 1.2 1 first 12 1 40 4 3.84 4.17999458312988 0 0 1 1 0.01599089 0.01514017 0.01584182 1000 1000 1000 0.01599089 0.01514017 0.01584182 1000 1000 1000 0.01940564 0.02049178 0.02269136 0.0224894 0.02208328 1000 0.01940564 0.02049178 0.02269136 0.0224894 0.02208328 1000
lala 2 1.2 0 second 6 1 41 4 1.44 0.879997491836548 1 0 -1 1 0.01362618 0.01351969 0.01268365 0.01118751 0.0108067 1000 0.01362618 0.01351969 0.01268365 0.01118751 0.0108067 1000 0.01311494 0.01316103 0.01260566 0.0130502 0.01360949 1000 0.01311494 0.01316103 0.01260566 0.0130502 0.01360949 1000
lala 4 1.2 0 first 16 1 42 6 5.16 0.879997491836548 0 0 -1 0 0.01185186 0.01351836 0.01389665 1000 1000 1000 0.01185186 0.01351836 0.01389665 1000 1000 1000 0.0158329 0.0153618 0.01621548 0.01611468 0.0165251 1000 0.0158329 0.0153618 0.01621548 0.01611468 0.0165251 1000
lala 2 1.2 1 second 5 1 43 6 6.780001 0.499997854232788 -1 1 1 0 0.01558086 0.01547179 0.0158338 0.01763897 0.0177779 1000 0.01558086 0.01547179 0.0158338 0.01763897 0.0177779 1000 0.01759984 0.01682184 0.01721388 0.0163049 0.01701764 1000 0.01759984 0.01682184 0.01721388 0.0163049 0.01701764 1000
lala 3 1.2 0 second 14 1 44 5 3.3 2.75999593734741 0 0 -1 1 0.01767091 0.01778971 0.01793851 0.01719275 0.0175406 1000 0.01767091 0.01778971 0.01793851 0.01719275 0.0175406 1000 0.01871797 0.01998917 0.02008507 0.01998811 0.01892414 1000 0.01871797 0.01998917 0.02008507 0.01998811 0.01892414 1000
lala 6 1.2 0 second 0 1 45 4 3.84 0.779997587203979 -1 0 -1 0 0.01812148 0.01774839 0.01732403 0.01661395 0.0168076 1000 0.01812148 0.01774839 0.01732403 0.01661395 0.0168076 1000 0.01768812 0.01862488 0.01869954 0.01870794 0.01826339 1000 0.01768812 0.01862488 0.01869954 0.01870794 0.01826339 1000
lala 2 1.2 1 first 8 1 46 5 4.5 0.379997968673706 1 0 1 0 0.02035708 0.01980292 0.01915253 1000 1000 1000 0.02035708 0.01980292 0.01915253 1000 1000 1000 0.01937591 0.01636246 0.01180662 0.0105515 0.01182222 1000 0.01937591 0.01636246 0.01180662 0.0105515 0.01182222 1000
lala 2 1.2 1 second 17 1 47 6 6.780001 0.939997434616089 0 1 1 0 0.008191735 0.008070431 0.007439864 0.008128748 0.007927764 1000 0.008191735 0.008070431 0.007439864 0.008128748 0.007927764 1000 0.007725433 0.007956484 0.008050778 0.00840707 0.008737542 1000 0.007725433 0.007956484 0.008050778 0.00840707 0.008737542 1000
lala 4 1.2 0 second 3 1 48 5 3.05 6.66001749038696 -1 1 -1 0 0.01063726 0.01079773 0.009966097 0.01005823 0.01015496 1000 0.01063726 0.01079773 0.009966097 0.01005823 0.01015496 1000 0.01107455 0.01054425 0.01140691 0.01189079 0.01312688 1000 0.01107455 0.01054425 0.01140691 0.01189079 0.01312688 1000
lala 1 1.2 1 second 15 1 49 5 6.65 0.679997682571411 0 1 1 1 0.02556168 0.02507705 0.02503759 0.02465173 0.0246868 1000 0.02556168 0.02507705 0.02503759 0.02465173 0.0246868 1000 0.02372949 0.02294428 0.0221682 0.02192359 0.0220351 1000 0.02372949 0.02294428 0.0221682 0.02192359 0.0220351 1000
lala 3 1.2 0 second 12 1 50 4 2.64 1.11999726295471 0 0 -1 1 -0.01847918 -0.01933451 -0.01792503 -0.01493319 -0.01463516 1000 -0.01847918 -0.01933451 -0.01792503 -0.01493319 -0.01463516 1000 -0.01762144 -0.01790779 -0.01835807 -0.01938633 -0.01975431 1000 -0.01762144 -0.01790779 -0.01835807 -0.01938633 -0.01975431 1000
lala 4 1.2 0 second 2 1 51 5 2.1 0.599997758865356 -1 0 -1 1 -0.02033809 -0.01960322 -0.01874751 -0.01844943 -0.01867446 1000 -0.02033809 -0.01960322 -0.01874751 -0.01844943 -0.01867446 1000 -0.02101968 -0.02117063 -0.02014018 -0.02006205 -0.02045595 1000 -0.02101968 -0.02117063 -0.02014018 -0.02006205 -0.02045595 1000
lala 3 1.2 0 first 5 1 52 6 5.580001 1.7199969291687 -1 1 -1 0 -0.02173812 -0.02153001 -0.02143177 1000 1000 1000 -0.02173812 -0.02153001 -0.02143177 1000 1000 1000 -0.02165522 -0.02112057 -0.02215381 -0.02219284 -0.02199721 1000 -0.02165522 -0.02112057 -0.02215381 -0.02219284 -0.02199721 1000
lala 3 1.2 1 first 4 1 53 6 3.96 0.479997873306274 -1 0 1 0 -0.01933229 -0.01926846 -0.01926858 1000 1000 1000 -0.01933229 -0.01926846 -0.01926858 1000 1000 1000 -0.01880451 -0.01779949 -0.01771753 -0.01769422 -0.018038 1000 -0.01880451 -0.01779949 -0.01771753 -0.01769422 -0.018038 1000
lala 3 1.2 1 second 7 1 54 4 5.32 1.31999707221985 1 1 1 1 -0.01799228 -0.01805799 -0.01828567 -0.01753584 -0.01758025 1000 -0.01799228 -0.01805799 -0.01828567 -0.01753584 -0.01758025 1000 -0.02318855 -0.02253389 -0.02287984 -0.02382736 -0.02341833 1000 -0.02318855 -0.02253389 -0.02287984 -0.02382736 -0.02341833 1000
lala 5 1.2 0 first 3 1 55 5 4.25 1.31999707221985 -1 1 -1 0 -0.02374895 -0.02308625 -0.02315192 1000 1000 1000 -0.02374895 -0.02308625 -0.02315192 1000 1000 1000 -0.02312284 -0.02265759 -0.02300865 -0.02245216 -0.02281005 1000 -0.02312284 -0.02265759 -0.02300865 -0.02245216 -0.02281005 1000
lala 5 1.2 0 first 2 1 56 5 3.3 1.45999693870544 -1 0 -1 1 -0.01015298 -0.004579452 -0.0009544679 1000 1000 1000 -0.01015298 -0.004579452 -0.0009544679 1000 1000 1000 0.01747539 0.01896734 0.01660387 0.01555211 0.01489283 1000 0.01747539 0.01896734 0.01660387 0.01555211 0.01489283 1000
lala 3 1.2 1 first 17 1 57 6 5.580001 2.31999635696411 0 1 1 1 0.01030956 0.009015977 0.009819201 1000 1000 1000 0.01030956 0.009015977 0.009819201 1000 1000 1000 0.01718173 0.01691637 0.0166503 0.01679059 0.01541742 1000 0.01718173 0.01691637 0.0166503 0.01679059 0.01541742 1000
lala 6 1.2 1 second 2 1 58 5 4.5 2.49999618530273 -1 0 1 1 0.01125837 0.01075962 0.01149498 0.01035535 0.009617022 1000 0.01125837 0.01075962 0.01149498 0.01035535 0.009617022 1000 0.006310577 0.005024092 0.004456965 0.006178706 0.005597591 1000 0.006310577 0.005024092 0.004456965 0.006178706 0.005597591 1000
lala 4 1.2 0 second 17 1 59 6 4.380001 2.09999656677246 0 1 -1 0 0.0033148 0.004146011 0.004014346 0.005013444 0.005221594 1000 0.0033148 0.004146011 0.004014346 0.005013444 0.005221594 1000 0.004267107 0.003637393 0.003853451 0.003566523 0.004786864 1000 0.004267107 0.003637393 0.003853451 0.003566523 0.004786864 1000
lala 6 1.2 0 second 1 1 60 4 4.12 8.50005960464478 -1 1 -1 0 0.006811331 0.007572235 0.007407657 0.008601024 0.009155132 1000 0.006811331 0.007572235 0.007407657 0.008601024 0.009155132 1000 0.006747877 0.005815374 0.00643483 0.005677338 0.006829546 1000 0.006747877 0.005815374 0.00643483 0.005677338 0.006829546 1000
lala 6 1.2 0 first 3 1 61 5 5.45 1.01999735832214 -1 1 -1 0 0.02039088 0.01894224 0.0171738 1000 1000 1000 0.02039088 0.01894224 0.0171738 1000 1000 1000 0.008882836 0.009376694 0.008160255 0.001363938 0.0004932696 1000 0.008882836 0.009376694 0.008160255 0.001363938 0.0004932696 1000
lala 7 1.2 1 second 3 1 62 5 6.65 0.599997758865356 -1 1 1 1 -0.002329687 0.001833586 0.00384002 0.006534911 0.004784187 1000 -0.002329687 0.001833586 0.00384002 0.006534911 0.004784187 1000 -0.002820364 -0.003404099 -0.002655855 -0.00249453 -0.003023292 1000 -0.002820364 -0.003404099 -0.002655855 -0.00249453 -0.003023292 1000
lala 4 1.2 0 first 4 1 63 6 2.76 0.759997606277466 -1 0 -1 1 -0.006794315 -0.006417572 -0.004928443 1000 1000 1000 -0.006794315 -0.006417572 -0.004928443 1000 1000 1000 -0.003357221 -0.004360281 -0.004432927 -0.004940991 -0.004230419 1000 -0.003357221 -0.004360281 -0.004432927 -0.004940991 -0.004230419 1000
lala 3 1.2 1 second 8 1 64 5 3.3 0.639997720718384 1 0 1 1 -0.005366795 -0.005205565 -0.005670589 -0.004832754 -0.005369668 1000 -0.005366795 -0.005205565 -0.005670589 -0.004832754 -0.005369668 1000 -0.006881599 -0.007259939 -0.007212174 -0.007377073 -0.007467153 1000 -0.006881599 -0.007259939 -0.007212174 -0.007377073 -0.007467153 1000
lala 5 1.2 0 first 16 1 65 6 6.36 6.60001611709595 0 0 -1 1 -0.005749201 -0.00566382 -0.006085211 1000 1000 1000 -0.005749201 -0.00566382 -0.006085211 1000 1000 1000 -0.007782733 -0.007027917 -0.007631825 -0.007964442 -0.008896035 1000 -0.007782733 -0.007027917 -0.007631825 -0.007964442 -0.008896035 1000
lala 5 1.2 1 second 17 1 66 6 5.580001 0.459997892379761 0 1 1 0 -0.01447125 -0.01547646 -0.01543183 -0.01604211 -0.01641681 1000 -0.01447125 -0.01547646 -0.01543183 -0.01604211 -0.01641681 1000 -0.01773127 -0.01774501 -0.01849439 -0.01848517 -0.01812778 1000 -0.01773127 -0.01774501 -0.01849439 -0.01848517 -0.01812778 1000
lala 4 1.2 1 second 5 1 67 6 6.780001 5.61999368667603 -1 1 1 0 -0.01818983 -0.01839023 -0.01867732 -0.01884784 -0.01920646 1000 -0.01818983 -0.01839023 -0.01867732 -0.01884784 -0.01920646 1000 -0.01852099 -0.01799574 -0.01786138 -0.01774386 -0.01744775 1000 -0.01852099 -0.01799574 -0.01786138 -0.01774386 -0.01744775 1000
lala 2 1.2 0 first 11 1 68 6 6.780001 10.0800957679749 1 1 -1 1 -0.01551316 -0.01552218 -0.01506935 1000 1000 1000 -0.01551316 -0.01552218 -0.01506935 1000 1000 1000 -0.01525556 -0.01477592 -0.01468346 -0.01477898 -0.01537375 1000 -0.01525556 -0.01477592 -0.01468346 -0.01477898 -0.01537375 1000
lala 7 1.2 0 second 2 1 69 5 3.3 0.61999773979187 -1 0 -1 1 -0.01192788 -0.01201226 -0.01212958 -0.01139308 -0.01124086 1000 -0.01192788 -0.01201226 -0.01212958 -0.01139308 -0.01124086 1000 -0.01347521 -0.01395642 -0.01370598 -0.01415851 -0.01392852 1000 -0.01347521 -0.01395642 -0.01370598 -0.01415851 -0.01392852 1000
lala 8 1.2 1 first 3 1 70 5 5.45 1.41999697685242 -1 1 1 1 -0.01352345 -0.01353263 -0.0138915 1000 1000 1000 -0.01352345 -0.01353263 -0.0138915 1000 1000 1000 -0.01358451 -0.01376314 -0.01350155 -0.01360794 -0.01370288 1000 -0.01358451 -0.01376314 -0.01350155 -0.01360794 -0.01370288 1000
lala 4 1.2 1 second 12 1 71 4 3.84 5.79999780654907 0 0 1 1 -0.01224425 -0.01188238 -0.01137089 -0.01199532 -0.01256946 1000 -0.01224425 -0.01188238 -0.01137089 -0.01199532 -0.01256946 1000 -0.013069 -0.01288783 -0.01261584 -0.01180982 -0.01135622 1000 -0.013069 -0.01288783 -0.01261584 -0.01180982 -0.01135622 1000
lala 4 1.2 0 first 8 1 72 5 2.1 0.499997854232788 1 0 -1 0 -0.01300622 -0.012336 -0.0122972 1000 1000 1000 -0.01300622 -0.012336 -0.0122972 1000 1000 1000 -0.01196046 -0.01097183 -0.01037816 -0.01083972 -0.01141472 1000 -0.01196046 -0.01097183 -0.01037816 -0.01083972 -0.01141472 1000
lala 6 1.2 0 first 17 1 73 6 4.380001 1.55999684333801 0 1 -1 0 -0.01360072 -0.01319485 -0.01315341 1000 1000 1000 -0.01360072 -0.01319485 -0.01315341 1000 1000 1000 -0.01062455 -0.01098095 -0.01137013 -0.01116168 -0.01078475 1000 -0.01062455 -0.01098095 -0.01137013 -0.01116168 -0.01078475 1000
lala 5 1.2 0 first 9 1 74 5 4.25 4.65999412536621 1 1 -1 0 -0.0111537 -0.01089004 -0.01031383 1000 1000 1000 -0.0111537 -0.01089004 -0.01031383 1000 1000 1000 -0.00879774 -0.008953534 -0.008968032 -0.008910424 -0.008791477 1000 -0.00879774 -0.008953534 -0.008968032 -0.008910424 -0.008791477 1000
lala 7 1.2 1 second 17 1 75 6 5.580001 2.77999591827393 0 1 1 1 -0.004727217 -0.003795474 -0.002949573 -0.003457722 -0.004062079 1000 -0.004727217 -0.003795474 -0.002949573 -0.003457722 -0.004062079 1000 -0.004765872 -0.005941416 -0.006098543 -0.005781443 -0.006200852 1000 -0.004765872 -0.005941416 -0.006098543 -0.005781443 -0.006200852 1000
lala 6 1.2 0 first 16 1 76 6 7.559999 0.699997663497925 0 0 -1 0 -0.002598594 -0.003109219 -0.003300579 1000 1000 1000 -0.002598594 -0.003109219 -0.003300579 1000 1000 1000 -0.002311626 -0.002176079 -0.002901984 -0.002683963 -0.003110926 1000 -0.002311626 -0.002176079 -0.002901984 -0.002683963 -0.003110926 1000
lala 5 1.2 0 second 12 1 77 4 2.64 0.739997625350952 0 0 -1 1 -0.005611284 -0.00574167 -0.005471877 -0.005668566 -0.005738397 1000 -0.005611284 -0.00574167 -0.005471877 -0.005668566 -0.005738397 1000 -0.005025369 -0.005025253 -0.004253895 -0.004382821 -0.004809992 1000 -0.005025369 -0.005025253 -0.004253895 -0.004382821 -0.004809992 1000
lala 7 1.2 0 first 0 1 78 4 5.04 0.679997682571411 -1 0 -1 0 -0.004938032 -0.005375899 -0.005635721 1000 1000 1000 -0.004938032 -0.005375899 -0.005635721 1000 1000 1000 -0.006170851 -0.006215629 -0.006473207 -0.006156186 -0.006210448 1000 -0.006170851 -0.006215629 -0.006473207 -0.006156186 -0.006210448 1000
lala 4 1.2 0 second 14 1 79 5 4.5 0.739997625350952 0 0 -1 0 -0.004945312 -0.004717787 -0.005172441 -0.005372391 -0.005944753 1000 -0.004945312 -0.004717787 -0.005172441 -0.005372391 -0.005944753 1000 -0.007236493 -0.007341043 -0.006590935 -0.006106304 -0.006242468 1000 -0.007236493 -0.007341043 -0.006590935 -0.006106304 -0.006242468 1000
lala 3 1.2 0 second 13 1 80 4 2.92 0.499997854232788 0 1 -1 1 -0.004201255 -0.004754713 -0.004450191 -0.003962622 -0.004457572 1000 -0.004201255 -0.004754713 -0.004450191 -0.003962622 -0.004457572 1000 -0.004794447 -0.004868378 -0.004463939 -0.004351472 -0.003509178 1000 -0.004794447 -0.004868378 -0.004463939 -0.004351472 -0.003509178 1000
lala 5 1.2 0 second 14 1 81 5 5.7 6.98002481460571 0 0 -1 0 -3.059895E-05 4.318511E-05 -0.0001671832 -0.0005860511 -0.0004750885 1000 -3.059895E-05 4.318511E-05 -0.0001671832 -0.0005860511 -0.0004750885 1000 -0.001653623 -0.001702626 -0.0009531728 -0.0007668733 -0.0006457966 1000 -0.001653623 -0.001702626 -0.0009531728 -0.0007668733 -0.0006457966 1000
lala 7 1.2 0 second 1 1 82 4 5.32 1.31999707221985 -1 1 -1 0 -0.00345937 -0.004058247 -0.004416614 -0.005831318 -0.005933893 1000 -0.00345937 -0.004058247 -0.004416614 -0.005831318 -0.005933893 1000 -0.01433842 -0.01281239 -0.01173332 -0.01056757 -0.01038464 1000 -0.01433842 -0.01281239 -0.01173332 -0.01056757 -0.01038464 1000
lala 3 1.2 1 first 11 1 83 6 7.98 1.49999690055847 1 1 1 0 -0.0201253 -0.0199684 -0.0196903 1000 1000 1000 -0.0201253 -0.0199684 -0.0196903 1000 1000 1000 -0.01056678 -0.009990139 -0.008723959 -0.007834006 -0.006703772 1000 -0.01056678 -0.009990139 -0.008723959 -0.007834006 -0.006703772 1000
lala 2 1.2 1 first 15 1 84 5 5.45 1.19999718666077 0 1 1 1 -0.007306154 -0.007423089 -0.007177055 1000 1000 1000 -0.007306154 -0.007423089 -0.007177055 1000 1000 1000 -0.01040323 -0.01101253 -0.01210586 -0.01243428 -0.01273167 1000 -0.01040323 -0.01101253 -0.01210586 -0.01243428 -0.01273167 1000
lala 5 1.2 0 first 4 1 85 6 3.96 0.339998006820679 -1 0 -1 1 -0.00803584 -0.004685936 -0.003090744 1000 1000 1000 -0.00803584 -0.004685936 -0.003090744 1000 1000 1000 -0.005042487 -0.004917231 -0.004683429 -0.005181613 -0.004859044 1000 -0.005042487 -0.004917231 -0.004683429 -0.005181613 -0.004859044 1000
lala 8 1.2 0 first 0 1 86 4 6.24 1.29999709129334 -1 0 -1 1 -0.007969914 -0.008056613 -0.008355509 1000 1000 1000 -0.007969914 -0.008056613 -0.008355509 1000 1000 1000 -0.005739789 -0.005886307 -0.005183811 -0.005411531 -0.005260895 1000 -0.005739789 -0.005886307 -0.005183811 -0.005411531 -0.005260895 1000
lala 3 1.2 1 second 10 1 87 6 3.96 0.599997758865356 1 0 1 1 -0.000703076 -0.002255948 -0.004283168 -0.006333742 -0.006581359 1000 -0.000703076 -0.002255948 -0.004283168 -0.006333742 -0.006581359 1000 -0.00679446 -0.008231481 -0.009084893 -0.006078691 -0.004497954 1000 -0.00679446 -0.008231481 -0.009084893 -0.006078691 -0.004497954 1000
lala 8 1.2 0 second 17 1 88 6 4.380001 0.559997797012329 0 1 -1 0 -0.01912427 -0.01495206 -0.01066396 -0.01031401 -0.009041549 1000 -0.01912427 -0.01495206 -0.01066396 -0.01031401 -0.009041549 1000 -0.009720917 -0.009454759 -0.009586977 -0.01040463 -0.01014792 1000 -0.009720917 -0.009454759 -0.009586977 -0.01040463 -0.01014792 1000
lala 8 1.2 1 second 1 1 89 4 6.52 0.699997663497925 -1 1 1 0 -0.007248998 -0.007522516 -0.006912896 -0.006207903 -0.004741259 1000 -0.007248998 -0.007522516 -0.006912896 -0.006207903 -0.004741259 1000 -0.003918048 -0.003505468 -0.00356358 -0.003955127 -0.003914208 1000 -0.003918048 -0.003505468 -0.00356358 -0.003955127 -0.003914208 1000
lala 3 1.2 1 second 15 1 90 5 4.25 1.5399968624115 0 1 1 1 -0.003326844 -0.002924741 -0.002746053 -0.003547353 -0.003601777 1000 -0.003326844 -0.002924741 -0.002746053 -0.003547353 -0.003601777 1000 -0.003349544 -0.003146743 -0.002409296 -0.002357915 -0.001304924 1000 -0.003349544 -0.003146743 -0.002409296 -0.002357915 -0.001304924 1000
lala 9 1.2 1 first 0 1 91 4 7.44 2.7399959564209 -1 0 1 1 0.0001964203 4.376211E-06 0.0003669418 1000 1000 1000 0.0001964203 4.376211E-06 0.0003669418 1000 1000 1000 0.00123196 0.001238651 0.003105248 0.003061271 0.002833993 1000 0.00123196 0.001238651 0.003105248 0.003061271 0.002833993 1000
lala 7 1.2 1 first 16 1 92 6 8.759999 1.31999707221985 0 0 1 1 0.009215914 0.008912878 0.008701633 1000 1000 1000 0.009215914 0.008912878 0.008701633 1000 1000 1000 0.007748484 0.008199712 0.008261273 0.00847485 0.00895844 1000 0.007748484 0.008199712 0.008261273 0.00847485 0.00895844 1000
lala 8 1.2 0 first 2 1 93 5 4.5 1.57999682426453 -1 0 -1 1 0.004584914 0.008637177 0.001454606 1000 1000 1000 0.004584914 0.008637177 0.001454606 1000 1000 1000 0.009204519 0.003116483 -0.001431381 0.002948881 0.007407648 1000 0.009204519 0.003116483 -0.001431381 0.002948881 0.007407648 1000
lala 5 1.2 1 first 5 1 94 6 5.580001 4.81999397277832 -1 1 1 1 -0.002041657 -0.01263906 -0.01456621 1000 1000 1000 -0.002041657 -0.01263906 -0.01456621 1000 1000 1000 -0.003897982 -0.003669225 -0.005587644 -0.007434029 -0.008914293 1000 -0.003897982 -0.003669225 -0.005587644 -0.007434029 -0.008914293 1000
lala 4 1.2 0 first 10 1 95 6 2.76 1.5399968624115 1 0 -1 0 -0.0006354991 0.0003824615 0.0007126754 1000 1000 1000 -0.0006354991 0.0003824615 0.0007126754 1000 1000 1000 -0.003410174 -0.00166172 -0.001011429 -0.001227817 -0.002769926 1000 -0.003410174 -0.00166172 -0.001011429 -0.001227817 -0.002769926 1000
lala 6 1.2 0 second 12 1 96 4 3.84 1.41999697685242 0 0 -1 0 0.001995713 0.001973583 0.002826157 0.00453526 0.006421904 1000 0.001995713 0.001973583 0.002826157 0.00453526 0.006421904 1000 0.009919874 0.008793521 0.00921649 0.008853016 0.008697998 1000 0.009919874 0.008793521 0.00921649 0.008853016 0.008697998 1000
lala 5 1.2 0 first 10 1 97 6 3.96 1.03999733924866 1 0 -1 0 0.001755185 -0.007600085 -0.00529545 1000 1000 1000 0.001755185 -0.007600085 -0.00529545 1000 1000 1000 0.008789734 0.004484946 -0.000628278 -0.00236011 -5.480393E-05 1000 0.008789734 0.004484946 -0.000628278 -0.00236011 -5.480393E-05 1000
lala 6 1.2 0 second 9 1 98 5 5.45 2.77999591827393 1 1 -1 1 0.007593636 0.002223927 -0.003264243 -0.006614129 -0.003493766 1000 0.007593636 0.002223927 -0.003264243 -0.006614129 -0.003493766 1000 0.006313939 0.004688368 0.003079113 0.003158158 0.005138678 1000 0.006313939 0.004688368 0.003079113 0.003158158 0.005138678 1000
lala 7 1.2 1 second 9 1 99 5 6.65 6.26000833511353 1 1 1 1 0.00522743 0.005756348 0.006716866 0.006639168 0.006791379 1000 0.00522743 0.005756348 0.006716866 0.006639168 0.006791379 1000 0.005219935 0.005092269 0.004957635 0.006156017 0.006399914 1000 0.005219935 0.005092269 0.004957635 0.006156017 0.006399914 1000
lala 9 1.2 1 second 17 1 100 6 5.580001 0.639997720718384 0 1 1 1 0.008668717 0.006931768 0.005876079 0.005863182 0.004223472 1000 0.008668717 0.006931768 0.005876079 0.005863182 0.004223472 1000 -0.003174868 -0.00415343 -0.005324316 -0.005821745 -0.007243426 1000 -0.003174868 -0.00415343 -0.005324316 -0.005821745 -0.007243426 1000
lala 10 0.6 0 first 17 1 101 6 4.980001 0.639997720718384 0 1 -1 1 -0.01170559 -0.01185765 -0.01113433 1000 1000 1000 -0.01170559 -0.01185765 -0.01113433 1000 1000 1000 -0.007667182 -0.003060384 -0.002986875 -0.002991371 -0.004790677 1000 -0.007667182 -0.003060384 -0.002986875 -0.002991371 -0.004790677 1000
lala 10 0.6 0 first 0 1 102 4 6.84 0.539997816085815 -1 0 -1 1 -0.006345181 -0.006819814 -0.006823805 1000 1000 1000 -0.006345181 -0.006819814 -0.006823805 1000 1000 1000 -0.006345592 -0.007124713 -0.006974749 -0.00719397 -0.006488796 1000 -0.006345592 -0.007124713 -0.006974749 -0.00719397 -0.006488796 1000
lala 8 1.2 1 first 9 1 103 5 5.45 0.799997568130493 1 1 1 1 -0.00522682 -0.004783248 -0.005309409 1000 1000 1000 -0.00522682 -0.004783248 -0.005309409 1000 1000 1000 -0.007822852 -0.006932573 -0.007214453 -0.007286346 -0.007683185 1000 -0.007822852 -0.006932573 -0.007214453 -0.007286346 -0.007683185 1000
lala 4 1.2 1 second 13 1 104 4 4.12 0.979997396469116 0 1 1 1 -0.003001343 -0.002129936 -0.002624928 -0.003159628 -0.003990593 1000 -0.003001343 -0.002129936 -0.002624928 -0.003159628 -0.003990593 1000 -0.005641724 -0.006337727 -0.005564285 -0.00495857 -0.005533157 1000 -0.005641724 -0.006337727 -0.005564285 -0.00495857 -0.005533157 1000
lala 9 1.2 0 first 1 1 105 4 5.32 4.39999437332153 -1 1 -1 1 -0.002345697 -0.002884882 -0.002568071 1000 1000 1000 -0.002345697 -0.002884882 -0.002568071 1000 1000 1000 -0.002502581 -0.002168353 -0.001356497 -0.0003517741 -0.0004586006 1000 -0.002502581 -0.002168353 -0.001356497 -0.0003517741 -0.0004586006 1000
lala 11 0.3 0 second 0 1 106 4 7.14 3.41999530792236 -1 0 -1 0 0.007620521 0.007430337 0.007788187 0.008759656 0.008515019 1000 0.007620521 0.007430337 0.007788187 0.008759656 0.008515019 1000 0.007798951 0.007189903 0.007474558 0.007022041 0.007135896 1000 0.007798951 0.007189903 0.007474558 0.007022041 0.007135896 1000
lala 9 1.2 1 first 9 1 107 5 4.25 0.559997797012329 1 1 1 0 0.009752641 0.009480844 0.009895729 1000 1000 1000 0.009752641 0.009480844 0.009895729 1000 1000 1000 0.01101695 0.0114386 0.01160019 0.0122672 0.01178752 1000 0.01101695 0.0114386 0.01160019 0.0122672 0.01178752 1000
lala 6 1.2 1 second 4 1 108 6 5.16 0.959997415542603 -1 0 1 0 0.01004549 0.0101402 0.01046058 0.0110701 0.01123613 1000 0.01004549 0.0101402 0.01046058 0.0110701 0.01123613 1000 0.01177637 0.01274014 0.01268652 0.01231441 0.01199433 1000 0.01177637 0.01274014 0.01268652 0.01231441 0.01199433 1000
lala 3 1.2 0 first 6 1 109 4 2.64 9.72008752822876 1 0 -1 0 0.009897845 0.009801052 0.01105891 1000 1000 1000 0.009897845 0.009801052 0.01105891 1000 1000 1000 0.015209 0.01556119 0.01583653 0.01702536 0.01770941 1000 0.015209 0.01556119 0.01583653 0.01702536 0.01770941 1000
lala 6 1.2 1 first 14 1 110 5 6.9 0.379997968673706 0 0 1 0 0.01565098 0.006288552 0.002631033 1000 1000 1000 0.01565098 0.006288552 0.002631033 1000 1000 1000 -0.03249232 -0.04720229 -0.04909918 -0.03694711 -0.0155819 1000 -0.03249232 -0.04720229 -0.04909918 -0.03694711 -0.0155819 1000
lala 4 1.2 0 first 6 1 111 4 3.84 1.17999720573425 1 0 -1 1 -0.003351216 0.005170213 -0.002296208 1000 1000 1000 -0.003351216 0.005170213 -0.002296208 1000 1000 1000 -0.02050495 -0.02153588 -0.01502313 -0.00210139 0.001333651 1000 -0.02050495 -0.02153588 -0.01502313 -0.00210139 0.001333651 1000
lala 11 0.3 1 second 17 1 112 6 5.280001 1.77999687194824 0 1 1 0 -0.00296437 -0.0008554124 0.004081246 0.009059109 0.007445065 1000 -0.00296437 -0.0008554124 0.004081246 0.009059109 0.007445065 1000 -0.002487285 -0.01266535 -0.01146888 -0.002728562 0.002359142 1000 -0.002487285 -0.01266535 -0.01146888 -0.002728562 0.002359142 1000
lala 4 1.2 0 second 15 1 113 5 3.05 6.84002161026001 0 1 -1 1 0.004774272 0.007708124 0.01185247 0.01179664 0.008563658 1000 0.004774272 0.007708124 0.01185247 0.01179664 0.008563658 1000 0.006459209 0.008842727 0.01015074 0.00957881 0.009086739 1000 0.006459209 0.008842727 0.01015074 0.00957881 0.009086739 1000
lala 7 1.2 1 second 12 1 114 4 5.04 1.51999688148499 0 0 1 1 0.009668156 0.00955049 0.009537298 0.009258429 0.009535115 1000 0.009668156 0.00955049 0.009537298 0.009258429 0.009535115 1000 0.01112101 0.01183272 0.01167933 0.01094418 0.01041694 1000 0.01112101 0.01183272 0.01167933 0.01094418 0.01041694 1000
lala 8 1.2 1 first 12 1 115 4 3.84 6.74001932144165 0 0 1 0 0.005682816 0.005976926 0.00601412 1000 1000 1000 0.005682816 0.005976926 0.00601412 1000 1000 1000 0.007251239 0.00632466 0.007134235 0.006371479 0.006198769 1000 0.007251239 0.00632466 0.007134235 0.006371479 0.006198769 1000
lala 9 1.2 0 second 3 1 116 5 4.25 0.459997892379761 -1 1 -1 0 0.009201095 0.008535397 0.008460249 0.00833921 0.008654045 1000 0.009201095 0.008535397 0.008460249 0.00833921 0.008654045 1000 0.01033368 0.01039528 0.01048187 0.01066472 0.01104128 1000 0.01033368 0.01039528 0.01048187 0.01066472 0.01104128 1000
lala 12 0.15 0 first 17 1 117 6 5.130001 10.8201127052307 0 1 -1 1 0.007900141 0.007542623 0.006885652 1000 1000 1000 0.007900141 0.007542623 0.006885652 1000 1000 1000 0.009329425 0.009047452 0.009502675 0.00965583 0.01063924 1000 0.009329425 0.009047452 0.009502675 0.00965583 0.01063924 1000
lala 7 1.2 1 first 14 1 118 5 5.7 0.599997758865356 0 0 1 0 0.01261579 0.01178765 0.01147819 1000 1000 1000 0.01261579 0.01178765 0.01147819 1000 1000 1000 -0.004928052 -0.01280901 -0.01911245 -0.02369276 -0.0244221 1000 -0.004928052 -0.01280901 -0.01911245 -0.02369276 -0.0244221 1000
lala 10 0.6 0 second 3 1 119 5 4.85 1.51999688148499 -1 1 -1 1 -0.01650861 -0.01011301 -0.004396218 0.001550445 0.00113711 1000 -0.01650861 -0.01011301 -0.004396218 0.001550445 0.00113711 1000 -0.003073739 -0.00355203 -0.004968796 -0.006099489 -0.004828369 1000 -0.003073739 -0.00355203 -0.004968796 -0.006099489 -0.004828369 1000
lala 10 0.6 1 second 1 1 120 4 5.92 0.639997720718384 -1 1 1 0 -0.0117231 8.639544E-05 -0.001477027 -0.01374827 -0.02150186 1000 -0.0117231 8.639544E-05 -0.001477027 -0.01374827 -0.02150186 1000 -0.0290582 -0.01940701 -0.01346655 -0.01672348 -0.02418334 1000 -0.0290582 -0.01940701 -0.01346655 -0.01672348 -0.02418334 1000
lala 12 0.3 0 first 0 1 121 4 7.44 1.11999726295471 -1 0 -1 0 -0.008739257 -0.00810084 -0.01183602 1000 1000 1000 -0.008739257 -0.00810084 -0.01183602 1000 1000 1000 -0.0213535 -0.01852813 -0.01253084 -0.008600676 -0.009450555 1000 -0.0213535 -0.01852813 -0.01253084 -0.008600676 -0.009450555 1000
lala 11 0.6 1 second 3 1 122 5 5.45 2.83999586105347 -1 1 1 1 -0.007790131 -0.005540349 -0.005512368 -0.007675853 -0.008626804 1000 -0.007790131 -0.005540349 -0.005512368 -0.007675853 -0.008626804 1000 -0.005795673 -0.004634151 -0.00511216 -0.005411441 -0.005347684 1000 -0.005795673 -0.004634151 -0.00511216 -0.005411441 -0.005347684 1000
lala 12 0.3 1 second 3 1 123 5 5.15 0.599997758865356 -1 1 1 1 0.008227834 0.00825971 0.00816786 0.008132726 0.008306281 1000 0.008227834 0.00825971 0.00816786 0.008132726 0.008306281 1000 0.007372097 0.007976756 0.008693286 0.00764727 0.007183146 1000 0.007372097 0.007976756 0.008693286 0.00764727 0.007183146 1000
lala 4 1.2 0 first 11 1 124 6 6.780001 9.60008478164673 1 1 -1 1 0.006321153 0.008615591 0.006419881 1000 1000 1000 0.006321153 0.008615591 0.006419881 1000 1000 1000 0.01365974 0.01374296 0.01415279 0.01461959 0.01589118 1000 0.01365974 0.01374296 0.01415279 0.01461959 0.01589118 1000
lala 6 1.2 1 first 10 1 125 6 5.16 0.939997434616089 1 0 1 0 -0.002870575 -0.001220601 -0.007125027 1000 1000 1000 -0.002870575 -0.001220601 -0.007125027 1000 1000 1000 -0.002353299 -0.00217031 -0.004812354 -0.007788909 -0.006603938 1000 -0.002353299 -0.00217031 -0.004812354 -0.007788909 -0.006603938 1000
lala 11 0.3 0 first 1 1 126 4 5.619999 0.739997625350952 -1 1 -1 1 0.009042202 0.01124768 0.009698992 1000 1000 1000 0.009042202 0.01124768 0.009698992 1000 1000 1000 -0.01278972 -0.01065119 -0.00869556 -0.01038505 -0.009037496 1000 -0.01278972 -0.01065119 -0.00869556 -0.01038505 -0.009037496 1000
lala 5 1.2 0 first 15 1 127 5 4.25 0.579997777938843 0 1 -1 1 -0.01121741 -0.012171 -0.01314351 1000 1000 1000 -0.01121741 -0.012171 -0.01314351 1000 1000 1000 -0.01361462 -0.01520959 -0.01511184 -0.01227933 -0.008772671 1000 -0.01361462 -0.01520959 -0.01511184 -0.01227933 -0.008772671 1000
lala 6 1.2 1 first 5 1 128 6 4.380001 0.199998140335083 -1 1 1 0 -0.003925122 -0.00664518 -0.01338092 1000 1000 1000 -0.003925122 -0.00664518 -0.01338092 1000 1000 1000 -0.003192088 -0.007381046 -0.01390452 -0.01601702 -0.01118218 1000 -0.003192088 -0.007381046 -0.01390452 -0.01601702 -0.01118218 1000
lala 4 1.2 0 second 7 1 129 4 4.12 0.479997873306274 1 1 -1 1 -0.01514518 -0.01059973 -0.008068576 -0.01166918 -0.01652846 1000 -0.01514518 -0.01059973 -0.008068576 -0.01166918 -0.01652846 1000 -0.009302814 -0.0118968 -0.01863507 -0.02251632 -0.01904908 1000 -0.009302814 -0.0118968 -0.01863507 -0.02251632 -0.01904908 1000
lala 13 0.3 1 second 3 1 130 5 4.849999 0.279998064041138 -1 1 1 0 -0.005744906 -0.01185106 -0.01991107 -0.02019293 -0.01333719 1000 -0.005744906 -0.01185106 -0.01991107 -0.02019293 -0.01333719 1000 -0.01531571 -0.02278023 -0.02405398 -0.01864804 -0.01130352 1000 -0.01531571 -0.02278023 -0.02405398 -0.01864804 -0.01130352 1000
lala 13 0.075 0 first 17 1 131 6 5.205001 0.299998044967651 0 1 -1 1 -0.01753496 -0.02688579 -0.02695519 1000 1000 1000 -0.01753496 -0.02688579 -0.02695519 1000 1000 1000 -0.005972523 -0.009143498 -0.01094486 -0.01028295 -0.009337165 1000 -0.005972523 -0.009143498 -0.01094486 -0.01028295 -0.009337165 1000
lala 10 2.4 0 second 9 1 132 5 1.85 1.25999712944031 1 1 -1 0 -0.01388138 -0.009934251 -0.008036699 -0.01205116 -0.01756546 1000 -0.01388138 -0.009934251 -0.008036699 -0.01205116 -0.01756546 1000 -0.007189357 -0.004213932 -0.008601505 -0.01537088 -0.01585595 1000 -0.007189357 -0.004213932 -0.008601505 -0.01537088 -0.01585595 1000
lala 14 0.3 0 second 3 1 133 5 4.549999 1.93999671936035 -1 1 -1 1 -0.02510641 -0.01290437 -0.009109324 -0.01519482 -0.02180769 1000 -0.02510641 -0.01290437 -0.009109324 -0.01519482 -0.02180769 1000 -0.01114514 -0.00774981 -0.01099677 -0.01675203 -0.01821925 1000 -0.01114514 -0.00774981 -0.01099677 -0.01675203 -0.01821925 1000
lala 11 1.2 1 first 9 1 134 5 3.05 0.139998197555542 1 1 1 0 -0.01343321 -0.01288314 -0.01574744 1000 1000 1000 -0.01343321 -0.01288314 -0.01574744 1000 1000 1000 -0.001367697 0.003467518 -0.003028746 -0.01248961 -0.01555899 1000 -0.001367697 0.003467518 -0.003028746 -0.01248961 -0.01555899 1000
lala 12 0.6 0 second 9 1 135 5 2.45 0.899997472763062 1 1 -1 0 -0.008154968 -0.007472793 -0.006349341 -0.006284951 -0.006947152 1000 -0.008154968 -0.007472793 -0.006349341 -0.006284951 -0.006947152 1000 -0.007802522 -0.008462689 -0.008805319 -0.008831819 -0.008275908 1000 -0.007802522 -0.008462689 -0.008805319 -0.008831819 -0.008275908 1000
lala 7 1.2 0 second 5 1 136 6 3.180001 1.25999712944031 -1 1 -1 0 -0.00845466 -0.01723087 -0.01533496 -0.005817435 0.0002083101 1000 -0.00845466 -0.01723087 -0.01533496 -0.005817435 0.0002083101 1000 -0.009772521 -0.009575374 -0.005945835 0.000708914 0.001267376 1000 -0.009772521 -0.009575374 -0.005945835 0.000708914 0.001267376 1000
lala 5 1.2 1 first 13 1 137 4 2.92 8.88006830215454 0 1 1 1 0.004947206 0.002500409 -0.004714895 1000 1000 1000 0.004947206 0.002500409 -0.004714895 1000 1000 1000 0.01076831 0.01211314 0.01113172 0.00993853 0.008696397 1000 0.01076831 0.01211314 0.01113172 0.00993853 0.008696397 1000
lala 5 1.2 1 second 6 1 138 4 5.04 1.67999696731567 1 0 1 0 0.004608167 0.008234594 0.01023978 0.009381713 0.007244792 1000 0.004608167 0.008234594 0.01023978 0.009381713 0.007244792 1000 0.007412671 0.007937034 0.008659475 0.008799939 0.009229069 1000 0.007412671 0.007937034 0.008659475 0.008799939 0.009229069 1000
lala 7 1.2 0 second 10 1 139 6 3.96 1.65999698638916 1 0 -1 1 0.009684583 0.00947245 0.009375609 0.009955926 0.0105186 1000 0.009684583 0.00947245 0.009375609 0.009955926 0.0105186 1000 0.01292219 0.0131144 0.01280262 0.01264804 0.01282691 1000 0.01292219 0.0131144 0.01280262 0.01264804 0.01282691 1000
lala 6 1.2 0 first 15 1 140 5 5.45 9.82008981704712 0 1 -1 0 0.01272219 0.01251381 0.01255437 1000 1000 1000 0.01272219 0.01251381 0.01255437 1000 1000 1000 0.01509432 0.01583659 0.0167223 0.01654864 0.01650135 1000 0.01509432 0.01583659 0.0167223 0.01654864 0.01650135 1000
lala 8 1.2 1 first 16 1 141 6 7.559999 0.339998006820679 0 0 1 0 0.003291594 0.003396525 0.003366487 1000 1000 1000 0.003291594 0.003396525 0.003366487 1000 1000 1000 -0.02597404 -0.02555561 -0.02480617 -0.02410884 -0.0229901 1000 -0.02597404 -0.02555561 -0.02480617 -0.02410884 -0.0229901 1000
lala 13 0.3 1 first 0 1 142 4 7.74 1.65999698638916 -1 0 1 1 0.00440724 -0.02182442 -0.02389428 1000 1000 1000 0.00440724 -0.02182442 -0.02389428 1000 1000 1000 0.001635431 0.00650539 0.005178146 0.001562864 -0.002415548 1000 0.001635431 0.00650539 0.005178146 0.001562864 -0.002415548 1000
lala 6 1.2 0 first 6 1 143 4 3.84 4.57999420166016 1 0 -1 1 0.0009648835 -0.006069141 -0.01077321 1000 1000 1000 0.0009648835 -0.006069141 -0.01077321 1000 1000 1000 0.001193296 0.002926544 0.001500299 -0.003933447 -0.005742701 1000 0.001193296 0.002926544 0.001500299 -0.003933447 -0.005742701 1000
lala 13 0.3 0 first 9 1 144 5 2.75 0.279998064041138 1 1 -1 1 0.003330881 0.002980164 0.002456567 1000 1000 1000 0.003330881 0.002980164 0.002456567 1000 1000 1000 -0.001052009 -0.005555655 -0.0069511 -0.004025375 0.001640296 1000 -0.001052009 -0.005555655 -0.0069511 -0.004025375 0.001640296 1000
lala 7 1.2 0 first 15 1 145 5 6.65 8.78006601333618 0 1 -1 1 0.0107689 -0.007721805 -0.01540614 1000 1000 1000 0.0107689 -0.007721805 -0.01540614 1000 1000 1000 -0.007387596 -0.003324896 -0.002137495 -0.002205105 -0.003376785 1000 -0.007387596 -0.003324896 -0.002137495 -0.002205105 -0.003376785 1000
lala 8 1.2 1 second 14 1 146 5 4.5 0.39999794960022 0 0 1 0 0.007163727 0.002489015 0.0005324494 0.003431948 0.006534496 1000 0.007163727 0.002489015 0.0005324494 0.003431948 0.006534496 1000 -5.774778E-05 -0.004389652 -0.001134561 0.005492474 0.01052343 1000 -5.774778E-05 -0.004389652 -0.001134561 0.005492474 0.01052343 1000
lala 14 0.15 0 first 0 1 147 4 7.59 8.18005228042603 -1 0 -1 1 -0.008709787 -0.01395214 -0.005841533 1000 1000 1000 -0.008709787 -0.01395214 -0.005841533 1000 1000 1000 0.01309637 0.01975838 0.01686279 0.009007176 0.001433706 1000 0.01309637 0.01975838 0.01686279 0.009007176 0.001433706 1000
lala 7 1.2 0 second 6 1 148 4 5.04 0.519997835159302 1 0 -1 0 0.01955259 0.01984246 0.01933117 0.0184721 0.01909808 1000 0.01955259 0.01984246 0.01933117 0.0184721 0.01909808 1000 0.01576738 0.01569523 0.01646336 0.01722042 0.01726361 1000 0.01576738 0.01569523 0.01646336 0.01722042 0.01726361 1000
lala 12 0.15 1 second 1 1 149 4 5.77 0.639997720718384 -1 1 1 0 0.008237506 0.008398771 0.009130439 0.008084942 0.008790148 1000 0.008237506 0.008398771 0.009130439 0.008084942 0.008790148 1000 0.005608576 0.00585277 0.005971254 0.005958152 0.006439076 1000 0.005608576 0.00585277 0.005971254 0.005958152 0.006439076 1000
lala 13 0.075 1 second 1 1 150 4 5.695 1.07999730110168 -1 1 1 1 0.00294319 0.001107623 0.0006775141 0.0009561466 0.001302663 1000 0.00294319 0.001107623 0.0006775141 0.0009561466 0.001302663 1000 -0.004772378 -0.005376406 -0.005390659 -0.005660322 -0.007790301 1000 -0.004772378 -0.005376406 -0.005390659 -0.005660322 -0.007790301 1000
lala 8 1.2 1 second 10 1 151 6 5.16 0.379997968673706 1 0 1 0 -0.0187734 -0.01974697 -0.01945792 -0.01841777 -0.01715373 1000 -0.0187734 -0.01974697 -0.01945792 -0.01841777 -0.01715373 1000 -0.01640414 -0.01628536 -0.01584701 -0.01549622 -0.01502307 1000 -0.01640414 -0.01628536 -0.01584701 -0.01549622 -0.01502307 1000
lala 5 1.2 0 second 8 1 152 5 3.3 0.219998121261597 1 0 -1 0 -0.01506552 -0.01586623 -0.01614091 -0.01608693 -0.01542727 1000 -0.01506552 -0.01586623 -0.01614091 -0.01608693 -0.01542727 1000 -0.01433816 -0.01458769 -0.01461775 -0.01472659 -0.01365755 1000 -0.01433816 -0.01458769 -0.01461775 -0.01472659 -0.01365755 1000
lala 9 1.2 1 second 16 1 153 6 6.36 0.279998064041138 0 0 1 0 -0.01438213 -0.01496264 -0.01496917 -0.01414996 -0.01391664 1000 -0.01438213 -0.01496264 -0.01496917 -0.01414996 -0.01391664 1000 -0.01431554 -0.01488203 -0.01519428 -0.01564046 -0.01508174 1000 -0.01431554 -0.01488203 -0.01519428 -0.01564046 -0.01508174 1000
lala 10 2.4 1 second 16 1 154 6 3.96 0.079998254776001 0 0 1 0 -0.01475234 -0.01451122 -0.01299848 -0.01221379 -0.0118528 1000 -0.01475234 -0.01451122 -0.01299848 -0.01221379 -0.0118528 1000 -0.01167767 -0.01101915 -0.01104551 -0.01016014 -0.008973106 1000 -0.01167767 -0.01101915 -0.01104551 -0.01016014 -0.008973106 1000
lala 15 0.075 1 second 0 1 155 4 7.665 0.919997453689575 -1 0 1 0 -0.01038748 -0.0101089 -0.01018272 -0.009385427 -0.008312816 1000 -0.01038748 -0.0101089 -0.01018272 -0.009385427 -0.008312816 1000 -0.006615778 -0.006703556 -0.007041392 -0.007171502 -0.006047253 1000 -0.006615778 -0.006703556 -0.007041392 -0.007171502 -0.006047253 1000
lala 7 1.2 0 first 4 1 156 6 3.96 1.29999709129334 -1 0 -1 1 -0.006526844 -0.005983341 -0.005892641 1000 1000 1000 -0.006526844 -0.005983341 -0.005892641 1000 1000 1000 0.0003788852 -2.94301E-05 -0.0005069199 -0.0009476269 -0.001487064 1000 0.0003788852 -2.94301E-05 -0.0005069199 -0.0009476269 -0.001487064 1000
lala 9 1.2 0 second 12 1 157 4 2.64 1.61999702453613 0 0 -1 1 -0.003416448 -0.003051856 -0.001994187 -0.003679769 -0.005269454 1000 -0.003416448 -0.003051856 -0.001994187 -0.003679769 -0.005269454 1000 -0.002317802 -0.002408287 -0.001862061 -0.001994809 -0.002180985 1000 -0.002317802 -0.002408287 -0.001862061 -0.001994809 -0.002180985 1000
lala 5 1.2 1 second 7 1 158 4 5.32 0.919997453689575 1 1 1 0 -0.01205808 -0.0144849 -0.01253187 -0.007695498 -0.005033896 1000 -0.01205808 -0.0144849 -0.01253187 -0.007695498 -0.005033896 1000 -0.01332593 -0.01468301 -0.01138969 -0.001708411 0.003593553 1000 -0.01332593 -0.01468301 -0.01138969 -0.001708411 0.003593553 1000
lala 9 1.2 0 first 10 1 159 6 3.96 2.23999643325806 1 0 -1 0 -0.000955922 -2.499598E-05 -0.003998628 1000 1000 1000 -0.000955922 -2.499598E-05 -0.003998628 1000 1000 1000 -0.004895956 -0.005417321 -0.005660567 -0.005540142 -0.005012574 1000 -0.004895956 -0.005417321 -0.005660567 -0.005540142 -0.005012574 1000
lala 14 0.075 1 second 17 1 160 6 5.280001 9.64008569717407 0 1 1 1 -0.008615902 -0.00951853 -0.009292677 -0.009133584 -0.008136826 1000 -0.008615902 -0.00951853 -0.009292677 -0.009133584 -0.008136826 1000 -0.007724092 -0.008092494 -0.009024939 -0.009418028 -0.008888964 1000 -0.007724092 -0.008092494 -0.009024939 -0.009418028 -0.008888964 1000
lala 10 0.6 0 first 10 1 161 6 4.56 0.339998006820679 1 0 -1 0 0.01728786 0.005963859 -0.001995735 1000 1000 1000 0.01728786 0.005963859 -0.001995735 1000 1000 1000 -0.004764019 -0.009394984 -0.007249986 -0.001551053 0.00045918 1000 -0.004764019 -0.009394984 -0.007249986 -0.001551053 0.00045918 1000
lala 15 0.0375 0 second 17 1 162 6 5.242501 0.459997892379761 0 1 -1 0 0.006304344 -6.979081E-05 -0.007586728 -0.01117019 -0.004465198 1000 0.006304344 -6.979081E-05 -0.007586728 -0.01117019 -0.004465198 1000 -0.004158763 -0.008995046 -0.009582386 -0.005512008 -0.001743113 1000 -0.004158763 -0.008995046 -0.009582386 -0.005512008 -0.001743113 1000
lala 9 1.2 0 first 14 1 163 5 3.3 0.319998025894165 0 0 -1 1 -0.002723553 -0.003613071 -0.002814252 1000 1000 1000 -0.002723553 -0.003613071 -0.002814252 1000 1000 1000 -0.005310385 -0.006213073 -0.006007114 -0.006264975 -0.005230811 1000 -0.005310385 -0.006213073 -0.006007114 -0.006264975 -0.005230811 1000
lala 9 1.2 0 first 2 1 164 5 5.7 6.80002069473267 -1 0 -1 0 -0.003864406 -0.004119771 -0.004285882 1000 1000 1000 -0.003864406 -0.004119771 -0.004285882 1000 1000 1000 -0.0008475597 -0.0009886365 -0.001371005 -0.001548466 -0.001809182 1000 -0.0008475597 -0.0009886365 -0.001371005 -0.001548466 -0.001809182 1000
lala 14 0.075 1 second 1 1 165 4 5.62 0.959997415542603 -1 1 1 1 0.005299406 0.00499009 0.006268192 0.006724028 0.005971062 1000 0.005299406 0.00499009 0.006268192 0.006724028 0.005971062 1000 0.006407364 0.004915081 0.00571386 0.007504321 0.008851193 1000 0.006407364 0.004915081 0.00571386 0.007504321 0.008851193 1000
lala 8 1.2 0 first 4 1 166 6 5.16 0.979997396469116 -1 0 -1 0 0.008903011 0.01022296 0.005206218 1000 1000 1000 0.008903011 0.01022296 0.005206218 1000 1000 1000 0.001723443 0.003484498 0.004739502 0.004375314 0.002794597 1000 0.001723443 0.003484498 0.004739502 0.004375314 0.002794597 1000
lala 14 0.3 0 first 9 1 167 5 3.05 11.4601273536682 1 1 -1 0 0.002473867 0.001897004 0.001553359 1000 1000 1000 0.002473867 0.001897004 0.001553359 1000 1000 1000 0.007277404 0.00708332 0.007518979 0.008734406 0.008929132 1000 0.007277404 0.00708332 0.007518979 0.008734406 0.008929132 1000
lala 16 0.0375 1 second 0 1 168 4 7.6275 0.379997968673706 -1 0 1 1 0.01344547 0.003218423 0.0007414232 0.006230663 0.008439907 1000 0.01344547 0.003218423 0.0007414232 0.006230663 0.008439907 1000 -0.004287396 0.002248545 0.002894018 -0.002532545 -0.008032441 1000 -0.004287396 0.002248545 0.002894018 -0.002532545 -0.008032441 1000
lala 10 2.4 1 first 2 1 169 5 8.1 1.65999698638916 -1 0 1 1 0.003634182 -0.0001255616 -0.0133031 1000 1000 1000 0.003634182 -0.0001255616 -0.0133031 1000 1000 1000 -0.02012841 -0.02012544 -0.02210345 -0.02402411 -0.02521945 1000 -0.02012841 -0.02012544 -0.02210345 -0.02402411 -0.02521945 1000
lala 6 1.2 0 first 8 1 170 5 4.5 0.779997587203979 1 0 -1 1 -0.02156815 -0.01732459 -0.01563637 1000 1000 1000 -0.02156815 -0.01732459 -0.01563637 1000 1000 1000 -0.01911743 -0.02067453 -0.0223869 -0.02493774 -0.02618274 1000 -0.01911743 -0.02067453 -0.0223869 -0.02493774 -0.02618274 1000
lala 11 1.2 1 second 2 1 171 5 6.900001 2.27999639511108 -1 0 1 0 0.008677045 0.000161787 -0.009120017 -0.01460001 -0.01152891 1000 0.008677045 0.000161787 -0.009120017 -0.01460001 -0.01152891 1000 -0.00483907 -0.009776328 -0.01171369 -0.009278956 -0.004455413 1000 -0.00483907 -0.009776328 -0.01171369 -0.009278956 -0.004455413 1000
lala 15 0.15 0 first 3 1 172 5 4.699999 0.01999831199646 -1 1 -1 1 -0.003712833 -0.003623566 -0.003521289 1000 1000 1000 -0.003712833 -0.003623566 -0.003521289 1000 1000 1000 -0.00363127 -0.003578602 -0.003379537 -0.003753058 -0.003792767 1000 -0.00363127 -0.003578602 -0.003379537 -0.003753058 -0.003792767 1000
lala 16 0.15 1 first 3 1 173 5 4.849999 0.01999831199646 -1 1 1 0 -0.003243948 -0.004135606 -0.003893299 1000 1000 1000 -0.003243948 -0.004135606 -0.003893299 1000 1000 1000 -0.002179157 -0.002090313 -0.001436612 -0.001040115 -0.001530855 1000 -0.002179157 -0.002090313 -0.001436612 -0.001040115 -0.001530855 1000
lala 10 0.6 1 first 12 1 174 4 3.24 5.13999366760254 0 0 1 0 -0.001722884 -0.001108525 -0.001058705 1000 1000 1000 -0.001722884 -0.001108525 -0.001058705 1000 1000 1000 0.01001654 0.01058247 0.01105303 0.01061914 0.0112814 1000 0.01001654 0.01058247 0.01105303 0.01061914 0.0112814 1000
lala 9 1.2 1 second 4 1 175 6 6.36 0.439997911453247 -1 0 1 0 0.02155107 0.02169585 0.02009589 0.01921955 0.01929579 1000 0.02155107 0.02169585 0.02009589 0.01921955 0.01929579 1000 0.01764696 0.01752218 0.01990468 0.02208629 0.02066526 1000 0.01764696 0.01752218 0.01990468 0.02208629 0.02066526 1000
lala 11 0.6 1 second 10 1 176 6 5.16 1.95999670028687 1 0 1 0 0.02080695 0.01888447 0.005578523 -0.01257621 -0.0181379 1000 0.02080695 0.01888447 0.005578523 -0.01257621 -0.0181379 1000 -0.02517329 -0.02390771 -0.02578683 -0.03028469 -0.04197276 1000 -0.02517329 -0.02390771 -0.02578683 -0.03028469 -0.04197276 1000
lala 17 0.075 1 first 3 1 177 5 4.775 5.15999364852905 -1 1 1 1 -0.02522333 -0.03221088 -0.02948913 1000 1000 1000 -0.02522333 -0.03221088 -0.02948913 1000 1000 1000 -0.03727631 -0.03362095 -0.03421776 -0.03737344 -0.04028288 1000 -0.03727631 -0.03362095 -0.03421776 -0.03737344 -0.04028288 1000
lala 18 0.075 0 second 3 1 178 5 4.7 2.37999629974365 -1 1 -1 0 -0.005604913 -0.005613863 -0.005837893 -0.006257733 -0.006333681 1000 -0.005604913 -0.005613863 -0.005837893 -0.006257733 -0.006333681 1000 -0.007787427 -0.006004 -0.006031184 -0.00635967 -0.007312465 1000 -0.007787427 -0.006004 -0.006031184 -0.00635967 -0.007312465 1000
lala 15 0.3 0 first 9 1 179 5 3.35 8.92006921768188 1 1 -1 1 0.007611599 0.005350308 0.003222867 1000 1000 1000 0.007611599 0.005350308 0.003222867 1000 1000 1000 -0.001265686 -0.0008792641 8.917112E-05 0.0001821179 0.0001219397 1000 -0.001265686 -0.0008792641 8.917112E-05 0.0001821179 0.0001219397 1000
lala 16 0.01875 0 first 17 1 180 6 5.261251 2.99999570846558 0 1 -1 0 0.01643443 0.01632749 0.01587737 1000 1000 1000 0.01643443 0.01632749 0.01587737 1000 1000 1000 0.01437806 0.01399811 0.01373412 0.01156682 0.007359257 1000 0.01437806 0.01399811 0.01373412 0.01156682 0.007359257 1000
lala 6 1.2 1 first 13 1 181 4 1.72 0.01999831199646 0 1 1 0 0.00395016 0.003164734 0.001849665 1000 1000 1000 0.00395016 0.003164734 0.001849665 1000 1000 1000 0.007132512 0.007389983 0.008649059 0.01007866 0.008768851 1000 0.007132512 0.007389983 0.008649059 0.01007866 0.008768851 1000
lala 19 0.0375 0 second 3 1 182 5 4.7375 0.819997549057007 -1 1 -1 0 -0.0236284 -0.02647799 -0.01883928 -0.002870881 0.002622521 1000 -0.0236284 -0.02647799 -0.01883928 -0.002870881 0.002622521 1000 -0.01333841 -0.02138459 -0.02843623 -0.02820104 -0.02073712 1000 -0.01333841 -0.02138459 -0.02843623 -0.02820104 -0.02073712 1000
lala 8 1.2 0 second 6 1 183 4 6.24 10.500105381012 1 0 -1 0 0.004785697 0.006605701 0.001227876 -0.005541609 -0.007483312 1000 0.004785697 0.006605701 0.001227876 -0.005541609 -0.007483312 1000 0.004332596 0.007108623 0.004141186 -0.002146903 -0.003553941 1000 0.004332596 0.007108623 0.004141186 -0.002146903 -0.003553941 1000
lala 9 1.2 0 second 6 1 184 4 7.44 5.33999347686768 1 0 -1 0 0.01543302 0.01579813 0.01651163 0.01636138 0.01624184 1000 0.01543302 0.01579813 0.01651163 0.01636138 0.01624184 1000 0.01628375 0.01637337 0.01599277 0.01648388 0.0171749 1000 0.01628375 0.01637337 0.01599277 0.01648388 0.0171749 1000
lala 8 1.2 1 second 5 1 185 6 4.380001 1.7199969291687 -1 1 1 1 0.02480662 0.01830224 0.01512128 0.01836223 0.02200327 1000 0.02480662 0.01830224 0.01512128 0.01836223 0.02200327 1000 -0.00371073 -0.003316362 0.003904428 0.01074805 0.01024337 1000 -0.00371073 -0.003316362 0.003904428 0.01074805 0.01024337 1000
lala 12 0.3 1 second 10 1 186 6 4.86 0.439997911453247 1 0 1 1 0.002993415 0.0006279583 -0.003126153 -0.004550078 -0.0009546088 1000 0.002993415 0.0006279583 -0.003126153 -0.004550078 -0.0009546088 1000 0.005529184 -0.001587594 -0.005509692 -0.001736737 0.006689255 1000 0.005529184 -0.001587594 -0.005509692 -0.001736737 0.006689255 1000
lala 11 4.8 0 second 16 1 187 6 1.98 5.15999364852905 0 0 -1 0 0.005549845 0.006541713 0.006900331 0.007073357 0.008266166 1000 0.005549845 0.006541713 0.006900331 0.007073357 0.008266166 1000 0.0192208 0.0203157 0.02167404 0.02348383 0.02467037 1000 0.0192208 0.0203157 0.02167404 0.02348383 0.02467037 1000
lala 8 1.2 1 second 15 1 188 5 7.849999 2.21999645233154 0 1 1 1 0.01999156 0.0185814 0.01646237 0.01447393 0.009755856 1000 0.01999156 0.0185814 0.01646237 0.01447393 0.009755856 1000 0.001896343 0.001282719 0.00154518 0.006378961 0.007218235 1000 0.001896343 0.001282719 0.00154518 0.006378961 0.007218235 1000
lala 17 0.0375 1 second 0 1 189 4 7.59 1.73999691009521 -1 0 1 1 -0.004846335 -0.003641722 -0.001029241 -0.0008500388 -0.001389588 1000 -0.004846335 -0.003641722 -0.001029241 -0.0008500388 -0.001389588 1000 -0.008992936 -0.01034025 -0.008320182 -0.009746622 -0.008377664 1000 -0.008992936 -0.01034025 -0.008320182 -0.009746622 -0.008377664 1000
lala 13 0.3 0 first 10 1 190 6 4.559999 0.159998178482056 1 0 -1 0 -0.00823759 -0.007255693 -0.006387419 1000 1000 1000 -0.00823759 -0.007255693 -0.006387419 1000 1000 1000 -0.01085919 -0.01061574 -0.01052428 -0.01059892 -0.01002829 1000 -0.01085919 -0.01061574 -0.01052428 -0.01059892 -0.01002829 1000
lala 12 1.2 1 second 2 1 191 5 5.700001 0.259998083114624 -1 0 1 0 -0.00929154 -0.009093474 -0.00888897 -0.008444082 -0.008644512 1000 -0.00929154 -0.009093474 -0.00888897 -0.008444082 -0.008644512 1000 -0.008728635 -0.008589647 -0.008693059 -0.008790947 -0.008229495 1000 -0.008728635 -0.008589647 -0.008693059 -0.008790947 -0.008229495 1000
lala 10 0.6 0 first 14 1 192 5 3.9 13.5001740455627 0 0 -1 0 -0.00655961 -0.005904319 -0.004392173 1000 1000 1000 -0.00655961 -0.005904319 -0.004392173 1000 1000 1000 0.002992809 0.004148418 0.004230782 0.003238488 0.002552529 1000 0.002992809 0.004148418 0.004230782 0.003238488 0.002552529 1000
lala 15 0.075 1 first 1 1 193 4 5.545 1.87999677658081 -1 1 1 0 0.01738985 0.01735261 0.01676748 1000 1000 1000 0.01738985 0.01735261 0.01676748 1000 1000 1000 0.01307423 0.01339422 0.01376748 0.01407263 0.01345914 1000 0.01307423 0.01339422 0.01376748 0.01407263 0.01345914 1000
lala 11 0.3 0 second 12 1 194 4 2.94 1.11999726295471 0 0 -1 0 0.002922399 -0.003112257 -0.004474941 -0.001681881 0.003297761 1000 0.002922399 -0.003112257 -0.004474941 -0.001681881 0.003297761 1000 -0.002404319 0.002194123 0.004980586 0.001732071 -0.001583369 1000 -0.002404319 0.002194123 0.004980586 0.001732071 -0.001583369 1000
lala 9 1.2 0 second 5 1 195 6 3.180001 0.459997892379761 -1 1 -1 1 0.002451646 0.002684154 0.001922504 0.001740113 0.001416204 1000 0.002451646 0.002684154 0.001922504 0.001740113 0.001416204 1000 -0.001495967 -0.001511215 -0.001610637 -0.001641221 -0.001299387 1000 -0.001495967 -0.001511215 -0.001610637 -0.001641221 -0.001299387 1000
lala 20 0.0375 0 second 3 1 196 5 4.775 0.39999794960022 -1 1 -1 1 0.000298923 0.00144185 0.001722432 -0.0004746189 -0.00264755 1000 0.000298923 0.00144185 0.001722432 -0.0004746189 -0.00264755 1000 0.002405341 -0.002075979 -0.006273021 -0.003835227 0.002666364 1000 0.002405341 -0.002075979 -0.006273021 -0.003835227 0.002666364 1000
lala 12 2.4 1 second 16 1 197 6 4.38 0.23999810218811 0 0 1 1 -0.008057856 -0.01587587 -0.01323024 -0.002574041 0.00426752 1000 -0.008057856 -0.01587587 -0.01323024 -0.002574041 0.00426752 1000 -0.003432218 -0.002828982 0.005032015 0.00923973 0.004794497 1000 -0.003432218 -0.002828982 0.005032015 0.00923973 0.004794497 1000
lala 13 1.2 1 first 2 1 198 5 4.500001 2.91999578475952 -1 0 1 1 -0.004688582 -0.002489794 0.002483199 1000 1000 1000 -0.004688582 -0.002489794 0.002483199 1000 1000 1000 0.009001785 0.009424568 0.01020047 0.01055922 0.009733349 1000 0.009001785 0.009424568 0.01020047 0.01055922 0.009733349 1000
lala 16 0.15 0 second 1 1 199 4 5.395 3.87999486923218 -1 1 -1 1 0.01602084 0.01632312 0.01663434 0.01721288 0.01714321 1000 0.01602084 0.01632312 0.01663434 0.01721288 0.01714321 1000 0.01672797 0.01677371 0.01636801 0.01613404 0.01649907 1000 0.01672797 0.01677371 0.01636801 0.01613404 0.01649907 1000
lala 7 1.2 0 first 8 1 200 5 5.7 0.859997510910034 1 0 -1 1 -0.01428269 -0.005451502 -0.005338851 -0.009372213 -0.01027347 -0.01030802 -0.01428269 -0.005451502 -0.005338851 -0.009372213 -0.01027347 -0.01030802 -0.02246957 -0.02406991 -0.02493732 -0.02684261 -0.0285638 1000 -0.02246957 -0.02406991 -0.02493732 -0.02684261 -0.0285638 1000
lala 10 2.4 1 first 6 1 201 4 9.84 4.31999444961548 1 0 1 0 -0.02126324 -0.01790911 -0.01658625 1000 1000 1000 -0.02126324 -0.01790911 -0.01658625 1000 1000 1000 -0.02372325 -0.02434553 -0.02363289 -0.02355318 -0.0234892 1000 -0.02372325 -0.02434553 -0.02363289 -0.02355318 -0.0234892 1000
lala 10 0.6 0 second 4 1 202 6 5.76 0.499997854232788 -1 0 -1 1 0.006897215 0.01048772 0.01055094 0.0106109 0.01306673 1000 0.006897215 0.01048772 0.01055094 0.0106109 0.01306673 1000 0.009612208 0.01015153 0.01055826 0.01060414 0.01304029 1000 0.009612208 0.01015153 0.01055826 0.01060414 0.01304029 1000
lala 14 2.4 0 first 2 1 203 5 2.100001 0.219998121261597 -1 0 -1 0 0.007017643 0.007645455 0.008230032 1000 1000 1000 0.007017643 0.007645455 0.008230032 1000 1000 1000 0.004726791 0.005196311 0.004739916 0.00596612 0.005125171 1000 0.004726791 0.005196311 0.004739916 0.00596612 0.005125171 1000
lala 18 0.0375 1 first 0 1 204 4 7.5525 0.39999794960022 -1 0 1 0 0.003922781 0.004207168 0.003841516 1000 1000 1000 0.003922781 0.004207168 0.003841516 1000 1000 1000 0.004188539 0.003305894 0.003095405 0.002188036 0.002608053 1000 0.004188539 0.003305894 0.003095405 0.002188036 0.002608053 1000
lala 13 1.2 0 second 16 1 205 6 3.18 0.839997529983521 0 0 -1 0 0.002592867 0.001829212 0.001930387 0.00195863 0.002238484 1000 0.002592867 0.001829212 0.001930387 0.00195863 0.002238484 1000 0.003363063 0.002295203 0.002619844 0.002767122 0.001990828 1000 0.003363063 0.002295203 0.002619844 0.002767122 0.001990828 1000
lala 14 0.15 1 first 10 1 206 6 4.71 0.799997568130493 1 0 1 0 0.0006112636 0.001610132 0.001348259 1000 1000 1000 0.0006112636 0.001610132 0.001348259 1000 1000 1000 7.556618E-05 0.0001697682 0.0007818405 3.201227E-05 -7.121688E-05 1000 7.556618E-05 0.0001697682 0.0007818405 3.201227E-05 -7.121688E-05 1000
lala 5 1.2 1 first 11 1 207 6 7.98 2.27999639511108 1 1 1 1 -0.001338949 -0.0004158404 -0.000688633 1000 1000 1000 -0.001338949 -0.0004158404 -0.000688633 1000 1000 1000 0.001992267 0.0003194042 -0.002079863 -0.002999793 -0.00336269 1000 0.001992267 0.0003194042 -0.002079863 -0.002999793 -0.00336269 1000
lala 19 0.075 1 second 0 1 208 4 7.4775 1.35999703407288 -1 0 1 1 0.00949519 0.01134631 0.01288747 0.01299501 0.01348313 1000 0.00949519 0.01134631 0.01288747 0.01299501 0.01348313 1000 0.004028752 0.004308444 0.005342601 0.007241694 0.008442189 1000 0.004028752 0.004308444 0.005342601 0.007241694 0.008442189 1000
lala 17 0.075 0 second 1 1 209 4 5.47 0.499997854232788 -1 1 -1 0 0.02055876 0.01972672 0.0175443 0.01680324 0.01679652 1000 0.02055876 0.01972672 0.0175443 0.01680324 0.01679652 1000 0.02428658 0.02191599 0.01605428 0.01345611 0.01302476 1000 0.02428658 0.02191599 0.01605428 0.01345611 0.01302476 1000
lala 21 0.0375 0 second 3 1 210 5 4.8125 0.519997835159302 -1 1 -1 1 0.008387917 0.007150165 0.003176065 -0.002444049 -0.002844277 1000 0.008387917 0.007150165 0.003176065 -0.002444049 -0.002844277 1000 -0.007453972 -0.008878126 -0.009737583 -0.01128526 -0.01168063 1000 -0.007453972 -0.008878126 -0.009737583 -0.01128526 -0.01168063 1000
lala 6 1.2 0 first 7 1 211 4 4.12 0.219998121261597 1 1 -1 0 -0.01878669 -0.01946915 -0.01892937 1000 1000 1000 -0.01878669 -0.01946915 -0.01892937 1000 1000 1000 -0.01371229 -0.01284436 -0.01189982 -0.01155833 -0.01225634 1000 -0.01371229 -0.01284436 -0.01189982 -0.01155833 -0.01225634 1000
lala 11 0.6 0 first 14 1 212 5 4.5 0.39999794960022 0 0 -1 1 -0.0139291 -0.01322349 -0.01371687 1000 1000 1000 -0.0139291 -0.01322349 -0.01371687 1000 1000 1000 -0.008232912 -0.00825152 -0.008479262 -0.009342379 -0.009811857 1000 -0.008232912 -0.00825152 -0.008479262 -0.009342379 -0.009811857 1000
lala 20 0.15 0 first 0 1 213 4 7.3275 0.599997758865356 -1 0 -1 1 -0.00950457 -0.008625475 -0.00802324 1000 1000 1000 -0.00950457 -0.008625475 -0.00802324 1000 1000 1000 -0.005692365 -0.005186553 -0.005630255 -0.005373691 -0.004952528 1000 -0.005692365 -0.005186553 -0.005630255 -0.005373691 -0.004952528 1000
lala 6 1.2 1 second 11 1 214 6 6.780001 0.759997606277466 1 1 1 0 -0.00370944 -0.00252708 -0.001789229 -0.003620118 8.731541E-05 1000 -0.00370944 -0.00252708 -0.001789229 -0.003620118 8.731541E-05 1000 0.003788771 0.005477403 0.007816901 0.005587857 0.004267777 1000 0.003788771 0.005477403 0.007816901 0.005587857 0.004267777 1000
lala 21 0.075 1 second 0 1 215 4 7.4025 0.119998216629028 -1 0 1 1 -0.005813287 -0.005217296 -0.006977656 -0.009139585 -0.007665148 1000 -0.005813287 -0.005217296 -0.006977656 -0.009139585 -0.007665148 1000 -0.01999144 -0.02276802 -0.02473172 -0.02425432 -0.02336654 1000 -0.01999144 -0.02276802 -0.02473172 -0.02425432 -0.02336654 1000
lala 8 1.2 0 first 8 1 216 5 6.9 2.97999572753906 1 0 -1 0 -0.02381461 -0.02484602 -0.02565884 1000 1000 1000 -0.02381461 -0.02484602 -0.02565884 1000 1000 1000 -0.01806291 -0.01782455 -0.01779133 -0.01707501 -0.01553645 1000 -0.01806291 -0.01782455 -0.01779133 -0.01707501 -0.01553645 1000
lala 7 1.2 0 second 13 1 217 4 1.32 1.11999726295471 0 1 -1 1 -0.005857505 -0.006834306 -0.006691181 -0.005964678 -0.005964654 1000 -0.005857505 -0.006834306 -0.006691181 -0.005964678 -0.005964654 1000 -0.005804691 -0.005613453 -0.005547105 -0.00481372 -0.004657058 1000 -0.005804691 -0.005613453 -0.005547105 -0.00481372 -0.004657058 1000
lala 9 1.2 1 second 15 1 218 5 6.65 11.6801323890686 0 1 1 1 -0.0002871087 -0.001143236 -0.001153775 -0.0004365228 -0.0002469729 1000 -0.0002871087 -0.001143236 -0.001153775 -0.0004365228 -0.0002469729 1000 0.002792494 0.00312062 0.003796387 0.003594929 0.004410569 1000 0.002792494 0.00312062 0.003796387 0.003594929 0.004410569 1000
lala 7 1.2 1 first 11 1 219 6 5.580001 4.43999433517456 1 1 1 1 0.02109757 0.01690659 0.012695 1000 1000 1000 0.02109757 0.01690659 0.012695 1000 1000 1000 0.0001737377 -0.003583072 -0.004522425 -0.004992088 -0.005214762 1000 0.0001737377 -0.003583072 -0.004522425 -0.004992088 -0.005214762 1000
lala 12 0.6 0 first 14 1 220 5 5.1 0.39999794960022 0 0 -1 0 -0.007934998 -0.01180442 -0.0181143 1000 1000 1000 -0.007934998 -0.01180442 -0.0181143 1000 1000 1000 -0.0001615196 0.001943492 -0.004348909 -0.01598172 -0.01857063 1000 -0.0001615196 0.001943492 -0.004348909 -0.01598172 -0.01857063 1000
lala 9 1.2 0 first 8 1 221 5 8.099999 2.93999576568604 1 0 -1 1 0.01407652 0.01201499 -0.002069082 1000 1000 1000 0.01407652 0.01201499 -0.002069082 1000 1000 1000 0.01371925 0.01061572 0.007323877 0.006686531 0.006655654 1000 0.01371925 0.01061572 0.007323877 0.006686531 0.006655654 1000
lala 8 1.2 0 second 13 1 222 4 2.52 0.759997606277466 0 1 -1 1 -0.01986151 -0.02010093 -0.0203377 -0.02131259 -0.02133273 1000 -0.01986151 -0.02010093 -0.0203377 -0.02131259 -0.02133273 1000 -0.02350392 -0.02531894 -0.02707317 -0.02739155 -0.02608453 1000 -0.02350392 -0.02531894 -0.02707317 -0.02739155 -0.02608453 1000
lala 15 1.2 0 second 2 1 223 5 3.300001 1.5399968624115 -1 0 -1 1 -0.01636713 -0.01550203 -0.01795089 -0.01935975 -0.01900305 1000 -0.01636713 -0.01550203 -0.01795089 -0.01935975 -0.01900305 1000 -0.01970024 -0.02044963 -0.02062216 -0.01986733 -0.01981387 1000 -0.01970024 -0.02044963 -0.02062216 -0.01986733 -0.01981387 1000
lala 8 1.2 0 first 11 1 224 6 4.380001 0.859997510910034 1 1 -1 0 -0.01873961 -0.02245152 -0.0295506 1000 1000 1000 -0.01873961 -0.02245152 -0.0295506 1000 1000 1000 -0.01708732 -0.01928789 -0.01548085 -0.007987946 -0.002578479 1000 -0.01708732 -0.01928789 -0.01548085 -0.007987946 -0.002578479 1000
lala 9 1.2 1 first 11 1 225 6 5.580001 0.419997930526733 1 1 1 0 0.0114102 0.006594322 -0.001984918 1000 1000 1000 0.0114102 0.006594322 -0.001984918 1000 1000 1000 -0.009773322 -0.004345061 -0.009015338 -0.02250169 -0.03273547 1000 -0.009773322 -0.004345061 -0.009015338 -0.02250169 -0.03273547 1000
lala 10 2.4 0 first 8 1 226 5 10.5 1.03999733924866 1 0 -1 1 -0.01551815 -0.01137584 -0.01376104 1000 1000 1000 -0.01551815 -0.01137584 -0.01376104 1000 1000 1000 -0.02209204 -0.02270021 -0.01752724 -0.01327875 -0.01282286 1000 -0.02209204 -0.02270021 -0.01752724 -0.01327875 -0.01282286 1000
lala 16 0.6 1 first 9 1 227 5 3.95 4.91999387741089 1 1 1 1 -0.008215062 -0.006829859 -0.008352961 1000 1000 1000 -0.008215062 -0.006829859 -0.008352961 1000 1000 1000 -0.00736342 -0.007988627 -0.007397663 -0.006631442 -0.005959398 1000 -0.00736342 -0.007988627 -0.007397663 -0.006631442 -0.005959398 1000
lala 10 1.2 0 second 15 1 228 5 5.45 1.49999690055847 0 1 -1 1 0.0001707005 0.0001585223 0.001170245 0.001261621 0.0009598025 1000 0.0001707005 0.0001585223 0.001170245 0.001261621 0.0009598025 1000 -0.000735289 -7.279994E-05 -0.0003028751 0.0003273662 0.001323794 1000 -0.000735289 -7.279994E-05 -0.0003028751 0.0003273662 0.001323794 1000
lala 12 0.15 0 second 12 1 229 4 3.09 0.499997854232788 0 0 -1 0 0.006875386 0.006819692 0.006277945 0.006881514 0.00680722 1000 0.006875386 0.006819692 0.006277945 0.006881514 0.00680722 1000 0.005676335 0.005475036 0.004883945 0.004351059 0.0042279 1000 0.005676335 0.005475036 0.004883945 0.004351059 0.0042279 1000
lala 17 0.3 0 first 9 1 230 5 3.65 0.519997835159302 1 1 -1 1 0.00379233 0.003957636 0.004057912 1000 1000 1000 0.00379233 0.003957636 0.004057912 1000 1000 1000 0.002530328 0.002385815 0.002602979 0.002269346 0.002690898 1000 0.002530328 0.002385815 0.002602979 0.002269346 0.002690898 1000
lala 11 0.6 1 second 15 1 231 5 6.05 1.23999714851379 0 1 1 0 0.00186211 0.001272027 0.001745389 0.002209405 0.002176574 1000 0.00186211 0.001272027 0.001745389 0.002209405 0.002176574 1000 0.0005520299 -0.0004026642 0.0002093656 0.0001014665 0.0009594869 1000 0.0005520299 -0.0004026642 0.0002093656 0.0001014665 0.0009594869 1000
lala 13 1.2 1 second 14 1 232 5 6.3 7.72004175186157 0 0 1 0 0.002831839 0.00335118 0.003452057 0.003573309 0.003323732 1000 0.002831839 0.00335118 0.003452057 0.003573309 0.003323732 1000 0.002745472 0.002041122 0.002203543 0.002776856 0.002479097 1000 0.002745472 0.002041122 0.002203543 0.002776856 0.002479097 1000
lala 10 0.6 0 first 11 1 233 6 4.980001 6.00000238418579 1 1 -1 1 0.00373296 0.005845019 0.006703643 1000 1000 1000 0.00373296 0.005845019 0.006703643 1000 1000 1000 0.007547505 0.007591953 0.007955519 0.00782704 0.008719395 1000 0.007547505 0.007591953 0.007955519 0.00782704 0.008719395 1000
lala 11 0.3 1 first 11 1 234 6 5.280001 0.959997415542603 1 1 1 1 0.02386157 0.02281232 0.02070231 1000 1000 1000 0.02386157 0.02281232 0.02070231 1000 1000 1000 -0.01828164 -0.0105049 -0.01256355 -0.01575422 -0.012947 1000 -0.01828164 -0.0105049 -0.01256355 -0.01575422 -0.012947 1000
lala 14 0.6 1 second 14 1 235 5 5.7 0.859997510910034 0 0 1 0 -0.02312267 -0.02397419 -0.02450808 -0.02516792 -0.02505748 1000 -0.02312267 -0.02397419 -0.02450808 -0.02516792 -0.02505748 1000 -0.02642347 -0.02321024 -0.03071796 -0.02809989 -0.02300688 1000 -0.02642347 -0.02321024 -0.03071796 -0.02809989 -0.02300688 1000
lala 11 1.2 1 first 6 1 236 4 8.64 0.139998197555542 1 0 1 0 -0.02013133 -0.02608553 -0.02852741 1000 1000 1000 -0.02013133 -0.02608553 -0.02852741 1000 1000 1000 -0.007697741 -0.008432219 -0.007893343 -0.00420081 -0.003092 1000 -0.007697741 -0.008432219 -0.007893343 -0.00420081 -0.003092 1000
lala 12 1.2 1 second 6 1 237 4 7.440001 0.119998216629028 1 0 1 1 -0.007152073 -0.006972121 -0.006681015 -0.006864096 -0.008253266 1000 -0.007152073 -0.006972121 -0.006681015 -0.006864096 -0.008253266 1000 -0.01126669 -0.01116766 -0.01038838 -0.009494154 -0.01001098 1000 -0.01126669 -0.01116766 -0.01038838 -0.009494154 -0.01001098 1000
lala 18 0.15 1 second 9 1 238 5 3.8 0.01999831199646 1 1 1 1 -0.009608185 -0.009814176 -0.00965556 -0.01075177 -0.01129686 1000 -0.009608185 -0.009814176 -0.00965556 -0.01075177 -0.01129686 1000 -0.01096856 -0.01095755 -0.0118031 -0.01123536 -0.01221839 1000 -0.01096856 -0.01095755 -0.0118031 -0.01123536 -0.01221839 1000
lala 22 0.0375 1 second 0 1 239 4 7.365 0.01999831199646 -1 0 1 1 -0.01244251 -0.01291949 -0.01345808 -0.0131131 -0.01361184 1000 -0.01244251 -0.01291949 -0.01345808 -0.0131131 -0.01361184 1000 -0.01570165 -0.01534944 -0.01581525 -0.01558818 -0.01654546 1000 -0.01570165 -0.01534944 -0.01581525 -0.01558818 -0.01654546 1000
lala 13 1.2 1 second 6 1 240 4 6.240001 0.219998121261597 1 0 1 0 -0.0135721 -0.01408153 -0.0133055 -0.01242897 -0.01210229 1000 -0.0135721 -0.01408153 -0.0133055 -0.01242897 -0.01210229 1000 -0.003796224 -0.005068956 -0.006385994 -0.00666257 -0.005696233 1000 -0.003796224 -0.005068956 -0.006385994 -0.00666257 -0.005696233 1000
lala 14 0.6 0 second 16 1 241 6 3.78 0.339998006820679 0 0 -1 1 -0.00465552 -0.005086545 -0.004525797 -0.004198592 -0.00418784 1000 -0.00465552 -0.005086545 -0.004525797 -0.004198592 -0.00418784 1000 -0.004019536 -0.003420216 -0.004195871 -0.004198509 -0.004095451 1000 -0.004019536 -0.003420216 -0.004195871 -0.004198509 -0.004095451 1000
lala 7 1.2 1 second 7 1 242 4 5.32 0.119998216629028 1 1 1 1 -0.005911105 -0.005562754 -0.005595336 -0.005589619 -0.005213697 1000 -0.005911105 -0.005562754 -0.005595336 -0.005589619 -0.005213697 1000 -0.005532197 -0.005256189 -0.005788788 -0.005145804 -0.005063983 1000 -0.005532197 -0.005256189 -0.005788788 -0.005145804 -0.005063983 1000
lala 14 2.4 0 second 6 1 243 4 3.840001 0.359997987747192 1 0 -1 0 -0.004566472 -0.003884088 -0.004617206 -0.004275213 -0.004321144 1000 -0.004566472 -0.003884088 -0.004617206 -0.004275213 -0.004321144 1000 -0.00536729 -0.00525218 -0.004561024 -0.004813471 -0.004772981 1000 -0.00536729 -0.00525218 -0.004561024 -0.004813471 -0.004772981 1000
lala 11 4.8 1 first 8 1 244 5 15 0.01999831199646 1 0 1 0 -0.003752891 -0.003602534 -0.003288844 1000 1000 1000 -0.003752891 -0.003602534 -0.003288844 1000 1000 1000 -0.004363867 -0.00457511 -0.004169294 -0.004514336 -0.004482975 1000 -0.004363867 -0.00457511 -0.004169294 -0.004514336 -0.004482975 1000
lala 15 0.075 0 second 10 1 245 6 4.635 0.079998254776001 1 0 -1 0 -0.003560529 -0.003616358 -0.003445996 -0.00333594 -0.003401302 1000 -0.003560529 -0.003616358 -0.003445996 -0.00333594 -0.003401302 1000 -0.003612861 -0.004534783 -0.003911725 -0.003163861 -0.00285894 1000 -0.003612861 -0.004534783 -0.003911725 -0.003163861 -0.00285894 1000
lala 18 0.075 0 second 1 1 246 4 5.545 0.739997625350952 -1 1 -1 0 -0.003999467 -0.003493383 -0.003900957 -0.003304656 -0.003228888 1000 -0.003999467 -0.003493383 -0.003900957 -0.003304656 -0.003228888 1000 -0.003585743 -0.003412294 -0.003366948 -0.002401475 -0.003044959 1000 -0.003585743 -0.003412294 -0.003366948 -0.002401475 -0.003044959 1000
lala 19 0.075 1 second 1 1 247 4 5.619999 0.01999831199646 -1 1 1 1 -0.00354576 -0.003625733 -0.003614006 -0.003000058 -0.002940076 1000 -0.00354576 -0.003625733 -0.003614006 -0.003000058 -0.002940076 1000 -0.002690604 -0.001717966 -0.001830875 -0.001918694 -0.00203162 1000 -0.002690604 -0.001717966 -0.001830875 -0.001918694 -0.00203162 1000
lala 16 0.0375 0 second 10 1 248 6 4.6725 0.359997987747192 1 0 -1 0 -0.002977889 -0.00362885 -0.003064489 -0.003000691 -0.002933525 1000 -0.002977889 -0.00362885 -0.003064489 -0.003000691 -0.002933525 1000 -0.0008532985 -0.00121087 -0.0008287091 -0.001258164 -0.0008579158 1000 -0.0008532985 -0.00121087 -0.0008287091 -0.001258164 -0.0008579158 1000
lala 12 0.3 1 second 15 1 249 5 5.75 0.079998254776001 0 1 1 0 0.0001703105 -4.898947E-05 -0.0008168867 -0.0005640828 -0.0003640519 1000 0.0001703105 -4.898947E-05 -0.0008168867 -0.0005640828 -0.0003640519 1000 0.0004256537 0.0004900278 0.0009330958 0.0009822202 0.0007744455 1000 0.0004256537 0.0004900278 0.0009330958 0.0009822202 0.0007744455 1000
lala 19 0.075 0 second 9 1 250 5 3.725 0.459997892379761 1 1 -1 1 0.008943003 0.002984401 0.001016967 -0.0004999225 -0.002025164 1000 0.008943003 0.002984401 0.001016967 -0.0004999225 -0.002025164 1000 -0.01053775 -0.01015039 -0.008681769 -0.006819618 -0.005584594 1000 -0.01053775 -0.01015039 -0.008681769 -0.006819618 -0.005584594 1000
lala 17 0.0375 1 second 10 1 251 6 4.71 1.23999714851379 1 0 1 1 -0.0007869612 -0.001222886 -0.0009847034 0.000618358 0.0007147331 1000 -0.0007869612 -0.001222886 -0.0009847034 0.000618358 0.0007147331 1000 -0.0006836998 -0.0007075504 -0.001189952 -0.0009496631 -0.0005816884 1000 -0.0006836998 -0.0007075504 -0.001189952 -0.0009496631 -0.0005816884 1000
lala 13 0.3 1 second 15 1 252 5 5.449999 0.0999982357025146 0 1 1 0 0.002643087 0.002576153 0.002559071 0.002941248 0.002434235 1000 0.002643087 0.002576153 0.002559071 0.002941248 0.002434235 1000 0.001409757 0.00183288 0.001825259 0.002009229 0.001776285 1000 0.001409757 0.00183288 0.001825259 0.002009229 0.001776285 1000
lala 12 0.15 0 first 11 1 253 6 5.130001 0.259998083114624 1 1 -1 1 0.001444193 0.001562946 0.001502742 1000 1000 1000 0.001444193 0.001562946 0.001502742 1000 1000 1000 0.002346297 0.002714111 0.002618623 0.002973902 0.003568244 1000 0.002346297 0.002714111 0.002618623 0.002973902 0.003568244 1000
lala 13 0.075 0 first 11 1 254 6 5.205001 8.72006464004517 1 1 -1 0 0.004111337 0.004079562 0.003976421 1000 1000 1000 0.004111337 0.004079562 0.003976421 1000 1000 1000 0.005897675 0.006283079 0.006516175 0.006469643 0.00662579 1000 0.005897675 0.006283079 0.006516175 0.006469643 0.00662579 1000
lala 22 0.075 0 first 3 1 255 5 4.887499 0.919997453689575 -1 1 -1 0 0.005240433 0.00560564 0.005679022 1000 1000 1000 0.005240433 0.00560564 0.005679022 1000 1000 1000 -0.02603023 -0.02677066 -0.02468686 -0.02266638 -0.02003292 1000 -0.02603023 -0.02677066 -0.02468686 -0.02266638 -0.02003292 1000
lala 23 0.0375 1 second 0 1 256 4 7.3275 0.179998159408569 -1 0 1 0 -0.002524762 -0.003222658 -0.003383867 -0.004614039 -0.004496184 1000 -0.002524762 -0.003222658 -0.003383867 -0.004614039 -0.004496184 1000 -0.006715895 -0.006746157 -0.006477374 -0.006416609 -0.005884219 1000 -0.006715895 -0.006746157 -0.006477374 -0.006416609 -0.005884219 1000
lala 23 0.15 1 second 3 1 257 5 5.037499 0.259998083114624 -1 1 1 0 -0.004196101 -0.003488894 -0.002098978 -0.002158334 0.0007660985 1000 -0.004196101 -0.003488894 -0.002098978 -0.002158334 0.0007660985 1000 0.001133249 0.001289817 0.001586624 0.00113955 0.001327482 1000 0.001133249 0.001289817 0.001586624 0.00113955 0.001327482 1000
lala 11 0.3 0 second 4 1 258 6 6.06 0.219998121261597 -1 0 -1 1 -0.00119831 -0.001070157 -0.0007620206 -0.0004139897 -0.0005011841 1000 -0.00119831 -0.001070157 -0.0007620206 -0.0004139897 -0.0005011841 1000 -0.001092378 -0.001249713 -0.0004914932 -0.0004055046 -0.0005312765 1000 -0.001092378 -0.001249713 -0.0004914932 -0.0004055046 -0.0005312765 1000
lala 14 0.075 1 first 11 1 259 6 5.280001 0.079998254776001 1 1 1 0 -0.0004141617 -0.0005302292 -0.0001473858 1000 1000 1000 -0.0004141617 -0.0005302292 -0.0001473858 1000 1000 1000 0.001397192 0.0003961705 0.001188665 0.001994715 0.002156762 1000 0.001397192 0.0003961705 0.001188665 0.001994715 0.002156762 1000
lala 16 1.2 0 second 2 1 260 5 4.500001 0.139998197555542 -1 0 -1 0 0.001857785 0.00126755 0.002058409 0.002067357 0.00176825 1000 0.001857785 0.00126755 0.002058409 0.002067357 0.00176825 1000 0.001201999 0.001122999 0.001168356 0.001118181 0.001685839 1000 0.001201999 0.001122999 0.001168356 0.001118181 0.001685839 1000
lala 20 0.0375 0 first 9 1 261 5 3.7625 0.01999831199646 1 1 -1 0 0.000324951 0.0007667422 0.000873771 1000 1000 1000 0.000324951 0.0007667422 0.000873771 1000 1000 1000 0.001007961 0.001134791 0.001222719 0.0009722467 0.001103475 1000 0.001007961 0.001134791 0.001222719 0.0009722467 0.001103475 1000
lala 8 1.2 0 first 7 1 262 4 4.12 0.919997453689575 1 1 -1 1 0.0008520121 0.0006661183 0.001330452 1000 1000 1000 0.0008520121 0.0006661183 0.001330452 1000 1000 1000 0.004754755 0.004405685 0.00507705 0.006165468 0.006620557 1000 0.004754755 0.004405685 0.00507705 0.006165468 0.006620557 1000
lala 17 0.01875 1 second 17 1 263 6 5.280001 1.13999724388123 0 1 1 0 0.009135125 0.008687481 0.00903359 0.008963608 0.008920523 1000 0.009135125 0.008687481 0.00903359 0.008963608 0.008920523 1000 0.007456937 0.007713575 0.007636619 0.007993025 0.008436592 1000 0.007456937 0.007713575 0.007636619 0.007993025 0.008436592 1000
lala 14 0.3 0 second 15 1 264 5 5.149999 3.55999517440796 0 1 -1 1 0.0109479 0.01145252 0.01141627 0.01119898 0.01093165 1000 0.0109479 0.01145252 0.01141627 0.01119898 0.01093165 1000 0.01099933 0.01037077 0.01071264 0.01111955 0.01133155 1000 0.01099933 0.01037077 0.01071264 0.01111955 0.01133155 1000
lala 24 0.0375 1 first 0 1 265 4 7.29 0.339998006820679 -1 0 1 1 0.01422598 0.01489807 0.0150122 1000 1000 1000 0.01422598 0.01489807 0.0150122 1000 1000 1000 0.01740294 0.01772189 0.0179276 0.0183189 0.01826835 1000 0.01740294 0.01772189 0.0179276 0.0183189 0.01826835 1000
lala 12 0.3 0 second 4 1 266 6 6.36 0.519997835159302 -1 0 -1 1 0.01725244 0.01775215 0.01795138 0.0179726 0.01871907 1000 0.01725244 0.01775215 0.01795138 0.0179726 0.01871907 1000 0.0231901 0.0238136 0.02412109 0.02402217 0.02445753 1000 0.0231901 0.0238136 0.02412109 0.02402217 0.02445753 1000
lala 25 0.075 1 second 0 1 267 4 7.215001 0.579997777938843 -1 0 1 1 0.01713529 0.01814744 0.02181712 0.02441678 0.02400744 1000 0.01713529 0.01814744 0.02181712 0.02441678 0.02400744 1000 0.02156541 0.02304863 0.02256852 0.02037394 0.01906659 1000 0.02156541 0.02304863 0.02256852 0.02037394 0.01906659 1000
lala 15 0.6 0 second 14 1 268 5 5.1 0.259998083114624 0 0 -1 1 0.01885307 0.01665163 0.01040732 0.003613403 0.00579552 1000 0.01885307 0.01665163 0.01040732 0.003613403 0.00579552 1000 0.0193401 0.02110936 0.01836437 0.01180111 0.01149803 1000 0.0193401 0.02110936 0.01836437 0.01180111 0.01149803 1000
lala 18 0.01875 0 first 10 1 269 6 4.691249 2.67999601364136 1 0 -1 0 0.01448383 0.01481484 0.01230958 1000 1000 1000 0.01448383 0.01481484 0.01230958 1000 1000 1000 0.006398811 0.005841165 0.006664045 0.007072163 0.007602161 1000 0.006398811 0.005841165 0.006664045 0.007072163 0.007602161 1000
lala 26 0.15 1 first 0 1 270 4 7.065001 0.01999831199646 -1 0 1 0 0.01206447 0.01193982 0.0122399 1000 1000 1000 0.01206447 0.01193982 0.0122399 1000 1000 1000 0.01059588 0.01048626 0.01026889 0.01021075 0.009806369 1000 0.01059588 0.01048626 0.01026889 0.01021075 0.009806369 1000
lala 13 0.3 0 first 4 1 271 6 6.66 1.65999698638916 -1 0 -1 0 0.008426975 0.008705881 0.008134671 1000 1000 1000 0.008426975 0.008705881 0.008134671 1000 1000 1000 0.007484853 0.007584315 0.008043248 0.007865198 0.007777584 1000 0.007484853 0.007584315 0.008043248 0.007865198 0.007777584 1000
lala 24 0.075 1 second 3 1 272 5 4.9625 1.57999682426453 -1 1 1 1 0.002465682 0.001573066 0.001227981 -0.005687762 -0.01393033 1000 0.002465682 0.001573066 0.001227981 -0.005687762 -0.01393033 1000 0.01217937 0.01471184 0.01493944 0.009148485 -0.001037488 1000 0.01217937 0.01471184 0.01493944 0.009148485 -0.001037488 1000
lala 21 0.0375 0 first 9 1 273 5 3.8 3.97999477386475 1 1 -1 1 -0.01336065 -0.01057441 -0.006554483 1000 1000 1000 -0.01336065 -0.01057441 -0.006554483 1000 1000 1000 -0.009566569 -0.009650677 -0.01030674 -0.01223472 -0.01051252 1000 -0.009566569 -0.009650677 -0.01030674 -0.01223472 -0.01051252 1000
lala 20 0.0375 0 second 1 1 274 4 5.5825 0.419997930526733 -1 1 -1 0 -0.006742698 -0.007898872 -0.006557943 -0.005554781 -0.005343921 1000 -0.006742698 -0.007898872 -0.006557943 -0.005554781 -0.005343921 1000 -0.005582501 -0.006001056 -0.00703996 -0.006238395 -0.005879624 1000 -0.005582501 -0.006001056 -0.00703996 -0.006238395 -0.005879624 1000
lala 10 0.6 0 second 5 1 275 6 3.780001 0.159998178482056 -1 1 -1 0 -0.005128136 -0.005180754 -0.005278847 -0.005394662 -0.00521401 1000 -0.005128136 -0.005180754 -0.005278847 -0.005394662 -0.00521401 1000 -0.006479437 -0.00493688 -0.004158294 -0.004424726 -0.004360486 1000 -0.006479437 -0.00493688 -0.004158294 -0.004424726 -0.004360486 1000
lala 19 0.009375 1 second 10 1 276 6 4.700624 0.159998178482056 1 0 1 1 -0.000695215 0.0001918754 -0.0002223047 -0.0003981571 -0.0005992036 1000 -0.000695215 0.0001918754 -0.0002223047 -0.0003981571 -0.0005992036 1000 -0.002627783 -0.001554988 -0.000952605 -0.0007538112 -0.0006741643 1000 -0.002627783 -0.001554988 -0.000952605 -0.0007538112 -0.0006741643 1000
lala 13 0.15 0 first 12 1 277 4 3.24 0.659997701644897 0 0 -1 1 -0.0008985216 -0.000772378 -0.001704286 1000 1000 1000 -0.0008985216 -0.000772378 -0.001704286 1000 1000 1000 -0.00155433 -0.0001584501 0.0007702422 0.001026674 -0.0001513233 1000 -0.00155433 -0.0001584501 0.0007702422 0.001026674 -0.0001513233 1000
lala 25 0.075 0 second 3 1 278 5 4.8875 2.159996509552 -1 1 -1 1 0.004740025 0.005366934 0.007522529 0.008045224 0.008262953 1000 0.004740025 0.005366934 0.007522529 0.008045224 0.008262953 1000 0.008005313 0.008234163 0.007588405 0.007915476 0.009294619 1000 0.008005313 0.008234163 0.007588405 0.007915476 0.009294619 1000
lala 11 0.6 0 first 5 1 279 6 4.380001 1.67999696731567 -1 1 -1 1 0.01263286 0.01424248 0.01492451 1000 1000 1000 0.01263286 0.01424248 0.01492451 1000 1000 1000 0.01783372 0.01742346 0.01735953 0.01674415 0.01782542 1000 0.01783372 0.01742346 0.01735953 0.01674415 0.01782542 1000
lala 15 0.6 0 first 16 1 280 6 4.38 4.45999431610107 0 0 -1 1 0.01880947 0.01851714 0.02013527 1000 1000 1000 0.01880947 0.01851714 0.02013527 1000 1000 1000 0.02329442 0.02369221 0.02333045 0.02329868 0.02276934 1000 0.02329442 0.02369221 0.02333045 0.02329868 0.02276934 1000
lala 22 0.0375 1 first 9 1 281 5 3.8375 0.359997987747192 1 1 1 1 0.01183086 0.01154716 0.01039572 1000 1000 1000 0.01183086 0.01154716 0.01039572 1000 1000 1000 -0.0008013121 -0.006129131 -0.01044603 -0.01261027 -0.01352408 1000 -0.0008013121 -0.006129131 -0.01044603 -0.01261027 -0.01352408 1000
lala 15 0.15 1 second 15 1 282 5 5.299999 0.219998121261597 0 1 1 0 -0.01435892 -0.01308844 -0.0137847 -0.01366533 -0.01405713 1000 -0.01435892 -0.01308844 -0.0137847 -0.01366533 -0.01405713 1000 -0.01835089 -0.01941118 -0.01974653 -0.01984758 -0.02076722 1000 -0.01835089 -0.01941118 -0.01974653 -0.01984758 -0.02076722 1000
lala 27 0.3 1 second 0 1 283 4 6.765 0.01999831199646 -1 0 1 1 -0.01988152 -0.01932767 -0.01953726 -0.01933504 -0.01904155 1000 -0.01988152 -0.01932767 -0.01953726 -0.01933504 -0.01904155 1000 -0.02118869 -0.02047495 -0.02015453 -0.02011322 -0.02058172 1000 -0.02118869 -0.02047495 -0.02015453 -0.02011322 -0.02058172 1000
lala 18 0.009375 1 second 17 1 284 6 5.270626 0.119998216629028 0 1 1 1 -0.01906032 -0.01951167 -0.01849136 -0.01857676 -0.01851213 1000 -0.01906032 -0.01951167 -0.01849136 -0.01857676 -0.01851213 1000 -0.0202474 -0.01975946 -0.01988951 -0.01974316 -0.0185851 1000 -0.0202474 -0.01975946 -0.01988951 -0.01974316 -0.0185851 1000
lala 21 0.01875 0 first 1 1 285 4 5.60125 0.719997644424438 -1 1 -1 0 -0.01969698 -0.0190402 -0.01880703 1000 1000 1000 -0.01969698 -0.0190402 -0.01880703 1000 1000 1000 -0.01684966 -0.0174159 -0.0182695 -0.017473 -0.01778086 1000 -0.01684966 -0.0174159 -0.0182695 -0.017473 -0.01778086 1000
lala 16 0.6 1 first 16 1 286 6 4.98 1.57999682426453 0 0 1 0 -0.01778481 -0.01756677 -0.01817458 1000 1000 1000 -0.01778481 -0.01756677 -0.01817458 1000 1000 1000 -0.01009596 -0.009487361 -0.007742819 -0.00783889 -0.008011653 1000 -0.01009596 -0.009487361 -0.007742819 -0.00783889 -0.008011653 1000
lala 26 0.0375 0 second 3 1 287 5 4.925 8.42005777359009 -1 1 -1 1 -0.009160835 -0.0094741 -0.008434178 -0.008705075 -0.008664471 1000 -0.009160835 -0.0094741 -0.008434178 -0.008705075 -0.008664471 1000 -0.01131353 -0.0100194 -0.01014598 -0.009860127 -0.007808192 1000 -0.01131353 -0.0100194 -0.01014598 -0.009860127 -0.007808192 1000
lala 12 2.4 1 first 8 1 288 5 12.6 3.97999477386475 1 0 1 0 0.01649594 0.01591565 0.01541905 1000 1000 1000 0.01649594 0.01591565 0.01541905 1000 1000 1000 -0.00657884 -0.006294236 -0.006777524 -0.009143456 -0.01416886 1000 -0.00657884 -0.006294236 -0.006777524 -0.009143456 -0.01416886 1000
lala 16 0.075 0 first 15 1 289 5 5.224999 0.459997892379761 0 1 -1 1 -0.008811058 -0.009005138 -0.008739488 1000 1000 1000 -0.008811058 -0.009005138 -0.008739488 1000 1000 1000 -0.003840645 -0.001017576 0.002706802 0.003002864 0.002926636 1000 -0.003840645 -0.001017576 0.002706802 0.003002864 0.002926636 1000
lala 22 0.01875 0 first 1 1 290 4 5.62 0.0399982929229736 -1 1 -1 1 -0.006564175 -0.006929141 -0.00749528 1000 1000 1000 -0.006564175 -0.006929141 -0.00749528 1000 1000 1000 -0.01103671 -0.009483018 -0.008922071 -0.009089632 -0.008492299 1000 -0.01103671 -0.009483018 -0.008922071 -0.009089632 -0.008492299 1000
lala 17 0.3 1 second 16 1 291 6 4.68 0.199998140335083 0 0 1 0 -0.007880852 -0.007192908 -0.007232645 -0.00808049 -0.007453303 1000 -0.007880852 -0.007192908 -0.007232645 -0.00808049 -0.007453303 1000 -0.01098954 -0.01147297 -0.01040505 -0.009939204 -0.009987925 1000 -0.01098954 -0.01147297 -0.01040505 -0.009939204 -0.009987925 1000
lala 14 0.6 1 second 4 1 292 6 7.26 1.01999735832214 -1 0 1 0 -0.01213912 -0.01184006 -0.01119921 -0.01103368 -0.011003 1000 -0.01213912 -0.01184006 -0.01119921 -0.01103368 -0.011003 1000 -0.01206496 -0.01110164 -0.01074245 -0.01148893 -0.01056159 1000 -0.01206496 -0.01110164 -0.01074245 -0.01148893 -0.01056159 1000
lala 16 0.3 0 first 14 1 293 5 5.400001 3.71999502182007 0 0 -1 0 -0.0123311 -0.01226312 -0.01197212 1000 1000 1000 -0.0123311 -0.01226312 -0.01197212 1000 1000 1000 -0.01324996 -0.01356982 -0.01447688 -0.01397914 -0.01446581 1000 -0.01324996 -0.01356982 -0.01447688 -0.01397914 -0.01446581 1000
lala 20 0.0046875 1 second 10 1 294 6 4.695937 0.379997968673706 1 0 1 0 -0.01125465 -0.009519392 -0.0108122 -0.01001772 -0.009579925 1000 -0.01125465 -0.009519392 -0.0108122 -0.01001772 -0.009579925 1000 -0.0104095 -0.009460617 -0.009486913 -0.009361887 -0.00978033 1000 -0.0104095 -0.009460617 -0.009486913 -0.009361887 -0.00978033 1000
lala 23 0.01875 1 second 9 1 295 5 3.81875 0.459997892379761 1 1 1 1 -0.01238478 -0.01210383 -0.0130262 -0.01263539 -0.0126851 1000 -0.01238478 -0.01210383 -0.0130262 -0.01263539 -0.0126851 1000 -0.012933 -0.01158437 -0.0112754 -0.01125468 -0.01113529 1000 -0.012933 -0.01158437 -0.0112754 -0.01125468 -0.01113529 1000
lala 17 1.2 0 first 2 1 296 5 5.700001 5.43999338150024 -1 0 -1 1 -0.009342997 -0.009331988 -0.008989426 1000 1000 1000 -0.009342997 -0.009331988 -0.008989426 1000 1000 1000 -0.007352707 -0.006777015 -0.006009077 -0.006650778 -0.007349527 1000 -0.007352707 -0.006777015 -0.006009077 -0.006650778 -0.007349527 1000
lala 12 0.6 0 second 5 1 297 6 4.980001 3.27999544143677 -1 1 -1 0 0.01017649 0.01042974 0.01009081 0.01073124 0.01008273 1000 0.01017649 0.01042974 0.01009081 0.01073124 0.01008273 1000 0.006735072 0.006969051 0.007048597 0.006354675 0.005723335 1000 0.006735072 0.006969051 0.007048597 0.006354675 0.005723335 1000
lala 19 0.009375 1 second 17 1 298 6 5.261251 1.21999716758728 0 1 1 1 0.001599912 0.0003085744 -0.001114125 -0.004082858 -0.005168757 1000 0.001599912 0.0003085744 -0.001114125 -0.004082858 -0.005168757 1000 -0.01253549 -0.01395137 -0.01280002 -0.01215975 -0.01205384 1000 -0.01253549 -0.01395137 -0.01280002 -0.01215975 -0.01205384 1000
lala 14 0.15 0 first 12 1 299 4 3.39 2.09999656677246 0 0 -1 1 -0.01638179 -0.01740027 -0.01700459 1000 1000 1000 -0.01638179 -0.01740027 -0.01700459 1000 1000 1000 -0.02275123 -0.02273956 -0.0227452 -0.02339797 -0.02275329 1000 -0.02275123 -0.02273956 -0.0227452 -0.02339797 -0.02275329 1000
lala 23 0.01875 1 second 1 1 300 4 5.63875 0.179998159408569 -1 1 1 1 -0.006873945 -0.009069499 -0.01074784 -0.01340006 -0.01472785 1000 -0.006873945 -0.009069499 -0.01074784 -0.01340006 -0.01472785 1000 -0.03553477 -0.03672187 -0.03695209 -0.03259709 -0.03240289 1000 -0.03553477 -0.03672187 -0.03695209 -0.03259709 -0.03240289 1000
lala 17 0.3 1 second 14 1 301 5 5.700001 1.43999695777893 0 0 1 0 -0.02717852 -0.02785458 -0.02700082 -0.02717007 -0.02882146 1000 -0.02717852 -0.02785458 -0.02700082 -0.02717007 -0.02882146 1000 -0.03534169 -0.03404109 -0.03543923 -0.03696141 -0.03932118 1000 -0.03534169 -0.03404109 -0.03543923 -0.03696141 -0.03932118 1000
lala 21 0.0046875 1 first 10 1 302 6 4.69125 0.439997911453247 1 0 1 0 0.03265803 0.03192514 0.034241 1000 1000 1000 0.03265803 0.03192514 0.034241 1000 1000 1000 -0.03038046 -0.03018592 -0.0281448 -0.02520244 -0.03114 1000 -0.03038046 -0.03018592 -0.0281448 -0.02520244 -0.03114 1000
lala 18 0.15 1 second 14 1 303 5 5.550001 0.259998083114624 0 0 1 1 -0.03273002 -0.04830944 -0.04892559 -0.03796296 -0.01974017 1000 -0.03273002 -0.04830944 -0.04892559 -0.03796296 -0.01974017 1000 -0.005781718 0.003935019 0.009194874 -0.002362517 -0.01182218 1000 -0.005781718 0.003935019 0.009194874 -0.002362517 -0.01182218 1000
lala 15 0.3 1 second 4 1 304 6 6.96 0.179998159408569 -1 0 1 1 -0.01900209 -0.01865363 -0.01703157 -0.01697364 -0.0165473 1000 -0.01900209 -0.01865363 -0.01703157 -0.01697364 -0.0165473 1000 -0.01462072 -0.01507219 -0.01517428 -0.01521008 -0.01445007 1000 -0.01462072 -0.01507219 -0.01517428 -0.01521008 -0.01445007 1000
lala 22 0.0046875 0 first 10 1 305 6 4.686563 6.16000604629517 1 0 -1 1 -0.01233281 -0.01229047 -0.01172726 1000 1000 1000 -0.01233281 -0.01229047 -0.01172726 1000 1000 1000 -0.01135976 -0.01012397 -0.009228976 -0.009287662 -0.00945551 1000 -0.01135976 -0.01012397 -0.009228976 -0.009287662 -0.00945551 1000
lala 9 1.2 0 second 13 1 306 4 3.72 0.919997453689575 0 1 -1 0 0.00758973 0.006767282 0.007572112 0.006222954 0.003535291 1000 0.00758973 0.006767282 0.007572112 0.006222954 0.003535291 1000 0.001557657 0.001637308 0.002847051 0.003455599 0.005168899 1000 0.001557657 0.001637308 0.002847051 0.003455599 0.005168899 1000
lala 16 0.3 1 first 4 1 307 6 6.66 0.319998025894165 -1 0 1 1 0.006793473 0.006465408 -0.001827016 1000 1000 1000 0.006793473 0.006465408 -0.001827016 1000 1000 1000 -0.01400242 -0.02907503 -0.02174805 -0.01739187 -0.003505061 1000 -0.01400242 -0.02907503 -0.02174805 -0.01739187 -0.003505061 1000
lala 19 0.15 1 first 14 1 308 5 5.400001 0.419997930526733 0 0 1 1 -0.02424332 -0.01369248 -0.0113963 1000 1000 1000 -0.02424332 -0.01369248 -0.0113963 1000 1000 1000 -0.00201291 -0.003574163 -0.002925429 0.0005131824 0.0007676026 1000 -0.00201291 -0.003574163 -0.002925429 0.0005131824 0.0007676026 1000
lala 18 2.4 1 first 2 1 309 5 8.1 0.01999831199646 -1 0 1 1 -9.970424E-05 3.859762E-05 0.0004196805 1000 1000 1000 -9.970424E-05 3.859762E-05 0.0004196805 1000 1000 1000 -0.0006631041 -0.0001352918 0.0007638352 0.0015165 0.002529567 1000 -0.0006631041 -0.0001352918 0.0007638352 0.0015165 0.002529567 1000
lala 13 1.2 1 second 5 1 310 6 6.180001 12.1401429176331 -1 1 1 0 0.004389375 0.003699974 0.004089989 0.0044545 0.004636272 1000 0.004389375 0.003699974 0.004089989 0.0044545 0.004636272 1000 0.007851674 0.008505688 0.008272887 0.008852314 0.008887835 1000 0.007851674 0.008505688 0.008272887 0.008852314 0.008887835 1000
lala 17 0.0375 0 first 15 1 311 5 5.262499 0.39999794960022 0 1 -1 0 0.0159613 0.01594388 0.01639253 1000 1000 1000 0.0159613 0.01594388 0.01639253 1000 1000 1000 0.01029532 0.009310538 0.007260215 0.005282972 0.002038525 1000 0.01029532 0.009310538 0.007260215 0.005282972 0.002038525 1000
lala 15 1.2 0 first 6 1 312 4 5.040001 3.6199951171875 1 0 -1 0 -0.008914877 -0.008603891 -0.007233269 1000 1000 1000 -0.008914877 -0.008603891 -0.007233269 1000 1000 1000 -0.02495366 -0.02640197 -0.0207568 -0.02043538 -0.02110244 1000 -0.02495366 -0.02640197 -0.0207568 -0.02043538 -0.02110244 1000
lala 13 2.4 1 first 8 1 313 5 10.2 0.319998025894165 1 0 1 1 -0.007989262 -0.008147554 -0.008446472 1000 1000 1000 -0.007989262 -0.008147554 -0.008446472 1000 1000 1000 -0.0003435403 0.004233475 0.007773749 0.008917057 0.009666644 1000 -0.0003435403 0.004233475 0.007773749 0.008917057 0.009666644 1000
lala 15 0.3 0 second 12 1 314 4 3.69 0.659997701644897 0 0 -1 1 -0.02368125 -0.02358411 -0.02319609 -0.02193578 -0.02081924 1000 -0.02368125 -0.02358411 -0.02319609 -0.02193578 -0.02081924 1000 -0.02021097 -0.02046303 -0.02050804 -0.02006796 -0.02038171 1000 -0.02021097 -0.02046303 -0.02050804 -0.02006796 -0.02038171 1000
lala 18 0.3 1 first 16 1 315 6 4.38 1.55999684333801 0 0 1 0 -0.01608771 -0.01561195 -0.01496303 1000 1000 1000 -0.01608771 -0.01561195 -0.01496303 1000 1000 1000 -0.01041406 -0.01018766 -0.01030913 -0.009107479 -0.00867295 1000 -0.01041406 -0.01018766 -0.01030913 -0.009107479 -0.00867295 1000
lala 18 0.0375 1 first 15 1 316 5 5.299999 4.55999422073364 0 1 1 1 -0.006392329 -0.005926096 -0.005548244 1000 1000 1000 -0.006392329 -0.005926096 -0.005548244 1000 1000 1000 -0.001751569 -0.001595009 -0.001537066 -0.001192122 -0.001414297 1000 -0.001751569 -0.001595009 -0.001537066 -0.001192122 -0.001414297 1000
lala 28 0.6 0 first 0 1 317 4 6.165 1.83999681472778 -1 0 -1 1 0.002328413 0.002509258 0.002861215 1000 1000 1000 0.002328413 0.002509258 0.002861215 1000 1000 1000 0.003462597 0.003827906 0.004645532 0.004529801 0.004893141 1000 0.003462597 0.003827906 0.004645532 0.004529801 0.004893141 1000
lala 20 0.15 1 first 14 1 318 5 5.25 1.29999709129334 0 0 1 0 0.002717348 -0.0037287 -0.003260519 1000 1000 1000 0.002717348 -0.0037287 -0.003260519 1000 1000 1000 -0.008333855 -0.009056679 -0.009197028 -0.009499632 -0.01046499 1000 -0.008333855 -0.009056679 -0.009197028 -0.009499632 -0.01046499 1000
