subject PestNr Step_Size_OnTrial Pest_Faster Pest_Interval Condition block trial velH velH_Pest Reaction_Time velH_Subject Start_Above Response_MotionEstimation RightOrLeftxRotations_first0 xRotations_first1 xRotations_first2 xRotations_first3 xRotations_first4 xRotations_first5 yRotations_first0 yRotations_first1 yRotations_first2 yRotations_first3 yRotations_first4 yRotations_first5 xRotations_second0 xRotations_second1 xRotations_second2 xRotations_second3 xRotations_second4 xRotations_second5 yRotations_second0 yRotations_second1 yRotations_second2 yRotations_second3 yRotations_second4 yRotations_second5
lala 1 1.2 1 first 0 1 1 3 3.99 3.77999496459961 0 1 1 1 -0.01749795 -0.01762181 -0.01844921 -0.01935297 -0.01880445 1000 0.007191721 0.009683225 0.01096774 0.01034892 0.009297031 1000 -0.02382264 -0.02353154 -0.02343119 -0.02261012 -0.02287035 1000 0.009780957 0.01010012 -0.02343119 0.01098449 0.01054774 1000
lala 2 1.2 1 second 0 1 2 3 2.79 0.299998044967651 0 1 1 1 -0.01149083 -0.01117848 -0.0115429 -0.01165129 -0.01140919 1000 0.01124789 0.01096074 0.01103689 0.01092723 0.01122375 1000 -0.01331783 -0.01333207 -0.01328411 -0.01358763 -0.01282512 1000 0.0117989 0.01194599 -0.01328411 0.01258857 0.01244628 1000
lala 3 1.2 0 second 0 1 3 3 1.59 0.539997816085815 0 1 -1 1 -0.01153938 -0.01136896 -0.01134316 -0.01127982 -0.01178932 1000 0.01250035 0.01305416 0.01273808 0.01297069 0.01314013 1000 -0.01099233 -0.01149788 -0.01145787 -0.01070964 -0.01146344 1000 0.01311056 0.01311877 -0.01145787 0.01405423 0.01398805 1000
lala 4 1.2 0 first 0 1 4 3 2.79 1.03999733924866 0 1 -1 1 -0.01318911 -0.01272238 -0.01269462 -0.01264529 -0.01222272 1000 0.01468564 0.01449644 0.01466518 0.01428404 0.01460067 1000 -0.01174153 -0.01063457 -0.0103114 -0.01061322 -0.01097822 1000 0.01417166 0.01390353 -0.0103114 0.01379685 0.01446589 1000
lala 5 1.2 1 second 0 1 5 3 3.99 0.39999794960022 0 1 1 1 0.01279409 0.01301323 0.01198933 0.01134844 0.009776325 1000 0.01659289 0.01511937 0.01480662 0.015587 0.01522202 1000 0.005493438 0.006326647 0.006497458 0.006806596 0.006234512 1000 0.01322235 0.01354423 0.006497458 0.01347718 0.01330504 1000
lala 6 0.6 1 second 0 1 6 3 3.39 0.959997415542603 0 1 1 0 -8.376856E-05 -0.0002987431 -0.0008098432 -0.001047418 -0.00073147 1000 0.01395614 0.01361952 0.01342353 0.01281444 0.01347948 1000 -0.005294301 -0.004647276 -0.00433629 -0.0041848 -0.004200349 1000 0.01208361 0.01207045 -0.00433629 0.01089469 0.01095214 1000
lala 7 0.6 1 second 0 1 7 3 2.79 0.499997854232788 0 1 1 0 -0.006374521 -0.005818842 -0.005782435 -0.00518148 -0.005885368 1000 0.01207667 0.01247665 0.01173101 0.01110864 0.01097181 1000 -0.01016156 -0.01084448 -0.01028666 -0.009253629 -0.009235537 1000 0.01267558 0.01270676 -0.01028666 0.01220856 0.01152865 1000
lala 8 0.6 0 first 0 1 8 3 2.190001 0.419997930526733 0 1 -1 0 -0.008792265 -0.009067701 -0.009261579 -0.009940176 -0.009516628 1000 0.01047154 0.01007896 0.01039526 0.01046044 0.01107049 1000 -0.01091523 -0.01061706 -0.01007325 -0.01080597 -0.01132034 1000 0.01067261 0.0107519 -0.01007325 0.01113057 0.01153804 1000
lala 9 0.3 1 first 0 1 9 3 2.49 3.07999563217163 0 1 1 1 -0.01081759 -0.01077963 -0.01113417 -0.0117721 -0.01207714 1000 0.01205515 0.01137013 0.01157927 0.01178993 0.01256205 1000 -0.01288225 -0.0124339 -0.01222178 -0.01232419 -0.01285553 1000 0.01300222 0.01352975 -0.01222178 0.01381854 0.01369313 1000
lala 10 0.15 0 first 0 1 10 3 2.34 0.39999794960022 0 1 -1 1 0.0007164863 0.0006104457 -0.0003739215 -0.001253478 -0.0005404186 1000 0.008641236 0.009178123 0.009930945 0.009726414 0.01009539 1000 -0.002848695 -0.0028697 -0.002859203 -0.002754052 -0.002605467 1000 0.01219201 0.01172558 -0.002859203 0.01211823 0.01286709 1000
lala 11 0.075 1 second 0 1 11 3 2.415 0.439997911453247 0 1 1 0 -0.005692517 -0.005643353 -0.005932466 -0.005980385 -0.004542253 1000 0.01386949 0.01412562 0.01502952 0.01483278 0.01492071 1000 -0.005602531 -0.005549755 -0.006206164 -0.005134618 -0.005189471 1000 0.01417029 0.01357076 -0.006206164 0.0135066 0.01336559 1000
lala 12 0.0375 0 first 0 1 12 3 2.377501 0.639997720718384 0 1 -1 0 -0.006161146 -0.006790118 -0.005912107 -0.00573511 -0.006322371 1000 0.01373846 0.01262812 0.01264583 0.01306395 0.01240721 1000 -0.008914117 -0.009222155 -0.008131711 -0.008379569 -0.007730388 1000 0.01404313 0.01371921 -0.008131711 0.01298088 0.01222818 1000
lala 13 0.01875 0 second 0 1 13 3 2.39625 0.799997568130493 0 1 -1 0 -0.007759766 -0.008432692 -0.008500818 -0.009130921 -0.008659542 1000 0.01504224 0.01436078 0.01423542 0.01394233 0.01399789 1000 -0.01285762 -0.0125032 -0.01146677 -0.01136342 -0.01130339 1000 0.01467003 0.01427343 -0.01146677 0.01346888 0.01305865 1000
lala 14 0.01875 0 first 0 1 14 3 2.415 1.33999705314636 0 1 -1 0 -0.009499763 -0.009088793 -0.007763291 -0.00811522 -0.008160111 1000 0.0145591 0.0136072 0.01443425 0.01370206 0.01373457 1000 -0.01151943 -0.01128358 -0.01096366 -0.009383589 -0.009196 1000 0.01701122 0.01706158 -0.01096366 0.01560085 0.01503664 1000
lala 15 0.01875 1 second 0 1 15 3 2.43375 1.81999683380127 0 1 1 0 -0.002992919 -0.002734642 -0.003294568 -0.00374059 -0.003521486 1000 0.0186005 0.01824157 0.01799691 0.01754414 0.01741544 1000 -0.003977456 -0.003208285 -0.002960843 -0.002401485 -0.002078108 1000 0.02571072 0.02568164 -0.002960843 0.02369446 0.02366603 1000
lala 16 0.009375 1 first 0 1 16 3 2.424375 0.899997472763062 0 1 1 0 0.01415421 0.01353939 0.01316626 0.01296857 0.0127903 1000 0.01914211 0.01938288 0.01950722 0.01974111 0.01885953 1000 0.01468179 0.01472295 0.01473926 0.01420186 0.0144978 1000 0.02260743 0.02229461 0.01473926 0.02170773 0.02198405 1000
lala 17 0.009375 0 first 0 1 17 3 2.415 0.659997701644897 0 1 -1 0 0.01339543 0.01318531 0.01284198 0.01199933 0.01182717 1000 0.02255536 0.02243473 0.02231207 0.0219885 0.02206199 1000 0.01286159 0.01307134 0.0138238 0.01377405 0.01397271 1000 0.02474118 0.02401573 0.0138238 0.02207422 0.02095422 1000
lala 18 0.0046875 1 first 0 1 18 3 2.419688 0.879997491836548 0 1 1 1 0.01400814 0.01427327 0.01385488 0.01369435 0.01471964 1000 0.02179738 0.02222554 0.02253031 0.02202217 0.02338917 1000 0.01254017 0.01414619 0.01430297 0.01516424 0.01481717 1000 0.02219081 0.02129002 0.01430297 0.02175261 0.02095091 1000
lala 19 0.00234375 0 first 0 1 19 3 2.417344 0.359997987747192 0 1 -1 1 0.01470889 0.01417546 0.01307339 0.01344188 0.01274925 1000 0.02030475 0.02081553 0.02128005 0.02186351 0.0215966 1000 0.01255177 0.01341666 0.01361295 0.01388725 0.01325121 1000 0.02105051 0.02137032 0.01361295 0.02158647 0.02161848 1000
lala 20 0.001171875 0 first 0 1 20 3 2.418516 0.259998083114624 0 1 -1 0 0.008661484 0.008988044 0.009732557 0.01048181 0.0104347 1000 0.01255803 0.01362357 0.01349261 0.01380521 0.01324811 1000 0.008947142 0.00876064 0.009031629 0.008048198 0.00842639 1000 0.01343279 0.01388503 0.009031629 0.01404131 0.01415835 1000
lala 21 0.001171875 0 first 0 1 21 3 2.419688 0.719997644424438 0 1 -1 0 0.003641236 0.002784488 0.002779825 0.003695113 0.003556439 1000 0.01746848 0.01710848 0.01695085 0.01774957 0.01772914 1000 0.003255591 0.003042843 0.004169584 0.003707287 0.00381671 1000 0.01658016 0.01674312 0.004169584 0.0170337 0.01680287 1000
