subject PestNr Step_Size_OnTrial Pest_Faster Pest_Interval Condition block trial velH velH_Pest Reaction_Time velH_Subject Start_Above Response_MotionEstimation RightOrLeftxRotations_first0 xRotations_first1 xRotations_first2 xRotations_first3 xRotations_first4 xRotations_first5 yRotations_first0 yRotations_first1 yRotations_first2 yRotations_first3 yRotations_first4 yRotations_first5 xRotations_second0 xRotations_second1 xRotations_second2 xRotations_second3 xRotations_second4 xRotations_second5 yRotations_second0 yRotations_second1 yRotations_second2 yRotations_second3 yRotations_second4 yRotations_second5
lala 1 1.2 1 first 11 1 1 6 7.98 0.719997644424438 1 1 1 0 -0.02378105 -0.02468065 -0.02479783 -0.02391737 -0.02148176 -0.01392449 -0.02378105 -0.02468065 -0.02479783 -0.02391737 -0.02148176 -0.01392449 0.009971629 0.00964643 0.009960294 0.009859022 0.009301864 1000 0.009971629 0.00964643 0.009960294 0.009859022 0.009301864 1000
lala 1 1.2 0 first 2 1 2 5 3.3 0.539997816085815 -1 0 -1 0 0.008205708 0.00759631 0.006766054 1000 1000 1000 0.008205708 0.00759631 0.006766054 1000 1000 1000 0.00713924 0.007139862 0.00730025 0.007257904 0.007280436 1000 0.00713924 0.007139862 0.00730025 0.007257904 0.007280436 1000
lala 1 1.2 0 second 12 1 3 4 2.64 0.61999773979187 0 0 -1 1 0.007130402 0.007111165 0.007306759 0.007491513 0.006950449 1000 0.007130402 0.007111165 0.007306759 0.007491513 0.006950449 1000 0.006279354 0.006406257 0.00641322 0.00650135 0.006682766 1000 0.006279354 0.006406257 0.00641322 0.00650135 0.006682766 1000
lala 1 1.2 1 second 7 1 4 4 5.32 0.559997797012329 1 1 1 0 0.00695642 0.007229394 0.007084998 0.006421078 0.006558808 1000 0.00695642 0.007229394 0.007084998 0.006421078 0.006558808 1000 0.006792396 0.006514134 0.006287055 0.006461829 0.007212983 1000 0.006792396 0.006514134 0.006287055 0.006461829 0.007212983 1000
lala 2 1.2 1 second 7 1 5 4 4.12 0.779997587203979 1 1 1 0 0.006451447 0.006482288 0.007087973 0.007092926 0.006412579 1000 0.006451447 0.006482288 0.007087973 0.007092926 0.006412579 1000 0.00553454 0.005618926 0.00578919 0.005807616 0.005773349 1000 0.00553454 0.005618926 0.00578919 0.005807616 0.005773349 1000
lala 1 1.2 1 first 15 1 6 5 6.65 0.679997682571411 0 1 1 1 0.004791747 0.005112804 0.004957873 1000 1000 1000 0.004791747 0.005112804 0.004957873 1000 1000 1000 0.005137064 0.00465324 0.00457985 0.00485419 0.005255156 1000 0.005137064 0.00465324 0.00457985 0.00485419 0.005255156 1000
lala 2 1.2 1 first 15 1 7 5 5.45 1.03999733924866 0 1 1 1 0.003276376 0.003153156 0.003228483 1000 1000 1000 0.003276376 0.003153156 0.003228483 1000 1000 1000 0.002309727 0.002467015 0.002554493 0.002585748 0.002705942 1000 0.002309727 0.002467015 0.002554493 0.002585748 0.002705942 1000
lala 1 1.2 1 second 5 1 8 6 7.98 0.61999773979187 -1 1 1 0 0.001097869 0.001312646 0.001368216 0.001421587 0.001666483 1000 0.001097869 0.001312646 0.001368216 0.001421587 0.001666483 1000 0.001509991 0.001884314 0.001426599 0.001506268 0.001533552 1000 0.001509991 0.001884314 0.001426599 0.001506268 0.001533552 1000
lala 1 1.2 0 first 10 1 9 6 3.96 0.599997758865356 1 0 -1 0 0.001088478 0.001129845 0.0008837074 1000 1000 1000 0.001088478 0.001129845 0.0008837074 1000 1000 1000 0.0005343339 0.0006209405 3.088605E-05 -0.000128584 -0.0001041416 1000 0.0005343339 0.0006209405 3.088605E-05 -0.000128584 -0.0001041416 1000
lala 1 1.2 0 first 3 1 10 5 6.65 1.0999972820282 -1 1 -1 1 -0.00078509 -0.0007077073 -0.001111796 1000 1000 1000 -0.00078509 -0.0007077073 -0.001111796 1000 1000 1000 -0.00210439 -0.002637544 -0.002491858 -0.002446559 -0.002398161 1000 -0.00210439 -0.002637544 -0.002491858 -0.002446559 -0.002398161 1000
lala 2 1.2 1 first 11 1 11 6 6.780001 0.699997663497925 1 1 1 1 -0.003467384 -0.003444083 -0.003211566 1000 1000 1000 -0.003467384 -0.003444083 -0.003211566 1000 1000 1000 -0.004479455 -0.004067935 -0.004013896 -0.004428354 -0.004448567 1000 -0.004479455 -0.004067935 -0.004013896 -0.004428354 -0.004448567 1000
lala 3 1.2 1 first 11 1 12 6 5.580001 0.719997644424438 1 1 1 1 -0.005354513 -0.005597766 -0.005778354 1000 1000 1000 -0.005354513 -0.005597766 -0.005778354 1000 1000 1000 -0.006284662 -0.006744494 -0.006631975 -0.006618225 -0.006548835 1000 -0.006284662 -0.006744494 -0.006631975 -0.006618225 -0.006548835 1000
lala 1 1.2 0 first 8 1 13 5 3.3 0.519997835159302 1 0 -1 1 -0.006919088 -0.007055201 -0.007100831 1000 1000 1000 -0.006919088 -0.007055201 -0.007100831 1000 1000 1000 -0.007325097 -0.007099986 -0.007110221 -0.007361545 -0.007395525 1000 -0.007325097 -0.007099986 -0.007110221 -0.007361545 -0.007395525 1000
lala 4 1.2 1 first 11 1 14 6 4.380001 1.33999705314636 1 1 1 1 -0.008490111 -0.008689769 -0.008577916 1000 1000 1000 -0.008490111 -0.008689769 -0.008577916 1000 1000 1000 -0.008815552 -0.008496599 -0.008588058 -0.008779214 -0.008996713 1000 -0.008815552 -0.008496599 -0.008588058 -0.008779214 -0.008996713 1000
lala 2 1.2 0 first 2 1 15 5 4.5 1.35999703407288 -1 0 -1 0 -0.01029405 -0.01039454 -0.009965711 1000 1000 1000 -0.01029405 -0.01039454 -0.009965711 1000 1000 1000 -0.0110052 -0.01117942 -0.01104987 -0.01112347 -0.01120046 1000 -0.0110052 -0.01117942 -0.01104987 -0.01112347 -0.01120046 1000
lala 1 1.2 0 first 14 1 16 5 3.3 0.339998006820679 0 0 -1 0 -0.01121137 -0.01134147 -0.01155212 1000 1000 1000 -0.01121137 -0.01134147 -0.01155212 1000 1000 1000 -0.008564507 -0.008116166 -0.008408881 -0.008366013 -0.008458092 1000 -0.008564507 -0.008116166 -0.008408881 -0.008366013 -0.008458092 1000
lala 1 1.2 1 first 9 1 17 5 6.65 0.539997816085815 1 1 1 0 -0.007577801 -0.007534964 -0.007576345 1000 1000 1000 -0.007577801 -0.007534964 -0.007576345 1000 1000 1000 -0.008352869 -0.00834234 -0.008046702 -0.007619902 -0.008152489 1000 -0.008352869 -0.00834234 -0.008046702 -0.007619902 -0.008152489 1000
lala 2 1.2 0 first 8 1 18 5 4.5 0.799997568130493 1 0 -1 1 -0.008336333 -0.008490865 -0.00838016 1000 1000 1000 -0.008336333 -0.008490865 -0.00838016 1000 1000 1000 -0.008114086 -0.008200964 -0.008110438 -0.008046004 -0.00833058 1000 -0.008114086 -0.008200964 -0.008110438 -0.008046004 -0.00833058 1000
lala 1 1.2 1 second 13 1 19 4 5.32 1.03999733924866 0 1 1 1 -0.007986626 -0.00769488 -0.00771665 -0.00779818 -0.008060257 1000 -0.007986626 -0.00769488 -0.00771665 -0.00779818 -0.008060257 1000 -0.008579387 -0.008251181 -0.008168794 -0.008629851 -0.008572798 1000 -0.008579387 -0.008251181 -0.008168794 -0.008629851 -0.008572798 1000
lala 3 1.2 1 second 15 1 20 5 4.25 0.739997625350952 0 1 1 0 -0.008805472 -0.008498378 -0.008476201 -0.008933591 -0.009086098 1000 -0.008805472 -0.008498378 -0.008476201 -0.008933591 -0.009086098 1000 -0.009104417 -0.009342376 -0.009530014 -0.009487315 -0.009102862 1000 -0.009104417 -0.009342376 -0.009530014 -0.009487315 -0.009102862 1000
lala 2 1.2 0 first 12 1 21 4 3.84 0.859997510910034 0 0 -1 0 -0.01022806 -0.01040928 -0.01026052 1000 1000 1000 -0.01022806 -0.01040928 -0.01026052 1000 1000 1000 -0.01088007 -0.0106076 -0.01044352 -0.01074893 -0.01098475 1000 -0.01088007 -0.0106076 -0.01044352 -0.01074893 -0.01098475 1000
lala 2 1.2 1 first 9 1 22 5 5.45 0.819997549057007 1 1 1 0 -0.01135647 -0.01121434 -0.0116004 1000 1000 1000 -0.01135647 -0.01121434 -0.0116004 1000 1000 1000 -0.01212552 -0.01226006 -0.01218227 -0.01183822 -0.01170525 1000 -0.01212552 -0.01226006 -0.01218227 -0.01183822 -0.01170525 1000
lala 2 1.2 0 first 14 1 23 5 4.5 0.419997930526733 0 0 -1 1 -0.01272635 -0.01283711 -0.0125606 1000 1000 1000 -0.01272635 -0.01283711 -0.0125606 1000 1000 1000 -0.01306588 -0.01304962 -0.01284175 -0.01282476 -0.01334918 1000 -0.01306588 -0.01304962 -0.01284175 -0.01282476 -0.01334918 1000
lala 1 1.2 0 second 6 1 24 4 2.64 0.919997453689575 1 0 -1 0 -0.01261838 -0.01242597 -0.01256261 -0.01310733 -0.01319488 1000 -0.01261838 -0.01242597 -0.01256261 -0.01310733 -0.01319488 1000 -0.01343269 -0.01344757 -0.01326959 -0.0128028 -0.01269977 1000 -0.01343269 -0.01344757 -0.01326959 -0.0128028 -0.01269977 1000
lala 2 1.2 1 first 10 1 25 6 5.16 0.819997549057007 1 0 1 1 -0.01342939 -0.01402958 -0.01340298 1000 1000 1000 -0.01342939 -0.01402958 -0.01340298 1000 1000 1000 -0.01330542 -0.01369792 -0.01354738 -0.01340486 -0.01356473 1000 -0.01330542 -0.01369792 -0.01354738 -0.01340486 -0.01356473 1000
lala 3 1.2 0 first 2 1 26 5 5.7 1.33999705314636 -1 0 -1 1 -0.01290923 -0.01283079 -0.01288809 1000 1000 1000 -0.01290923 -0.01283079 -0.01288809 1000 1000 1000 -0.01319417 -0.01306907 -0.01322405 -0.01300301 -0.01317326 1000 -0.01319417 -0.01306907 -0.01322405 -0.01300301 -0.01317326 1000
lala 3 1.2 1 first 10 1 27 6 3.96 0.939997434616089 1 0 1 0 -0.01446099 -0.01416345 -0.01405194 1000 1000 1000 -0.01446099 -0.01416345 -0.01405194 1000 1000 1000 -0.01314068 -0.01335716 -0.01393501 -0.01411375 -0.01420456 1000 -0.01314068 -0.01335716 -0.01393501 -0.01411375 -0.01420456 1000
lala 3 1.2 1 first 8 1 28 5 5.7 0.939997434616089 1 0 1 1 -0.01386879 -0.01403336 -0.01394025 1000 1000 1000 -0.01386879 -0.01403336 -0.01394025 1000 1000 1000 -0.01348221 -0.01325885 -0.01352431 -0.01352455 -0.01360879 1000 -0.01348221 -0.01325885 -0.01352431 -0.01352455 -0.01360879 1000
lala 2 1.2 1 second 5 1 29 6 6.780001 0.779997587203979 -1 1 1 1 -0.01333571 -0.0133451 -0.01233988 -0.01194517 -0.01100542 1000 -0.01333571 -0.0133451 -0.01233988 -0.01194517 -0.01100542 1000 -0.01125979 -0.01161015 -0.01171903 -0.01180048 -0.01152045 1000 -0.01125979 -0.01161015 -0.01171903 -0.01180048 -0.01152045 1000
lala 1 1.2 0 first 0 1 30 4 2.64 0.779997587203979 -1 0 -1 0 -0.01117522 -0.01098968 -0.01112927 1000 1000 1000 -0.01117522 -0.01098968 -0.01112927 1000 1000 1000 -0.01135818 -0.01164245 -0.01163815 -0.01164889 -0.01122166 1000 -0.01135818 -0.01164245 -0.01163815 -0.01164889 -0.01122166 1000
lala 1 1.2 0 first 16 1 31 6 3.96 1.45999693870544 0 0 -1 1 -0.01127231 -0.0111408 -0.01077306 1000 1000 1000 -0.01127231 -0.0111408 -0.01077306 1000 1000 1000 -0.01169871 -0.01138826 -0.01139306 -0.01176316 -0.01176903 1000 -0.01169871 -0.01138826 -0.01139306 -0.01176316 -0.01176903 1000
lala 3 1.2 1 first 14 1 32 5 5.7 0.599997758865356 0 0 1 0 -0.01211867 -0.01208408 -0.01172963 1000 1000 1000 -0.01211867 -0.01208408 -0.01172963 1000 1000 1000 -0.01167391 -0.01182903 -0.0112551 -0.01131015 -0.01169991 1000 -0.01167391 -0.01182903 -0.0112551 -0.01131015 -0.01169991 1000
lala 4 1.2 1 second 14 1 33 5 4.5 0.339998006820679 0 0 1 1 -0.01124338 -0.01128166 -0.01150787 -0.01181009 -0.01176491 1000 -0.01124338 -0.01128166 -0.01150787 -0.01181009 -0.01176491 1000 -0.01161728 -0.01191598 -0.01247861 -0.01237179 -0.01235202 1000 -0.01161728 -0.01191598 -0.01247861 -0.01237179 -0.01235202 1000
lala 3 1.2 0 first 5 1 34 6 5.580001 1.13999724388123 -1 1 -1 0 -0.01286938 -0.01276137 -0.01248541 1000 1000 1000 -0.01286938 -0.01276137 -0.01248541 1000 1000 1000 -0.01225207 -0.012595 -0.01236008 -0.01212445 -0.01149754 1000 -0.01225207 -0.012595 -0.01236008 -0.01212445 -0.01149754 1000
lala 3 1.2 0 second 9 1 35 5 4.25 0.779997587203979 1 1 -1 1 0.01250038 0.01399743 0.01404189 0.01384562 0.01331079 1000 0.01250038 0.01399743 0.01404189 0.01384562 0.01331079 1000 0.01417164 0.01400087 0.01340812 0.01336166 0.01354166 1000 0.01417164 0.01400087 0.01340812 0.01336166 0.01354166 1000
lala 3 1.2 1 first 7 1 36 4 2.92 1.89999675750732 1 1 1 0 0.01377835 0.01377551 0.01394741 1000 1000 1000 0.01377835 0.01377551 0.01394741 1000 1000 1000 0.01193235 0.01220121 0.01157047 0.01133919 0.01125873 1000 0.01193235 0.01220121 0.01157047 0.01133919 0.01125873 1000
lala 1 1.2 1 second 1 1 37 4 5.32 0.779997587203979 -1 1 1 1 0.009634556 0.009615984 0.009501519 0.009366708 0.00927691 1000 0.009634556 0.009615984 0.009501519 0.009366708 0.00927691 1000 0.00899286 0.009094046 0.008702595 0.008817696 0.00878624 1000 0.00899286 0.009094046 0.008702595 0.008817696 0.00878624 1000
lala 4 1.2 1 second 9 1 38 5 5.45 0.839997529983521 1 1 1 0 0.008761767 0.008571285 0.008549849 0.008427347 0.008137885 1000 0.008761767 0.008571285 0.008549849 0.008427347 0.008137885 1000 0.007878247 0.00775534 0.007919621 0.008158754 0.008575571 1000 0.007878247 0.00775534 0.007919621 0.008158754 0.008575571 1000
lala 2 1.2 1 first 13 1 39 4 4.12 1.57999682426453 0 1 1 1 0.007256694 0.007092395 0.007430423 1000 1000 1000 0.007256694 0.007092395 0.007430423 1000 1000 1000 0.006535432 0.006553344 0.006267759 0.006565967 0.006620406 1000 0.006535432 0.006553344 0.006267759 0.006565967 0.006620406 1000
lala 2 1.2 0 first 6 1 40 4 3.84 0.839997529983521 1 0 -1 1 0.005446811 0.004893435 0.004770769 1000 1000 1000 0.005446811 0.004893435 0.004770769 1000 1000 1000 0.005232264 0.004676204 0.005056399 0.004998223 0.00444227 1000 0.005232264 0.004676204 0.005056399 0.004998223 0.00444227 1000
lala 1 1.2 1 first 17 1 41 6 7.98 0.419997930526733 0 1 1 1 0.004556826 0.004642183 0.004630875 1000 1000 1000 0.004556826 0.004642183 0.004630875 1000 1000 1000 0.004135933 0.004020976 0.004114184 0.004311034 0.004296761 1000 0.004135933 0.004020976 0.004114184 0.004311034 0.004296761 1000
lala 4 1.2 0 first 7 1 42 4 1.72 0.339998006820679 1 1 -1 0 0.003754582 0.003757397 0.003635866 1000 1000 1000 0.003754582 0.003757397 0.003635866 1000 1000 1000 0.002920303 0.003053529 0.003441318 0.003425515 0.003299047 1000 0.002920303 0.003053529 0.003441318 0.003425515 0.003299047 1000
lala 3 1.2 1 second 6 1 43 4 5.04 1.37999701499939 1 0 1 0 0.003313244 0.003145206 0.003370389 0.003449902 0.003170331 1000 0.003313244 0.003145206 0.003370389 0.003449902 0.003170331 1000 0.003906311 0.004018746 0.003847225 0.004256216 0.004433037 1000 0.003906311 0.004018746 0.003847225 0.004256216 0.004433037 1000
lala 2 1.2 1 second 0 1 44 4 3.84 1.83999681472778 -1 0 1 0 0.00303461 0.0028708 0.003070559 0.00309349 0.003269427 1000 0.00303461 0.0028708 0.003070559 0.00309349 0.003269427 1000 0.002473652 0.002137468 0.0021021 0.002390828 0.002517808 1000 0.002473652 0.002137468 0.0021021 0.002390828 0.002517808 1000
lala 1 1.2 0 first 4 1 45 6 3.96 1.27999711036682 -1 0 -1 0 -0.0004202809 -0.006657466 -0.01060556 1000 1000 1000 -0.0004202809 -0.006657466 -0.01060556 1000 1000 1000 0.01918529 0.02292145 0.0245394 0.02314425 0.02178883 1000 0.01918529 0.02292145 0.0245394 0.02314425 0.02178883 1000
lala 3 1.2 1 first 12 1 46 4 5.04 0.499997854232788 0 0 1 0 0.01851091 0.01901964 0.01976381 1000 1000 1000 0.01851091 0.01901964 0.01976381 1000 1000 1000 0.01979534 0.01994825 0.01977949 0.01997588 0.02001774 1000 0.01979534 0.01994825 0.01977949 0.01997588 0.02001774 1000
lala 5 1.2 0 first 11 1 47 6 3.180001 0.559997797012329 1 1 -1 0 0.01943157 0.01972388 0.01983615 1000 1000 1000 0.01943157 0.01972388 0.01983615 1000 1000 1000 0.01919238 0.01922776 0.01893441 0.01857426 0.01853989 1000 0.01919238 0.01922776 0.01893441 0.01857426 0.01853989 1000
lala 4 1.2 0 first 2 1 48 5 6.9 1.13999724388123 -1 0 -1 0 0.01810595 0.01837219 0.01813753 1000 1000 1000 0.01810595 0.01837219 0.01813753 1000 1000 1000 0.01741142 0.01796192 0.01827388 0.01837281 0.01865949 1000 0.01741142 0.01796192 0.01827388 0.01837281 0.01865949 1000
lala 4 1.2 0 second 10 1 49 6 2.76 1.65999698638916 1 0 -1 1 0.01797055 0.01808039 0.0176205 0.01755413 0.01753473 1000 0.01797055 0.01808039 0.0176205 0.01755413 0.01753473 1000 0.01730448 0.01714137 0.01749357 0.01735224 0.01701695 1000 0.01730448 0.01714137 0.01749357 0.01735224 0.01701695 1000
lala 4 1.2 0 first 15 1 50 5 3.05 0.799997568130493 0 1 -1 1 0.01112344 0.01136588 0.01185424 0.01215287 0.01211329 0.01205348 0.01112344 0.01136588 0.01185424 0.01215287 0.01211329 0.01205348 0.01258342 0.01255058 0.01263925 0.01277137 0.01281882 1000 0.01258342 0.01255058 0.01263925 0.01277137 0.01281882 1000
lala 4 1.2 0 first 6 1 51 4 3.84 0.299998044967651 1 0 -1 1 0.01308614 0.01296203 0.01299984 1000 1000 1000 0.01308614 0.01296203 0.01299984 1000 1000 1000 0.01302258 0.01300659 0.01310289 0.0133461 0.01367299 1000 0.01302258 0.01300659 0.01310289 0.0133461 0.01367299 1000
lala 5 1.2 0 first 6 1 52 4 5.04 1.33999705314636 1 0 -1 1 0.01311059 0.0128484 0.01256706 1000 1000 1000 0.01311059 0.0128484 0.01256706 1000 1000 1000 0.01344157 0.01336144 0.01282525 0.01283983 0.01280082 1000 0.01344157 0.01336144 0.01282525 0.01283983 0.01280082 1000
lala 5 1.2 0 first 10 1 53 6 3.96 0.419997930526733 1 0 -1 1 0.01252219 0.01240426 0.01295656 1000 1000 1000 0.01252219 0.01240426 0.01295656 1000 1000 1000 0.01240047 0.01251021 0.01312469 0.01304747 0.01261449 1000 0.01240047 0.01251021 0.01312469 0.01304747 0.01261449 1000
lala 5 1.2 1 first 2 1 54 5 8.099999 1.47999691963196 -1 0 1 1 0.01283123 0.01251032 0.01252832 1000 1000 1000 0.01283123 0.01251032 0.01252832 1000 1000 1000 0.01255555 0.01236646 0.01242256 0.01242231 0.01275499 1000 0.01255555 0.01236646 0.01242256 0.01242231 0.01275499 1000
lala 6 1.2 0 first 11 1 55 6 4.380001 0.559997797012329 1 1 -1 1 0.01172128 0.01150437 0.01147178 1000 1000 1000 0.01172128 0.01150437 0.01147178 1000 1000 1000 0.01207372 0.01203822 0.01187232 0.01173161 0.01221374 1000 0.01207372 0.01203822 0.01187232 0.01173161 0.01221374 1000
lala 5 1.2 0 second 14 1 56 5 3.3 0.459997892379761 0 0 -1 0 0.01192806 0.01238234 0.01226497 0.01176814 0.01155253 1000 0.01192806 0.01238234 0.01226497 0.01176814 0.01155253 1000 0.01153809 0.01151553 0.01147494 0.01159243 0.0117151 1000 0.01153809 0.01151553 0.01147494 0.01159243 0.0117151 1000
lala 5 1.2 0 second 15 1 57 5 4.25 0.479997873306274 0 1 -1 1 0.01039021 0.01087257 0.01059688 0.0103238 0.01047735 1000 0.01039021 0.01087257 0.01059688 0.0103238 0.01047735 1000 0.01058275 0.0103102 0.01037392 0.01057859 0.010679 1000 0.01058275 0.0103102 0.01037392 0.01057859 0.010679 1000
lala 4 1.2 1 second 5 1 58 6 6.780001 0.39999794960022 -1 1 1 0 0.00998184 0.01038035 0.01055124 0.01000947 0.01004586 1000 0.00998184 0.01038035 0.01055124 0.01000947 0.01004586 1000 0.01052924 0.0103748 0.01024708 0.01019304 0.01022656 1000 0.01052924 0.0103748 0.01024708 0.01019304 0.01022656 1000
lala 2 1.2 1 first 3 1 59 5 7.85 0.61999773979187 -1 1 1 0 0.009271182 0.008248863 0.005593271 1000 1000 1000 0.009271182 0.008248863 0.005593271 1000 1000 1000 0.006676016 0.007351784 0.008006223 0.008081745 0.007957879 1000 0.006676016 0.007351784 0.008006223 0.008081745 0.007957879 1000
lala 5 1.2 0 second 9 1 60 5 4.25 0.499997854232788 1 1 -1 1 0.01052646 0.01113751 0.01151107 0.01190508 0.01268113 1000 0.01052646 0.01113751 0.01151107 0.01190508 0.01268113 1000 0.01350502 0.01342677 0.01351781 0.01352209 0.01381067 1000 0.01350502 0.01342677 0.01351781 0.01352209 0.01381067 1000
lala 6 1.2 1 first 15 1 61 5 5.45 1.11999726295471 0 1 1 0 0.01292278 0.0129717 0.01270954 1000 1000 1000 0.01292278 0.0129717 0.01270954 1000 1000 1000 0.01252126 0.01267647 0.01308395 0.0127863 0.01217799 1000 0.01252126 0.01267647 0.01308395 0.0127863 0.01217799 1000
lala 4 1.2 0 first 12 1 62 4 3.84 0.559997797012329 0 0 -1 1 0.01159585 0.01180879 0.01193332 1000 1000 1000 0.01159585 0.01180879 0.01193332 1000 1000 1000 0.01045541 0.01086558 0.0110429 0.01056277 0.01067771 1000 0.01045541 0.01086558 0.0110429 0.01056277 0.01067771 1000
lala 3 1.2 0 second 13 1 63 4 2.92 0.459997892379761 0 1 -1 0 0.01037681 0.01047135 0.01049869 0.01037741 0.01051433 1000 0.01037681 0.01047135 0.01049869 0.01037741 0.01051433 1000 0.01015794 0.009901184 0.009373677 0.009475285 0.009653286 1000 0.01015794 0.009901184 0.009373677 0.009475285 0.009653286 1000
lala 4 1.2 0 first 8 1 64 5 4.5 1.05999732017517 1 0 -1 0 0.00970118 0.009846417 0.01034956 1000 1000 1000 0.00970118 0.009846417 0.01034956 1000 1000 1000 0.009140797 0.009661632 0.009811788 0.009534942 0.009570451 1000 0.009140797 0.009661632 0.009811788 0.009534942 0.009570451 1000
lala 6 1.2 0 first 9 1 65 5 5.45 0.459997892379761 1 1 -1 1 0.009178276 0.009312761 0.009156524 1000 1000 1000 0.009178276 0.009312761 0.009156524 1000 1000 1000 0.009520084 0.0096631 0.01007272 0.01043403 0.01060928 1000 0.009520084 0.0096631 0.01007272 0.01043403 0.01060928 1000
lala 6 1.2 1 second 2 1 66 5 6.9 0.419997930526733 -1 0 1 0 0.009392895 0.009967896 0.009959723 0.009392302 0.00951812 1000 0.009392895 0.009967896 0.009959723 0.009392302 0.00951812 1000 0.009408856 0.009354996 0.009772456 0.009890866 0.00983525 1000 0.009408856 0.009354996 0.009772456 0.009890866 0.00983525 1000
lala 7 1.2 1 second 9 1 67 5 6.65 0.359997987747192 1 1 1 0 0.008115816 0.008068844 0.008167214 0.008475583 0.008848208 1000 0.008115816 0.008068844 0.008167214 0.008475583 0.008848208 1000 0.008559469 0.008309356 0.008219226 0.008349039 0.008266696 1000 0.008559469 0.008309356 0.008219226 0.008349039 0.008266696 1000
lala 5 1.2 1 first 5 1 68 6 5.580001 0.779997587203979 -1 1 1 0 0.007986805 0.008003296 0.008177701 1000 1000 1000 0.007986805 0.008003296 0.008177701 1000 1000 1000 0.006955368 0.007601264 0.007625379 0.007067473 0.00703914 1000 0.006955368 0.007601264 0.007625379 0.007067473 0.00703914 1000
lala 6 1.2 1 second 6 1 69 4 6.24 0.719997644424438 1 0 1 0 0.006650364 0.006170614 0.005696279 0.005544199 0.006026758 1000 0.006650364 0.006170614 0.005696279 0.005544199 0.006026758 1000 0.006410242 0.006077878 0.006312071 0.006238601 0.006218659 1000 0.006410242 0.006077878 0.006312071 0.006238601 0.006218659 1000
lala 7 1.2 1 first 6 1 70 4 5.04 0.719997644424438 1 0 1 0 0.005454463 0.00568976 0.005706292 1000 1000 1000 0.005454463 0.00568976 0.005706292 1000 1000 1000 0.005370053 0.005141085 0.005059781 0.004988742 0.005454866 1000 0.005370053 0.005141085 0.005059781 0.004988742 0.005454866 1000
lala 6 1.2 0 second 10 1 71 6 5.16 1.31999707221985 1 0 -1 0 0.005853316 0.005480763 0.005609374 0.005434957 0.005301008 1000 0.005853316 0.005480763 0.005609374 0.005434957 0.005301008 1000 0.005276379 0.005507929 0.005415836 0.005174658 0.005523342 1000 0.005276379 0.005507929 0.005415836 0.005174658 0.005523342 1000
lala 3 1.2 1 second 3 1 72 5 6.650001 0.519997835159302 -1 1 1 0 0.003461438 0.003542558 0.003467088 0.003678609 0.003769231 1000 0.003461438 0.003542558 0.003467088 0.003678609 0.003769231 1000 0.003470575 0.00362728 0.00339529 0.003309052 0.003390211 1000 0.003470575 0.00362728 0.00339529 0.003309052 0.003390211 1000
lala 5 1.2 1 second 8 1 73 5 5.7 0.379997968673706 1 0 1 0 0.00393605 0.003830701 0.003965201 0.004066391 0.004173069 1000 0.00393605 0.003830701 0.003965201 0.004066391 0.004173069 1000 0.002722911 0.00266972 0.003056253 0.003053927 0.002977668 1000 0.002722911 0.00266972 0.003056253 0.003053927 0.002977668 1000
lala 5 1.2 1 first 12 1 74 4 5.04 0.719997644424438 0 0 1 0 0.003352233 0.003526509 0.003585578 1000 1000 1000 0.003352233 0.003526509 0.003585578 1000 1000 1000 0.003021515 0.002667565 0.002942654 0.003127412 0.003125398 1000 0.003021515 0.002667565 0.002942654 0.003127412 0.003125398 1000
lala 7 1.2 0 second 15 1 75 5 4.25 0.99999737739563 0 1 -1 1 0.002565074 0.002376016 0.002719855 0.002803516 0.002357916 1000 0.002565074 0.002376016 0.002719855 0.002803516 0.002357916 1000 0.002454996 0.002321936 0.002236904 0.002141517 0.002169156 1000 0.002454996 0.002321936 0.002236904 0.002141517 0.002169156 1000
lala 8 1.2 1 second 9 1 76 5 5.45 0.39999794960022 1 1 1 1 0.0009997573 0.0009063244 0.001191457 0.001206013 0.001118551 1000 0.0009997573 0.0009063244 0.001191457 0.001206013 0.001118551 1000 0.0008758138 0.0009127865 0.001250664 0.001128136 0.0004990536 1000 0.0008758138 0.0009127865 0.001250664 0.001128136 0.0004990536 1000
lala 2 1.2 0 second 1 1 77 4 4.12 0.279998064041138 -1 1 -1 1 0.0006775936 0.0006440681 0.0007624899 0.0006210548 0.0004127408 1000 0.0006775936 0.0006440681 0.0007624899 0.0006210548 0.0004127408 1000 -0.0004728256 -0.000490356 -0.0005784382 -0.0005623954 -0.0007887496 1000 -0.0004728256 -0.000490356 -0.0005784382 -0.0005623954 -0.0007887496 1000
lala 6 1.2 0 first 14 1 78 5 4.5 1.15999722480774 0 0 -1 0 -0.001274607 -0.0008422977 -0.001093075 1000 1000 1000 -0.001274607 -0.0008422977 -0.001093075 1000 1000 1000 -0.001062567 -0.001268949 -0.001569395 -0.00166459 -0.00201076 1000 -0.001062567 -0.001268949 -0.001569395 -0.00166459 -0.00201076 1000
lala 7 1.2 1 first 11 1 79 6 5.580001 0.579997777938843 1 1 1 1 -0.001891916 -0.002011538 -0.001547191 1000 1000 1000 -0.001891916 -0.002011538 -0.001547191 1000 1000 1000 -0.001682813 -0.001140346 -0.0008142057 -0.001141505 -0.001184361 1000 -0.001682813 -0.001140346 -0.0008142057 -0.001141505 -0.001184361 1000
lala 7 1.2 1 second 14 1 80 5 5.7 0.259998083114624 0 0 1 1 -0.001946012 -0.00189254 -0.001593612 -0.001491001 -0.001472281 1000 -0.001946012 -0.00189254 -0.001593612 -0.001491001 -0.001472281 1000 -0.0013604 -0.001495733 -0.001803702 -0.001903684 -0.001988518 1000 -0.0013604 -0.001495733 -0.001803702 -0.001903684 -0.001988518 1000
lala 2 1.2 0 second 17 1 81 6 6.780001 1.7199969291687 0 1 -1 1 -0.001458026 -0.001268653 -0.0006819522 -0.0006893479 -0.001308716 1000 -0.001458026 -0.001268653 -0.0006819522 -0.0006893479 -0.001308716 1000 -0.001675165 -0.001237827 -0.001119338 -0.001657253 -0.001524462 1000 -0.001675165 -0.001237827 -0.001119338 -0.001657253 -0.001524462 1000
lala 8 1.2 0 second 11 1 82 6 4.380001 0.519997835159302 1 1 -1 0 -0.001585306 -0.001388315 -0.001159727 -0.0009402554 -0.001357693 1000 -0.001585306 -0.001388315 -0.001159727 -0.0009402554 -0.001357693 1000 -0.001791361 -0.001728868 -0.001779684 -0.001754116 -0.00172068 1000 -0.001791361 -0.001728868 -0.001779684 -0.001754116 -0.00172068 1000
lala 3 1.2 1 first 17 1 83 6 7.98 0.539997816085815 0 1 1 1 -0.001361885 -0.001419629 -0.000864453 1000 1000 1000 -0.001361885 -0.001419629 -0.000864453 1000 1000 1000 -0.001364666 -0.001545018 -0.001408833 -0.001088539 -0.001174211 1000 -0.001364666 -0.001545018 -0.001408833 -0.001088539 -0.001174211 1000
lala 6 1.2 0 second 12 1 84 4 3.84 0.339998006820679 0 0 -1 1 -0.001214897 -0.001587192 -0.001635177 -0.001711271 -0.001605343 1000 -0.001214897 -0.001587192 -0.001635177 -0.001711271 -0.001605343 1000 -0.001634858 -0.001400108 -0.001839163 -0.001708962 -0.001813566 1000 -0.001634858 -0.001400108 -0.001839163 -0.001708962 -0.001813566 1000
lala 6 1.2 0 second 5 1 85 6 4.380001 0.499997854232788 -1 1 -1 1 -0.001682351 -0.002017919 -0.002126754 -0.002063354 -0.002015013 1000 -0.001682351 -0.002017919 -0.002126754 -0.002063354 -0.002015013 1000 -0.002679069 -0.002402655 -0.002170444 -0.002736606 -0.002463301 1000 -0.002679069 -0.002402655 -0.002170444 -0.002736606 -0.002463301 1000
lala 9 1.2 1 first 11 1 86 6 5.580001 0.99999737739563 1 1 1 1 -0.00213682 -0.001818983 -0.001701512 1000 1000 1000 -0.00213682 -0.001818983 -0.001701512 1000 1000 1000 -0.002736337 -0.002261865 -0.002264393 -0.002712425 -0.002993629 1000 -0.002736337 -0.002261865 -0.002264393 -0.002712425 -0.002993629 1000
lala 7 1.2 0 second 5 1 87 6 5.580001 1.31999707221985 -1 1 -1 1 0.0009539941 0.0006258708 -3.89706E-05 -0.0001364226 -0.0001143805 1000 0.0009539941 0.0006258708 -3.89706E-05 -0.0001364226 -0.0001143805 1000 -0.000969569 -0.00102997 -0.001387212 -0.001079973 -0.001091623 1000 -0.000969569 -0.00102997 -0.001387212 -0.001079973 -0.001091623 1000
lala 5 1.2 0 first 7 1 88 4 2.92 0.179998159408569 1 1 -1 0 -0.001470528 -0.001370419 -0.0008696694 1000 1000 1000 -0.001470528 -0.001370419 -0.0008696694 1000 1000 1000 -0.001450211 -0.001414252 -0.0009710049 -0.0009721034 -0.001302803 1000 -0.001450211 -0.001414252 -0.0009710049 -0.0009721034 -0.001302803 1000
lala 9 1.2 1 second 9 1 89 5 4.25 1.23999714851379 1 1 1 0 -0.001464954 -0.001754231 -0.001702294 -0.001487235 -0.0008994546 1000 -0.001464954 -0.001754231 -0.001702294 -0.001487235 -0.0008994546 1000 -0.0006859308 -0.0008163017 -0.001264692 -0.0009450589 -0.001039455 1000 -0.0006859308 -0.0008163017 -0.001264692 -0.0009450589 -0.001039455 1000
lala 8 1.2 1 second 5 1 90 6 6.780001 0.279998064041138 -1 1 1 0 -0.001448613 -0.001431405 -0.001524948 -0.001490018 -0.0009730517 1000 -0.001448613 -0.001431405 -0.001524948 -0.001490018 -0.0009730517 1000 -0.001480224 -0.001843428 -0.001539956 -0.001608928 -0.00164552 1000 -0.001480224 -0.001843428 -0.001539956 -0.001608928 -0.00164552 1000
lala 2 1.2 1 first 16 1 91 6 5.16 0.559997797012329 0 0 1 0 -0.002294403 -0.002247753 -0.002122684 1000 1000 1000 -0.002294403 -0.002247753 -0.002122684 1000 1000 1000 -0.002575526 -0.002130818 -0.001922171 -0.002686253 -0.003037082 1000 -0.002575526 -0.002130818 -0.001922171 -0.002686253 -0.003037082 1000
lala 9 1.2 1 second 5 1 92 6 5.580001 0.379997968673706 -1 1 1 0 -0.0032338 -0.003467567 -0.003498868 -0.003473333 -0.003845913 1000 -0.0032338 -0.003467567 -0.003498868 -0.003473333 -0.003845913 1000 -0.004215472 -0.004216356 -0.003509118 -0.002553388 -0.002440968 1000 -0.004215472 -0.004216356 -0.003509118 -0.002553388 -0.002440968 1000
lala 3 1.2 0 first 16 1 93 6 3.96 0.179998159408569 0 0 -1 0 -0.0005497694 2.848474E-05 -0.0001028238 1000 1000 1000 -0.0005497694 2.848474E-05 -0.0001028238 1000 1000 1000 -0.0007629161 -0.00100947 -0.0009392879 -0.0008922418 -0.0004057267 1000 -0.0007629161 -0.00100947 -0.0009392879 -0.0008922418 -0.0004057267 1000
lala 10 2.4 0 second 9 1 94 5 1.85 0.319998025894165 1 1 -1 1 0.0002195481 0.0005895318 0.0004498544 0.0003866412 -3.277801E-05 1000 0.0002195481 0.0005895318 0.0004498544 0.0003866412 -3.277801E-05 1000 -0.0007047229 -0.0005295706 -0.0006439665 -0.0008333541 -0.0009484455 1000 -0.0007047229 -0.0005295706 -0.0006439665 -0.0008333541 -0.0009484455 1000
lala 4 1.2 1 second 17 1 95 6 6.780001 0.39999794960022 0 1 1 0 -0.001395823 -0.001426116 -0.001474345 -0.001297103 -0.00090375 1000 -0.001395823 -0.001426116 -0.001474345 -0.001297103 -0.00090375 1000 -0.001040632 -0.001138938 -0.0008877874 -0.001004814 -0.001349818 1000 -0.001040632 -0.001138938 -0.0008877874 -0.001004814 -0.001349818 1000
lala 7 1.2 1 first 10 1 96 6 6.36 0.419997930526733 1 0 1 0 -0.0008471483 -0.001192286 -0.000834304 1000 1000 1000 -0.0008471483 -0.001192286 -0.000834304 1000 1000 1000 -0.001308225 -0.0009824113 -0.000810484 -0.0002312435 -0.0004084457 1000 -0.001308225 -0.0009824113 -0.000810484 -0.0002312435 -0.0004084457 1000
lala 4 1.2 0 first 3 1 97 5 5.450001 0.699997663497925 -1 1 -1 1 -0.0006198659 -0.0002267658 -0.00017572 1000 1000 1000 -0.0006198659 -0.0002267658 -0.00017572 1000 1000 1000 -0.0002511904 0.0001646536 -1.565419E-05 -9.416491E-05 -5.069533E-05 1000 -0.0002511904 0.0001646536 -1.565419E-05 -9.416491E-05 -5.069533E-05 1000
lala 6 1.2 1 first 8 1 98 5 4.5 0.839997529983521 1 0 1 0 -0.001305281 -0.001283604 -0.001018402 1000 1000 1000 -0.001305281 -0.001283604 -0.001018402 1000 1000 1000 -0.0006135083 -0.0006460322 -0.0005083717 -0.0004671018 -0.0004662202 1000 -0.0006135083 -0.0006460322 -0.0005083717 -0.0004671018 -0.0004662202 1000
lala 7 1.2 1 second 12 1 99 4 5.04 0.599997758865356 0 0 1 0 -0.0003553678 1.146661E-05 0.0003209519 1.987038E-05 -0.0004646648 1000 -0.0003553678 1.146661E-05 0.0003209519 1.987038E-05 -0.0004646648 1000 -0.001152146 -0.0008803441 -0.0008076684 -0.0008843485 -0.0009095611 1000 -0.001152146 -0.0008803441 -0.0008076684 -0.0008843485 -0.0009095611 1000
lala 5 1.2 1 first 3 1 100 5 6.650001 0.899997472763062 -1 1 1 0 -0.001312898 -0.001039344 -0.0008271476 -0.0003610235 -0.0003599598 -0.0004314402 -0.001312898 -0.001039344 -0.0008271476 -0.0003610235 -0.0003599598 -0.0004314402 -0.0002887454 9.362524E-05 -0.0001650911 -0.0006142891 -0.0003468072 1000 -0.0002887454 9.362524E-05 -0.0001650911 -0.0006142891 -0.0003468072 1000
lala 2 1.2 0 first 4 1 101 6 5.16 0.879997491836548 -1 0 -1 1 2.063579E-05 2.52603E-05 -0.0005901288 1000 1000 1000 2.063579E-05 2.52603E-05 -0.0005901288 1000 1000 1000 3.699792E-05 -5.672912E-05 -9.172698E-05 4.900634E-05 6.095439E-07 1000 3.699792E-05 -5.672912E-05 -9.172698E-05 4.900634E-05 6.095439E-07 1000
lala 4 1.2 0 first 13 1 102 4 4.12 1.41999697685242 0 1 -1 0 6.474842E-05 5.657287E-05 -0.0001155226 1000 1000 1000 6.474842E-05 5.657287E-05 -0.0001155226 1000 1000 1000 -0.0001479136 0.0001297626 0.0002716022 3.946104E-05 -8.623295E-05 1000 -0.0001479136 0.0001297626 0.0002716022 3.946104E-05 -8.623295E-05 1000
lala 4 1.2 0 second 16 1 103 6 5.16 1.5399968624115 0 0 -1 0 7.95551E-05 0.0003473796 0.0004807255 0.0004124774 0.0004067555 1000 7.95551E-05 0.0003473796 0.0004807255 0.0004124774 0.0004067555 1000 -0.0003708835 -0.0002502016 0.0003792161 0.0004240685 -3.331352E-06 1000 -0.0003708835 -0.0002502016 0.0003792161 0.0004240685 -3.331352E-06 1000
lala 7 1.2 0 first 2 1 104 5 5.7 0.599997758865356 -1 0 -1 1 3.327411E-05 -0.0002296356 -0.000129596 1000 1000 1000 3.327411E-05 -0.0002296356 -0.000129596 1000 1000 1000 0.0004034624 0.0005435829 0.0004467575 -0.0001495251 -6.878759E-05 1000 0.0004034624 0.0005435829 0.0004467575 -0.0001495251 -6.878759E-05 1000
lala 8 1.2 0 first 14 1 105 5 4.5 0.759997606277466 0 0 -1 0 -1.35887E-05 8.417381E-07 0.0002650123 1000 1000 1000 -1.35887E-05 8.417381E-07 0.0002650123 1000 1000 1000 0.0003382432 0.0004261422 0.0005950839 0.0003064759 -5.688901E-05 1000 0.0003382432 0.0004261422 0.0005950839 0.0003064759 -5.688901E-05 1000
lala 3 1.2 1 second 4 1 106 6 6.36 0.799997568130493 -1 0 1 1 -0.000677363 -0.0008970405 -0.0008712417 -0.0007254544 -0.0002509153 1000 -0.000677363 -0.0008970405 -0.0008712417 -0.0007254544 -0.0002509153 1000 -0.001057044 -0.001659374 -0.00147349 -0.001285031 -0.001206908 1000 -0.001057044 -0.001659374 -0.00147349 -0.001285031 -0.001206908 1000
lala 5 1.2 1 second 16 1 107 6 6.36 0.699997663497925 0 0 1 0 -0.001559726 -0.001096641 -0.001555872 -0.002075989 -0.002056883 1000 -0.001559726 -0.001096641 -0.001555872 -0.002075989 -0.002056883 1000 -0.002243551 -0.002476186 -0.002426609 -0.001892088 -0.001686551 1000 -0.002243551 -0.002476186 -0.002426609 -0.001892088 -0.001686551 1000
lala 5 1.2 0 first 17 1 108 6 5.580001 1.15999722480774 0 1 -1 0 -0.002745555 -0.002705413 -0.002358581 1000 1000 1000 -0.002745555 -0.002705413 -0.002358581 1000 1000 1000 -0.003492742 -0.003429222 -0.003556317 -0.003492878 -0.003403333 1000 -0.003492742 -0.003429222 -0.003556317 -0.003492878 -0.003403333 1000
lala 7 1.2 0 first 8 1 109 5 3.3 0.0599982738494873 1 0 -1 0 -0.003228228 -0.00273287 -0.002640242 1000 1000 1000 -0.003228228 -0.00273287 -0.002640242 1000 1000 1000 -0.003696227 -0.00389538 -0.004037583 -0.003855472 -0.003989733 1000 -0.003696227 -0.00389538 -0.004037583 -0.003855472 -0.003989733 1000
lala 6 1.2 0 second 3 1 110 5 5.450001 1.5399968624115 -1 1 -1 1 -0.003852139 -0.003214211 -0.003451305 -0.00365277 -0.003309309 1000 -0.003852139 -0.003214211 -0.003451305 -0.00365277 -0.003309309 1000 -0.004249209 -0.004024119 -0.003889962 -0.003888541 -0.003543262 1000 -0.004249209 -0.004024119 -0.003889962 -0.003888541 -0.003543262 1000
lala 5 1.2 1 second 13 1 111 4 5.32 0.159998178482056 0 1 1 1 -0.003550422 -0.003944529 -0.003777763 -0.003867416 -0.003757888 1000 -0.003550422 -0.003944529 -0.003777763 -0.003867416 -0.003757888 1000 -0.00278661 -0.002968559 -0.002761489 -0.002939644 -0.003481473 1000 -0.00278661 -0.002968559 -0.002761489 -0.002939644 -0.003481473 1000
lala 3 1.2 0 second 0 1 112 4 2.64 0.599997758865356 -1 0 -1 0 -0.003630343 -0.003719444 -0.003743375 -0.003312628 -0.003121917 1000 -0.003630343 -0.003719444 -0.003743375 -0.003312628 -0.003121917 1000 -0.003629128 -0.003818672 -0.003673142 -0.003198156 -0.002696854 1000 -0.003629128 -0.003818672 -0.003673142 -0.003198156 -0.002696854 1000
lala 8 1.2 0 first 2 1 113 5 6.9 0.879997491836548 -1 0 -1 1 -0.001773146 -0.002146784 -0.001647337 1000 1000 1000 -0.001773146 -0.002146784 -0.001647337 1000 1000 1000 -0.001615514 -0.001533839 -0.001497807 -0.001601343 -0.00172008 1000 -0.001615514 -0.001533839 -0.001497807 -0.001601343 -0.00172008 1000
lala 4 1.2 0 second 0 1 114 4 3.84 0.99999737739563 -1 0 -1 1 -0.001805881 -0.001904334 -0.001981151 -0.002024183 -0.001851102 1000 -0.001805881 -0.001904334 -0.001981151 -0.002024183 -0.001851102 1000 -0.002232911 -0.002699496 -0.002660568 -0.003001685 -0.003111463 1000 -0.002232911 -0.002699496 -0.002660568 -0.003001685 -0.003111463 1000
lala 9 1.2 1 first 14 1 115 5 5.7 1.67999696731567 0 0 1 1 -0.00299666 -0.003062014 -0.003293599 1000 1000 1000 -0.00299666 -0.003062014 -0.003293599 1000 1000 1000 -0.002986871 -0.003242448 -0.003308285 -0.003061656 -0.003347895 1000 -0.002986871 -0.003242448 -0.003308285 -0.003061656 -0.003347895 1000
lala 8 1.2 0 second 6 1 116 4 3.84 0.61999773979187 1 0 -1 1 -0.002858903 -0.002710673 -0.002584191 -0.00221512 -0.002321824 1000 -0.002858903 -0.002710673 -0.002584191 -0.00221512 -0.002321824 1000 -0.002513301 -0.002473378 -0.002840384 -0.002758143 -0.002946884 1000 -0.002513301 -0.002473378 -0.002840384 -0.002758143 -0.002946884 1000
lala 9 1.2 1 second 2 1 117 5 8.099999 0.539997816085815 -1 0 1 0 -0.004077019 -0.004287233 -0.004061117 -0.003842638 -0.003339792 1000 -0.004077019 -0.004287233 -0.004061117 -0.003842638 -0.003339792 1000 -0.003695741 -0.00400852 -0.003765108 -0.003587251 -0.003710999 1000 -0.003695741 -0.00400852 -0.003765108 -0.003587251 -0.003710999 1000
lala 5 1.2 0 first 0 1 118 4 5.04 1.15999722480774 -1 0 -1 0 -0.004167841 -0.003776238 -0.003326601 1000 1000 1000 -0.004167841 -0.003776238 -0.003326601 1000 1000 1000 -0.004049794 -0.003707911 -0.003703283 -0.004110399 -0.00404825 1000 -0.004049794 -0.003707911 -0.003703283 -0.004110399 -0.00404825 1000
lala 6 1.2 1 second 17 1 119 6 6.780001 0.199998140335083 0 1 1 0 -0.00466038 -0.004390988 -0.003731057 -0.003804799 -0.004255574 1000 -0.00466038 -0.004390988 -0.003731057 -0.003804799 -0.004255574 1000 -0.0045045 -0.004584633 -0.004781958 -0.005037009 -0.00524824 1000 -0.0045045 -0.004584633 -0.004781958 -0.005037009 -0.00524824 1000
lala 7 1.2 0 first 3 1 120 5 6.650001 0.639997720718384 -1 1 -1 1 -0.005976809 -0.005801455 -0.005667642 1000 1000 1000 -0.005976809 -0.005801455 -0.005667642 1000 1000 1000 -0.005613578 -0.005635737 -0.005723048 -0.005516647 -0.00570489 1000 -0.005613578 -0.005635737 -0.005723048 -0.005516647 -0.00570489 1000
lala 8 1.2 1 first 8 1 121 5 4.5 0.579997777938843 1 0 1 0 -0.006159396 -0.006125832 -0.006154116 1000 1000 1000 -0.006159396 -0.006125832 -0.006154116 1000 1000 1000 -0.005718006 -0.005946559 -0.006023172 -0.006152627 -0.006033243 1000 -0.005718006 -0.005946559 -0.006023172 -0.006152627 -0.006033243 1000
lala 8 1.2 1 second 3 1 122 5 7.85 0.219998121261597 -1 1 1 0 -0.006035945 -0.005964819 -0.006196183 -0.006085401 -0.005771019 1000 -0.006035945 -0.005964819 -0.006196183 -0.006085401 -0.005771019 1000 -0.006998896 -0.006420395 -0.006451675 -0.006976685 -0.00689882 1000 -0.006998896 -0.006420395 -0.006451675 -0.006976685 -0.00689882 1000
lala 4 1.2 0 first 4 1 123 6 5.16 0.159998178482056 -1 0 -1 0 -0.006653616 -0.006552808 -0.006316099 1000 1000 1000 -0.006653616 -0.006552808 -0.006316099 1000 1000 1000 -0.006349467 -0.006939462 -0.007014601 -0.007198876 -0.007089623 1000 -0.006349467 -0.006939462 -0.007014601 -0.007198876 -0.007089623 1000
lala 8 1.2 1 first 15 1 124 5 5.45 1.03999733924866 0 1 1 1 -0.0069781 -0.006903396 -0.006638606 1000 1000 1000 -0.0069781 -0.006903396 -0.006638606 1000 1000 1000 -0.007196044 -0.00738757 -0.007476804 -0.007387727 -0.007134214 1000 -0.007196044 -0.00738757 -0.007476804 -0.007387727 -0.007134214 1000
lala 10 1.2 0 second 5 1 125 6 4.380001 1.29999709129334 -1 1 -1 0 -0.007442818 -0.007352338 -0.007241576 -0.007113261 -0.007240766 1000 -0.007442818 -0.007352338 -0.007241576 -0.007113261 -0.007240766 1000 -0.006871852 -0.00638705 -0.006687772 -0.006781093 -0.006209991 1000 -0.006871852 -0.00638705 -0.006687772 -0.006781093 -0.006209991 1000
lala 9 1.2 0 first 3 1 126 5 6.650001 0.799997568130493 -1 1 -1 1 -0.007154593 -0.007138942 -0.007291508 1000 1000 1000 -0.007154593 -0.007138942 -0.007291508 1000 1000 1000 -0.007767728 -0.007983584 -0.008298151 -0.008455466 -0.008076532 1000 -0.007767728 -0.007983584 -0.008298151 -0.008455466 -0.008076532 1000
lala 6 1.2 1 first 7 1 127 4 4.12 1.81999683380127 1 1 1 0 -0.007331342 -0.007476421 -0.006957722 1000 1000 1000 -0.007331342 -0.007476421 -0.006957722 1000 1000 1000 -0.0068968 -0.007492393 -0.007520447 -0.00758608 -0.007613757 1000 -0.0068968 -0.007492393 -0.007520447 -0.00758608 -0.007613757 1000
lala 10 0.6 1 first 14 1 128 5 5.1 0.599997758865356 0 0 1 0 -0.00835731 -0.008279164 -0.008232849 1000 1000 1000 -0.00835731 -0.008279164 -0.008232849 1000 1000 1000 -0.007976395 -0.008192729 -0.008359893 -0.008380182 -0.008162553 1000 -0.007976395 -0.008192729 -0.008359893 -0.008380182 -0.008162553 1000
lala 7 1.2 0 first 17 1 129 6 5.580001 0.61999773979187 0 1 -1 0 -0.008235871 -0.00812823 -0.007710587 1000 1000 1000 -0.008235871 -0.00812823 -0.007710587 1000 1000 1000 -0.008126444 -0.008209434 -0.008231844 -0.008229268 -0.008018022 1000 -0.008126444 -0.008209434 -0.008231844 -0.008229268 -0.008018022 1000
lala 10 0.6 0 first 2 1 130 5 7.5 0.759997606277466 -1 0 -1 0 -0.008400213 -0.008275254 -0.008116929 1000 1000 1000 -0.008400213 -0.008275254 -0.008116929 1000 1000 1000 -0.008635832 -0.008506504 -0.008599982 -0.008720257 -0.00864499 1000 -0.008635832 -0.008506504 -0.008599982 -0.008720257 -0.00864499 1000
lala 6 1.2 0 second 13 1 131 4 4.12 0.959997415542603 0 1 -1 0 -0.008831652 -0.00935889 -0.009366435 -0.009195436 -0.009179609 1000 -0.008831652 -0.00935889 -0.009366435 -0.009195436 -0.009179609 1000 -0.01005251 -0.009769352 -0.009702308 -0.009744365 -0.009826174 1000 -0.01005251 -0.009769352 -0.009702308 -0.009744365 -0.009826174 1000
lala 8 1.2 1 second 10 1 132 6 5.16 1.81999683380127 1 0 1 0 -0.01017314 -0.009682491 -0.01017433 -0.01075248 -0.01052331 1000 -0.01017314 -0.009682491 -0.01017433 -0.01075248 -0.01052331 1000 -0.01094577 -0.01107322 -0.0111126 -0.01119951 -0.01139954 1000 -0.01094577 -0.01107322 -0.0111126 -0.01119951 -0.01139954 1000
lala 9 1.2 0 first 10 1 133 6 3.96 0.39999794960022 1 0 -1 0 -0.01174763 -0.01173653 -0.01174354 1000 1000 1000 -0.01174763 -0.01173653 -0.01174354 1000 1000 1000 -0.01142718 -0.01143849 -0.01152909 -0.01142269 -0.01114351 1000 -0.01142718 -0.01143849 -0.01152909 -0.01142269 -0.01114351 1000
lala 6 1.2 1 second 0 1 134 4 6.24 1.15999722480774 -1 0 1 1 -0.01016724 -0.01019459 -0.01037311 -0.01018479 -0.01024465 1000 -0.01016724 -0.01019459 -0.01037311 -0.01018479 -0.01024465 1000 -0.01059512 -0.01044462 -0.01065595 -0.01060594 -0.01051586 1000 -0.01059512 -0.01044462 -0.01065595 -0.01060594 -0.01051586 1000
lala 7 1.2 0 second 0 1 135 4 5.04 1.23999714851379 -1 0 -1 1 -0.01072732 -0.01091534 -0.01080165 -0.01097349 -0.01119022 1000 -0.01072732 -0.01091534 -0.01080165 -0.01097349 -0.01119022 1000 -0.01133471 -0.01138919 -0.01094395 -0.01112738 -0.01145318 1000 -0.01133471 -0.01138919 -0.01094395 -0.01112738 -0.01145318 1000
lala 9 1.2 0 second 8 1 136 5 3.3 1.05999732017517 1 0 -1 1 -0.01145863 -0.01148759 -0.01169059 -0.01175689 -0.01157167 1000 -0.01145863 -0.01148759 -0.01169059 -0.01175689 -0.01157167 1000 -0.01199453 -0.01180968 -0.01184269 -0.011944 -0.01191532 1000 -0.01199453 -0.01180968 -0.01184269 -0.011944 -0.01191532 1000
lala 8 1.2 1 second 0 1 137 4 6.24 1.07999730110168 -1 0 1 1 -0.01182057 -0.01189494 -0.0114368 -0.01150148 -0.01174429 1000 -0.01182057 -0.01189494 -0.0114368 -0.01150148 -0.01174429 1000 -0.01282729 -0.01250737 -0.01178824 -0.01160089 -0.01228155 1000 -0.01282729 -0.01250737 -0.01178824 -0.01160089 -0.01228155 1000
lala 6 1.2 1 first 16 1 138 6 5.16 0.879997491836548 0 0 1 1 -0.01269727 -0.01261046 -0.01261427 1000 1000 1000 -0.01269727 -0.01261046 -0.01261427 1000 1000 1000 -0.01199931 -0.01209877 -0.01176022 -0.01136213 -0.01159597 1000 -0.01199931 -0.01209877 -0.01176022 -0.01136213 -0.01159597 1000
lala 9 1.2 0 second 0 1 139 4 5.04 0.699997663497925 -1 0 -1 1 -0.01379468 -0.0137944 -0.01371494 -0.01344867 -0.01322491 1000 -0.01379468 -0.0137944 -0.01371494 -0.01344867 -0.01322491 1000 -0.01293214 -0.01330983 -0.01362737 -0.01344078 -0.01348348 1000 -0.01293214 -0.01330983 -0.01362737 -0.01344078 -0.01348348 1000
lala 10 0.6 0 second 0 1 140 4 5.64 1.65999698638916 -1 0 -1 1 -0.01385238 -0.01374443 -0.0135084 -0.01308059 -0.01288187 1000 -0.01385238 -0.01374443 -0.0135084 -0.01308059 -0.01288187 1000 -0.01339355 -0.01375778 -0.0137477 -0.01372244 -0.01379825 1000 -0.01339355 -0.01375778 -0.0137477 -0.01372244 -0.01379825 1000
lala 7 1.2 0 first 16 1 141 6 3.96 0.39999794960022 0 0 -1 0 -0.01331322 -0.01277195 -0.01239108 1000 1000 1000 -0.01331322 -0.01277195 -0.01239108 1000 1000 1000 -0.01284308 -0.01297421 -0.01305666 -0.0128808 -0.01288383 1000 -0.01284308 -0.01297421 -0.01305666 -0.0128808 -0.01288383 1000
lala 5 1.2 0 first 4 1 142 6 6.36 0.579997777938843 -1 0 -1 1 -0.01335873 -0.01342648 -0.01339949 1000 1000 1000 -0.01335873 -0.01342648 -0.01339949 1000 1000 1000 -0.01334979 -0.01338022 -0.01312166 -0.01348651 -0.01387431 1000 -0.01334979 -0.01338022 -0.01312166 -0.01348651 -0.01387431 1000
lala 7 1.2 0 second 13 1 143 4 5.32 4.15999460220337 0 1 -1 1 -0.01348809 -0.01425499 -0.01436161 -0.01442495 -0.01422945 1000 -0.01348809 -0.01425499 -0.01436161 -0.01442495 -0.01422945 1000 -0.01371756 -0.01395036 -0.01403396 -0.0140801 -0.01401769 1000 -0.01371756 -0.01395036 -0.01403396 -0.0140801 -0.01401769 1000
lala 10 0.6 0 first 10 1 144 6 4.56 0.939997434616089 1 0 -1 1 -0.01492489 -0.01492342 -0.01487902 1000 1000 1000 -0.01492489 -0.01492342 -0.01487902 1000 1000 1000 -0.01506282 -0.01519994 -0.01520192 -0.01507702 -0.01461868 1000 -0.01506282 -0.01519994 -0.01520192 -0.01507702 -0.01461868 1000
lala 9 1.2 1 second 6 1 145 4 5.04 0.61999773979187 1 0 1 0 -0.01478773 -0.01482555 -0.01478021 -0.01467617 -0.01481682 1000 -0.01478773 -0.01482555 -0.01478021 -0.01467617 -0.01481682 1000 -0.01483617 -0.01493308 -0.01486494 -0.01478166 -0.01452504 1000 -0.01483617 -0.01493308 -0.01486494 -0.01478166 -0.01452504 1000
lala 6 1.2 0 first 4 1 146 6 7.559999 1.33999705314636 -1 0 -1 0 -0.01461184 -0.01441769 -0.01419229 1000 1000 1000 -0.01461184 -0.01441769 -0.01419229 1000 1000 1000 -0.01390189 -0.01391057 -0.01409097 -0.01428922 -0.01434261 1000 -0.01390189 -0.01391057 -0.01409097 -0.01428922 -0.01434261 1000
lala 8 1.2 0 first 12 1 147 4 3.84 1.33999705314636 0 0 -1 1 -0.0139707 -0.01381704 -0.01365056 1000 1000 1000 -0.0139707 -0.01381704 -0.01365056 1000 1000 1000 -0.01398298 -0.01433494 -0.01463695 -0.01468808 -0.01460295 1000 -0.01398298 -0.01433494 -0.01463695 -0.01468808 -0.01460295 1000
lala 7 1.2 0 second 7 1 148 4 2.92 0.419997930526733 1 1 -1 1 -0.01562518 -0.01561313 -0.01533879 -0.01529119 -0.01522338 1000 -0.01562518 -0.01561313 -0.01533879 -0.01529119 -0.01522338 1000 -0.01497521 -0.01473539 -0.0143965 -0.01420987 -0.01460624 1000 -0.01497521 -0.01473539 -0.0143965 -0.01420987 -0.01460624 1000
lala 8 1.2 1 second 16 1 149 6 5.16 0.459997892379761 0 0 1 0 -0.01410077 -0.01410167 -0.01385512 -0.01367246 -0.01344305 1000 -0.01410077 -0.01410167 -0.01385512 -0.01367246 -0.01344305 1000 -0.0144801 -0.01397067 -0.01344218 -0.01302215 -0.01262559 1000 -0.0144801 -0.01397067 -0.01344218 -0.01302215 -0.01262559 1000
lala 3 1.2 1 second 1 1 150 4 5.32 0.39999794960022 -1 1 1 0 -0.01219568 -0.01210627 -0.01185637 -0.01218422 -0.01203689 1000 -0.01219568 -0.01210627 -0.01185637 -0.01218422 -0.01203689 1000 -0.01284971 -0.01271838 -0.01238798 -0.01260796 -0.01263774 1000 -0.01284971 -0.01271838 -0.01238798 -0.01260796 -0.01263774 1000
lala 11 0.6 1 second 5 1 151 6 4.980001 0.339998006820679 -1 1 1 0 -0.01333614 -0.01343337 -0.01330341 -0.01273711 -0.01278247 1000 -0.01333614 -0.01343337 -0.01330341 -0.01273711 -0.01278247 1000 -0.01274679 -0.01316322 -0.01302149 -0.01296119 -0.01292988 1000 -0.01274679 -0.01316322 -0.01302149 -0.01296119 -0.01292988 1000
lala 7 1.2 1 second 4 1 152 6 8.759999 0.419997930526733 -1 0 1 1 -0.01313668 -0.01281293 -0.01262957 -0.01281792 -0.01290658 1000 -0.01313668 -0.01281293 -0.01262957 -0.01281792 -0.01290658 1000 -0.01334633 -0.013085 -0.01278449 -0.01300044 -0.01321737 1000 -0.01334633 -0.013085 -0.01278449 -0.01300044 -0.01321737 1000
lala 10 0.6 0 second 8 1 153 5 3.9 0.379997968673706 1 0 -1 0 -0.01345676 -0.01288002 -0.01298664 -0.01338361 -0.01333497 1000 -0.01345676 -0.01288002 -0.01298664 -0.01338361 -0.01333497 1000 -0.01316568 -0.01309644 -0.01268502 -0.01250324 -0.01239012 1000 -0.01316568 -0.01309644 -0.01268502 -0.01250324 -0.01239012 1000
lala 8 1.2 1 first 17 1 154 6 6.780001 0.479997873306274 0 1 1 1 -0.01244437 -0.01259666 -0.01267571 1000 1000 1000 -0.01244437 -0.01259666 -0.01267571 1000 1000 1000 -0.01248329 -0.0129694 -0.01292237 -0.01278603 -0.01291277 1000 -0.01248329 -0.0129694 -0.01292237 -0.01278603 -0.01291277 1000
lala 11 0.6 1 first 8 1 155 5 4.5 1.29999709129334 1 0 1 1 -0.01343858 -0.01312736 -0.01313605 1000 1000 1000 -0.01343858 -0.01312736 -0.01313605 1000 1000 1000 -0.01308712 -0.01334282 -0.01282856 -0.01296341 -0.01344512 1000 -0.01308712 -0.01334282 -0.01282856 -0.01296341 -0.01344512 1000
lala 9 1.2 0 second 16 1 156 6 3.96 0.39999794960022 0 0 -1 1 -0.01523722 -0.01519234 -0.01473011 -0.01494523 -0.01528296 1000 -0.01523722 -0.01519234 -0.01473011 -0.01494523 -0.01528296 1000 -0.01560399 -0.01565893 -0.01574802 -0.01586222 -0.0159555 1000 -0.01560399 -0.01565893 -0.01574802 -0.01586222 -0.0159555 1000
lala 11 0.6 0 first 14 1 157 5 4.5 2.03999662399292 0 0 -1 1 -0.01553781 -0.0160298 -0.01639649 1000 1000 1000 -0.01553781 -0.0160298 -0.01639649 1000 1000 1000 -0.0168284 -0.01725815 -0.01690166 -0.01659764 -0.01651301 1000 -0.0168284 -0.01725815 -0.01690166 -0.01659764 -0.01651301 1000
lala 11 0.6 1 second 10 1 158 6 5.16 0.679997682571411 1 0 1 1 -0.01784502 -0.01791497 -0.01796666 -0.01810613 -0.01835581 1000 -0.01784502 -0.01791497 -0.01796666 -0.01810613 -0.01835581 1000 -0.01854953 -0.0182672 -0.01789057 -0.01809539 -0.01844998 1000 -0.01854953 -0.0182672 -0.01789057 -0.01809539 -0.01844998 1000
lala 4 1.2 0 first 1 1 159 4 4.12 2.31999635696411 -1 1 -1 0 -0.01772083 -0.01756543 -0.0174354 1000 1000 1000 -0.01772083 -0.01756543 -0.0174354 1000 1000 1000 -0.01875884 -0.01904093 -0.01928466 -0.01931972 -0.0194652 1000 -0.01875884 -0.01904093 -0.01928466 -0.01931972 -0.0194652 1000
lala 8 1.2 1 second 7 1 160 4 4.12 1.75999689102173 1 1 1 0 -0.01910034 -0.01890004 -0.01854749 -0.01832815 -0.01815873 1000 -0.01910034 -0.01890004 -0.01854749 -0.01832815 -0.01815873 1000 -0.01886059 -0.01917129 -0.01906916 -0.01920536 -0.01903035 1000 -0.01886059 -0.01917129 -0.01906916 -0.01920536 -0.01903035 1000
lala 9 1.2 1 first 12 1 161 4 5.04 0.439997911453247 0 0 1 0 -0.02012294 -0.02003743 -0.02142916 1000 1000 1000 -0.02012294 -0.02003743 -0.02142916 1000 1000 1000 0.01023335 0.01007498 0.01114712 0.01251412 0.0123973 1000 0.01023335 0.01007498 0.01114712 0.01251412 0.0123973 1000
lala 11 0.3 1 second 2 1 162 5 7.8 0.359997987747192 -1 0 1 0 0.01414529 0.01402765 0.01399932 0.01432484 0.0154436 1000 0.01414529 0.01402765 0.01399932 0.01432484 0.0154436 1000 0.01431104 0.01380145 0.01295184 0.01256793 0.01242838 1000 0.01431104 0.01380145 0.01295184 0.01256793 0.01242838 1000
lala 10 0.6 0 second 16 1 163 6 4.56 0.559997797012329 0 0 -1 0 0.01274974 0.01283158 0.01254676 0.01234717 0.01245539 1000 0.01274974 0.01283158 0.01254676 0.01234717 0.01245539 1000 0.01151217 0.01133175 0.0114448 0.0111959 0.01076524 1000 0.01151217 0.01133175 0.0114448 0.0111959 0.01076524 1000
lala 9 1.2 0 second 15 1 164 5 4.25 0.479997873306274 0 1 -1 0 0.009955403 0.01008704 0.01025863 0.01060394 0.01022806 1000 0.009955403 0.01008704 0.01025863 0.01060394 0.01022806 1000 0.008645257 0.008648816 0.008663498 0.008472631 0.008378725 1000 0.008645257 0.008648816 0.008663498 0.008472631 0.008378725 1000
lala 10 0.6 0 first 6 1 165 4 4.44 3.1799955368042 1 0 -1 0 0.007597827 0.008027871 0.008101976 1000 1000 1000 0.007597827 0.008027871 0.008101976 1000 1000 1000 0.007450713 0.007316782 0.007365908 0.007385914 0.007546378 1000 0.007450713 0.007316782 0.007365908 0.007385914 0.007546378 1000
lala 9 1.2 1 second 17 1 166 6 5.580001 0.779997587203979 0 1 1 0 0.005957494 0.0053883 0.005720211 0.005978936 0.005997946 1000 0.005957494 0.0053883 0.005720211 0.005978936 0.005997946 1000 0.00544333 0.005690699 0.006230805 0.005889246 0.005296877 1000 0.00544333 0.005690699 0.006230805 0.005889246 0.005296877 1000
lala 11 0.6 1 second 16 1 167 6 5.16 1.33999705314636 0 0 1 1 0.005251625 0.005414539 0.005466177 0.00597248 0.006104928 1000 0.005251625 0.005414539 0.005466177 0.00597248 0.006104928 1000 0.005058215 0.005429044 0.005444139 0.005301979 0.005106496 1000 0.005058215 0.005429044 0.005444139 0.005301979 0.005106496 1000
lala 12 0.3 0 second 8 1 168 5 4.2 1.29999709129334 1 0 -1 0 0.00471672 0.003671603 0.002961503 0.002181242 0.00245365 1000 0.00471672 0.003671603 0.002961503 0.002181242 0.00245365 1000 0.003003024 0.003186711 0.003247102 0.00348498 0.003233759 1000 0.003003024 0.003186711 0.003247102 0.00348498 0.003233759 1000
lala 12 0.3 1 second 16 1 169 6 4.86 1.23999714851379 0 0 1 1 0.003452643 0.003256641 0.00315196 0.002942769 0.002997093 1000 0.003452643 0.003256641 0.00315196 0.002942769 0.002997093 1000 0.00346532 0.003814763 0.003863943 0.003450936 0.003534629 1000 0.00346532 0.003814763 0.003863943 0.003450936 0.003534629 1000
lala 11 0.6 0 first 0 1 170 4 6.24 1.81999683380127 -1 0 -1 0 0.003058312 0.003081895 0.002996118 1000 1000 1000 0.003058312 0.003081895 0.002996118 1000 1000 1000 0.002799439 0.00295846 0.002571895 0.002175209 0.002073221 1000 0.002799439 0.00295846 0.002571895 0.002175209 0.002073221 1000
lala 12 0.3 1 first 14 1 171 5 4.8 1.61999702453613 0 0 1 1 -7.398175E-05 -0.0004807821 -0.001394049 1000 1000 1000 -7.398175E-05 -0.0004807821 -0.001394049 1000 1000 1000 -0.0003281042 -0.0003858041 1.926146E-05 0.0002319809 5.578586E-05 1000 -0.0003281042 -0.0003858041 1.926146E-05 0.0002319809 5.578586E-05 1000
lala 5 1.2 1 second 1 1 172 4 5.32 0.679997682571411 -1 1 1 1 -0.0003305849 -4.326095E-05 -0.0003232786 -0.0002748104 -0.00014275 1000 -0.0003305849 -4.326095E-05 -0.0003232786 -0.0002748104 -0.00014275 1000 -0.001656497 -0.001626998 -0.00164863 -0.001597872 -0.001046496 1000 -0.001656497 -0.001626998 -0.00164863 -0.001597872 -0.001046496 1000
lala 8 1.2 1 first 13 1 173 4 6.52 1.65999698638916 0 1 1 1 -0.0004608069 -0.0003855815 -0.0007588997 1000 1000 1000 -0.0004608069 -0.0003855815 -0.0007588997 1000 1000 1000 -0.0004450054 0.0002088643 0.0003989807 9.673797E-05 2.764151E-05 1000 -0.0004450054 0.0002088643 0.0003989807 9.673797E-05 2.764151E-05 1000
lala 6 1.2 0 first 1 1 174 4 4.12 0.99999737739563 -1 1 -1 0 -0.002454595 -0.002610201 -0.002291673 1000 1000 1000 -0.002454595 -0.002610201 -0.002291673 1000 1000 1000 -0.004222736 -0.00484126 -0.004709591 -0.00478784 -0.004993124 1000 -0.004222736 -0.00484126 -0.004709591 -0.00478784 -0.004993124 1000
lala 11 0.3 0 first 6 1 175 4 4.74 1.49999690055847 1 0 -1 1 -0.005448004 -0.005854441 -0.006216127 1000 1000 1000 -0.005448004 -0.005854441 -0.006216127 1000 1000 1000 -0.007108359 -0.006693077 -0.00604795 -0.006105034 -0.006598337 1000 -0.007108359 -0.006693077 -0.00604795 -0.006105034 -0.006598337 1000
lala 10 0.6 1 first 3 1 176 5 7.25 0.859997510910034 -1 1 1 1 -0.007894803 -0.007884293 -0.007581638 1000 1000 1000 -0.007894803 -0.007884293 -0.007581638 1000 1000 1000 -0.00754648 -0.0078065 -0.008070623 -0.007701862 -0.007439133 1000 -0.00754648 -0.0078065 -0.008070623 -0.007701862 -0.007439133 1000
lala 12 0.3 1 second 6 1 177 4 5.04 1.67999696731567 1 0 1 0 -0.008072888 -0.008363072 -0.008512267 -0.008710658 -0.00871124 1000 -0.008072888 -0.008363072 -0.008512267 -0.008710658 -0.00871124 1000 -0.008640144 -0.008744387 -0.008240118 -0.008058375 -0.008454461 1000 -0.008640144 -0.008744387 -0.008240118 -0.008058375 -0.008454461 1000
lala 10 0.6 1 second 15 1 178 5 4.85 0.439997911453247 0 1 1 1 -0.009668728 -0.009831706 -0.009785396 -0.009958216 -0.01024175 1000 -0.009668728 -0.009831706 -0.009785396 -0.009958216 -0.01024175 1000 -0.009793745 -0.009741644 -0.01011295 -0.01033579 -0.01014286 1000 -0.009793745 -0.009741644 -0.01011295 -0.01033579 -0.01014286 1000
lala 13 0.15 1 second 6 1 179 4 4.89 0.339998006820679 1 0 1 0 -0.01046719 -0.01021309 -0.009985902 -0.009593737 -0.009759891 1000 -0.01046719 -0.01021309 -0.009985902 -0.009593737 -0.009759891 1000 -0.01082539 -0.01057822 -0.009286262 -0.007905742 -0.007290235 1000 -0.01082539 -0.01057822 -0.009286262 -0.007905742 -0.007290235 1000
lala 12 0.3 0 second 5 1 180 6 4.680001 0.299998044967651 -1 1 -1 0 -0.005938602 -0.005374501 -0.004993042 -0.005056995 -0.005244176 1000 -0.005938602 -0.005374501 -0.004993042 -0.005056995 -0.005244176 1000 -0.004922754 -0.005087482 -0.005449904 -0.005095695 -0.005370219 1000 -0.004922754 -0.005087482 -0.005449904 -0.005095695 -0.005370219 1000
lala 11 0.3 1 first 15 1 181 5 4.55 2.23999643325806 0 1 1 1 -0.004428211 -0.004347423 -0.003901758 1000 1000 1000 -0.004428211 -0.004347423 -0.003901758 1000 1000 1000 -0.005397058 -0.00508139 -0.004887224 -0.00547168 -0.005558565 1000 -0.005397058 -0.00508139 -0.004887224 -0.00547168 -0.005558565 1000
lala 9 1.2 1 first 13 1 182 4 5.32 1.05999732017517 0 1 1 1 -0.005171742 -0.004999405 -0.004455558 1000 1000 1000 -0.005171742 -0.004999405 -0.004455558 1000 1000 1000 -0.005278411 -0.00512899 -0.005200353 -0.0058294 -0.005872161 1000 -0.005278411 -0.00512899 -0.005200353 -0.0058294 -0.005872161 1000
lala 12 0.3 0 second 15 1 183 5 4.25 0.359997987747192 0 1 -1 1 -0.005583669 -0.006718749 -0.00578634 -0.005296858 -0.003820546 1000 -0.005583669 -0.006718749 -0.00578634 -0.005296858 -0.003820546 1000 0.004990732 0.005599274 0.005791896 0.007174404 0.007927486 1000 0.004990732 0.005599274 0.005791896 0.007174404 0.007927486 1000
lala 10 0.6 0 first 11 1 184 6 4.980001 0.799997568130493 1 1 -1 0 0.01085422 0.01075008 0.0112947 1000 1000 1000 0.01085422 0.01075008 0.0112947 1000 1000 1000 0.01013759 0.01012955 0.01011317 0.009452147 0.009478709 1000 0.01013759 0.01012955 0.01011317 0.009452147 0.009478709 1000
lala 11 0.3 1 first 11 1 185 6 5.280001 0.759997606277466 1 1 1 1 0.009050555 0.009296224 0.009498157 1000 1000 1000 0.009050555 0.009296224 0.009498157 1000 1000 1000 0.009507348 0.009510105 0.009869789 0.009871753 0.009777095 1000 0.009507348 0.009510105 0.009869789 0.009871753 0.009777095 1000
lala 11 0.3 1 second 3 1 186 5 6.95 0.359997987747192 -1 1 1 1 0.009932133 0.01023854 0.01029938 0.01021889 0.01037059 1000 0.009932133 0.01023854 0.01029938 0.01021889 0.01037059 1000 0.009362378 0.009245901 0.009209468 0.009359493 0.009443995 1000 0.009362378 0.009245901 0.009209468 0.009359493 0.009443995 1000
lala 13 0.15 1 first 14 1 187 5 4.65 0.539997816085815 0 0 1 1 0.009380848 0.009810527 0.009968057 1000 1000 1000 0.009380848 0.009810527 0.009968057 1000 1000 1000 0.008861634 0.008692927 0.009056041 0.009622074 0.009419959 1000 0.008861634 0.008692927 0.009056041 0.009622074 0.009419959 1000
lala 12 0.6 1 second 0 1 188 4 6.84 0.359997987747192 -1 0 1 1 0.01100747 0.01008416 0.009356506 0.009253203 0.009297964 1000 0.01100747 0.01008416 0.009356506 0.009253203 0.009297964 1000 0.009205777 0.008930943 0.009137443 0.009068895 0.008613389 1000 0.009205777 0.008930943 0.009137443 0.009068895 0.008613389 1000
lala 13 0.15 0 second 8 1 189 5 4.35 0.539997816085815 1 0 -1 1 0.008970849 0.008945053 0.009135419 0.008997254 0.008623879 1000 0.008970849 0.008945053 0.009135419 0.008997254 0.008623879 1000 0.008317606 0.008325516 0.008073467 0.008946885 0.008995046 1000 0.008317606 0.008325516 0.008073467 0.008946885 0.008995046 1000
lala 10 1.2 0 first 17 1 190 6 4.380001 4.07999467849731 0 1 -1 0 -0.005806329 -0.002556688 -0.0002701888 1000 1000 1000 -0.005806329 -0.002556688 -0.0002701888 1000 1000 1000 0.00101183 0.0009600706 0.0009364726 0.0009015589 0.001197598 1000 0.00101183 0.0009600706 0.0009364726 0.0009015589 0.001197598 1000
lala 11 0.6 1 second 17 1 191 6 4.980001 0.339998006820679 0 1 1 0 -0.0001575975 -3.173056E-05 1.720252E-05 -0.0002441369 -8.465867E-05 1000 -0.0001575975 -3.173056E-05 1.720252E-05 -0.0002441369 -8.465867E-05 1000 -0.0006847533 -0.0005758542 -0.0005251062 -0.000503943 -0.0004004865 1000 -0.0006847533 -0.0005758542 -0.0005251062 -0.000503943 -0.0004004865 1000
lala 13 0.15 0 second 15 1 192 5 4.4 0.459997892379761 0 1 -1 0 -0.000234159 -0.000647158 -0.00053959 -0.0005728551 -0.0009609193 1000 -0.000234159 -0.000647158 -0.00053959 -0.0005728551 -0.0009609193 1000 -0.0009512259 -0.0008657543 -0.0007057537 -0.0004310191 -9.328509E-05 1000 -0.0009512259 -0.0008657543 -0.0007057537 -0.0004310191 -9.328509E-05 1000
lala 10 1.2 1 second 13 1 193 4 4.12 0.01999831199646 0 1 1 0 -0.0006573942 -0.0006187384 -0.0006968839 -0.0006671122 -0.0005472607 1000 -0.0006573942 -0.0006187384 -0.0006968839 -0.0006671122 -0.0005472607 1000 -0.0003060582 -0.0005520558 -0.001024482 -0.0009633326 -0.0008954534 1000 -0.0003060582 -0.0005520558 -0.001024482 -0.0009633326 -0.0008954534 1000
lala 12 0.15 1 second 2 1 194 5 7.65 0.259998083114624 -1 0 1 0 -0.001019283 -0.001408024 -0.001490402 -0.001400177 -0.001164507 1000 -0.001019283 -0.001408024 -0.001490402 -0.001400177 -0.001164507 1000 -0.0019879 -0.001807897 -0.001597912 -0.001774932 -0.001187953 1000 -0.0019879 -0.001807897 -0.001597912 -0.001774932 -0.001187953 1000
lala 12 0.3 0 first 10 1 195 6 4.86 0.679997682571411 1 0 -1 1 -0.00165224 -0.001906394 -0.001892345 1000 1000 1000 -0.00165224 -0.001906394 -0.001892345 1000 1000 1000 -0.001282625 -0.001525984 -0.00157492 -0.001771745 -0.001902621 1000 -0.001282625 -0.001525984 -0.00157492 -0.001771745 -0.001902621 1000
lala 11 2.4 0 second 13 1 196 4 1.72 0.319998025894165 0 1 -1 0 -0.001636338 -0.001572367 -0.001675945 -0.001768357 -0.00162713 1000 -0.001636338 -0.001572367 -0.001675945 -0.001768357 -0.00162713 1000 -0.002087411 -0.0019355 -0.002533115 -0.002775266 -0.002844175 1000 -0.002087411 -0.0019355 -0.002533115 -0.002775266 -0.002844175 1000
lala 14 0.15 0 first 14 1 197 5 4.5 0.679997682571411 0 0 -1 1 -0.002569368 -0.00267718 -0.002606065 1000 1000 1000 -0.002569368 -0.00267718 -0.002606065 1000 1000 1000 -0.002902042 -0.003105939 -0.002899429 -0.002466591 -0.00222216 1000 -0.002902042 -0.003105939 -0.002899429 -0.002466591 -0.00222216 1000
lala 14 0.15 0 second 8 1 198 5 4.5 0.759997606277466 1 0 -1 0 -0.001205215 -0.001257331 -0.001888275 -0.00209704 -0.002316811 1000 -0.001205215 -0.001257331 -0.001888275 -0.00209704 -0.002316811 1000 -0.001645164 -0.001612441 -0.001549826 -0.001509463 -0.001728351 1000 -0.001645164 -0.001612441 -0.001549826 -0.001509463 -0.001728351 1000
lala 14 0.15 0 first 15 1 199 5 4.55 1.47999691963196 0 1 -1 0 -0.001982566 -0.001989743 -0.002515265 1000 1000 1000 -0.001982566 -0.001989743 -0.002515265 1000 1000 1000 -0.00209779 -0.002821104 -0.003018195 -0.002611457 -0.002413496 1000 -0.00209779 -0.002821104 -0.003018195 -0.002611457 -0.002413496 1000
lala 15 0.075 0 second 14 1 200 5 4.575 0.819997549057007 0 0 -1 1 -0.004586668 -0.004265781 -0.004802437 -0.004707969 -0.004884136 1000 -0.004586668 -0.004265781 -0.004802437 -0.004707969 -0.004884136 1000 -0.004576624 -0.004543727 -0.004243484 -0.003862179 -0.004110067 1000 -0.004576624 -0.004543727 -0.004243484 -0.003862179 -0.004110067 1000
lala 11 1.2 0 second 9 1 201 5 3.05 0.259998083114624 1 1 -1 1 -0.004819143 -0.00482027 -0.004582039 -0.00459816 -0.004549477 1000 -0.004819143 -0.00482027 -0.004582039 -0.00459816 -0.004549477 1000 -0.004407775 -0.004550775 -0.004838526 -0.00461946 -0.004739873 1000 -0.004407775 -0.004550775 -0.004838526 -0.00461946 -0.004739873 1000
lala 12 0.3 0 first 17 1 202 6 4.680001 0.859997510910034 0 1 -1 0 -0.004910034 -0.005143095 -0.005055086 1000 1000 1000 -0.004910034 -0.005143095 -0.005055086 1000 1000 1000 -0.005052482 -0.00518443 -0.00501024 -0.005034043 -0.005534656 1000 -0.005052482 -0.00518443 -0.00501024 -0.005034043 -0.005534656 1000
lala 10 0.6 1 second 12 1 203 4 4.44 0.199998140335083 0 0 1 0 -0.0050503 -0.005060198 -0.00501179 -0.005208347 -0.005439523 1000 -0.0050503 -0.005060198 -0.00501179 -0.005208347 -0.005439523 1000 -0.006372853 -0.006385929 -0.006522 -0.006336889 -0.006347489 1000 -0.006372853 -0.006385929 -0.006522 -0.006336889 -0.006347489 1000
lala 15 0.15 0 second 15 1 204 5 4.7 0.219998121261597 0 1 -1 1 -0.006007458 -0.005954603 -0.005981651 -0.006816879 -0.006746848 1000 -0.006007458 -0.005954603 -0.005981651 -0.006816879 -0.006746848 1000 -0.006136632 -0.006268099 -0.006406533 -0.00643944 -0.005996082 1000 -0.006136632 -0.006268099 -0.006406533 -0.00643944 -0.005996082 1000
lala 14 0.15 1 second 6 1 205 4 4.74 0.419997930526733 1 0 1 0 -0.006195815 -0.006210454 -0.006354562 -0.006417108 -0.006388811 1000 -0.006195815 -0.006210454 -0.006354562 -0.006417108 -0.006388811 1000 -0.006431639 -0.006436504 -0.006270855 -0.006144418 -0.006274647 1000 -0.006431639 -0.006436504 -0.006270855 -0.006144418 -0.006274647 1000
lala 13 0.15 0 second 5 1 206 6 4.830001 0.61999773979187 -1 1 -1 0 -0.006357981 -0.005816912 -0.005678487 -0.005654081 -0.005580102 1000 -0.006357981 -0.005816912 -0.005678487 -0.005654081 -0.005580102 1000 -0.004735564 -0.003624299 -0.003083097 -0.003556741 -0.00418302 1000 -0.004735564 -0.003624299 -0.003083097 -0.003556741 -0.00418302 1000
lala 12 0.15 0 first 11 1 207 6 5.130001 1.11999726295471 1 1 -1 0 -0.00579976 -0.005531049 -0.005569422 1000 1000 1000 -0.00579976 -0.005531049 -0.005569422 1000 1000 1000 -0.006184529 -0.006061504 -0.006367685 -0.006423994 -0.006135958 1000 -0.006184529 -0.006061504 -0.006367685 -0.006423994 -0.006135958 1000
lala 13 0.075 1 first 11 1 208 6 5.205001 1.3999969959259 1 1 1 0 -0.006972764 -0.007614058 -0.007142652 1000 1000 1000 -0.006972764 -0.007614058 -0.007142652 1000 1000 1000 -0.004940103 -0.005044343 -0.00528536 -0.004845983 -0.005612883 1000 -0.004940103 -0.005044343 -0.00528536 -0.004845983 -0.005612883 1000
lala 13 0.15 1 second 10 1 209 6 5.01 0.259998083114624 1 0 1 0 -0.005408585 -0.005468612 -0.005934042 -0.006132969 -0.006090686 1000 -0.005408585 -0.005468612 -0.005934042 -0.006132969 -0.006090686 1000 -0.007797292 -0.00754763 -0.007462878 -0.007471514 -0.007460384 1000 -0.007797292 -0.00754763 -0.007462878 -0.007471514 -0.007460384 1000
lala 13 0.15 0 first 17 1 210 6 4.830001 2.2999963760376 0 1 -1 1 -0.006880624 -0.006295271 -0.006025431 1000 1000 1000 -0.006880624 -0.006295271 -0.006025431 1000 1000 1000 -0.007802218 -0.007870938 -0.008006274 -0.008037125 -0.007985979 1000 -0.007802218 -0.007870938 -0.008006274 -0.008037125 -0.007985979 1000
lala 14 0.075 0 first 10 1 211 6 4.935 1.29999709129334 1 0 -1 1 -0.007792939 -0.007235135 -0.007388663 1000 1000 1000 -0.007792939 -0.007235135 -0.007388663 1000 1000 1000 -0.006442186 -0.006786158 -0.007000888 -0.007130071 -0.007145649 1000 -0.006442186 -0.006786158 -0.007000888 -0.007130071 -0.007145649 1000
lala 15 0.0375 1 first 10 1 212 6 4.9725 2.45999622344971 1 0 1 1 -0.003771966 -0.003341695 -0.003681115 1000 1000 1000 -0.003771966 -0.003341695 -0.003681115 1000 1000 1000 -0.004103921 -0.004047351 -0.003974447 -0.003944675 -0.00403411 1000 -0.004103921 -0.004047351 -0.003974447 -0.003944675 -0.00403411 1000
lala 15 0.15 1 first 8 1 213 5 4.65 0.839997529983521 1 0 1 0 -0.0032251 -0.003712505 -0.003629117 1000 1000 1000 -0.0032251 -0.003712505 -0.003629117 1000 1000 1000 -0.00558671 -0.00561532 -0.005301595 -0.00546626 -0.005905209 1000 -0.00558671 -0.00561532 -0.005301595 -0.00546626 -0.005905209 1000
lala 13 0.3 0 first 16 1 214 6 4.559999 0.319998025894165 0 0 -1 0 -0.005239666 -0.00515748 -0.005475527 1000 1000 1000 -0.005239666 -0.00515748 -0.005475527 1000 1000 1000 -0.005136202 -0.005115984 -0.005536631 -0.00533693 -0.005224727 1000 -0.005136202 -0.005115984 -0.005536631 -0.00533693 -0.005224727 1000
lala 12 1.2 0 first 9 1 215 5 4.25 1.17999720573425 1 1 -1 0 -0.004806743 -0.005093571 -0.005171019 1000 1000 1000 -0.004806743 -0.005093571 -0.005171019 1000 1000 1000 -0.005113721 -0.005097143 -0.00529191 -0.005265893 -0.005242992 1000 -0.005113721 -0.005097143 -0.00529191 -0.005265893 -0.005242992 1000
lala 12 1.2 0 first 13 1 216 4 2.92 0.579997777938843 0 1 -1 0 -0.006183605 -0.005797335 -0.005457629 1000 1000 1000 -0.006183605 -0.005797335 -0.005457629 1000 1000 1000 -0.005322287 -0.005401535 -0.005248026 -0.004866926 -0.005154017 1000 -0.005322287 -0.005401535 -0.005248026 -0.004866926 -0.005154017 1000
lala 9 1.2 0 second 7 1 217 4 2.92 1.01999735832214 1 1 -1 1 -0.005084162 -0.00514838 -0.005561566 -0.005193009 -0.005173022 1000 -0.005084162 -0.00514838 -0.005561566 -0.005193009 -0.005173022 1000 -0.006186751 -0.006187114 -0.005788571 -0.005797377 -0.006029852 1000 -0.006186751 -0.006187114 -0.005788571 -0.005797377 -0.006029852 1000
lala 10 0.6 0 second 7 1 218 4 3.52 1.69999694824219 1 1 -1 1 -0.005484656 -0.005105067 -0.005033115 -0.005563403 -0.006040163 1000 -0.005484656 -0.005105067 -0.005033115 -0.005563403 -0.006040163 1000 -0.005271684 -0.005617766 -0.005913814 -0.005972925 -0.005664485 1000 -0.005271684 -0.005617766 -0.005913814 -0.005972925 -0.005664485 1000
lala 16 0.075 1 first 8 1 219 5 4.575 0.959997415542603 1 0 1 1 -0.006850538 -0.007007401 -0.007133174 1000 1000 1000 -0.006850538 -0.007007401 -0.007133174 1000 1000 1000 -0.006454803 -0.00582396 -0.005420204 -0.005645801 -0.005751529 1000 -0.006454803 -0.00582396 -0.005420204 -0.005645801 -0.005751529 1000
lala 16 0.3 0 first 15 1 220 5 5 1.37999701499939 0 1 -1 1 -0.007166725 -0.00661142 -0.006645872 1000 1000 1000 -0.007166725 -0.00661142 -0.006645872 1000 1000 1000 -0.00796673 -0.008445821 -0.008731477 -0.009085584 -0.009224164 1000 -0.00796673 -0.008445821 -0.008731477 -0.009085584 -0.009224164 1000
lala 11 0.6 1 second 7 1 221 4 4.12 1.03999733924866 1 1 1 0 -0.009350259 -0.009498383 -0.009211317 -0.009101117 -0.009735238 1000 -0.009350259 -0.009498383 -0.009211317 -0.009101117 -0.009735238 1000 -0.009883202 -0.01003249 -0.01008353 -0.01008527 -0.01006086 1000 -0.009883202 -0.01003249 -0.01008353 -0.01008527 -0.01006086 1000
lala 14 0.15 1 second 16 1 222 6 4.71 1.15999722480774 0 0 1 1 -0.01061162 -0.01030527 -0.01013696 -0.01006182 -0.009977433 1000 -0.01061162 -0.01030527 -0.01013696 -0.01006182 -0.009977433 1000 -0.01022964 -0.01014922 -0.00984496 -0.00965027 -0.01002414 1000 -0.01022964 -0.01014922 -0.00984496 -0.00965027 -0.01002414 1000
lala 13 1.2 0 second 13 1 223 4 4.12 0.679997682571411 0 1 -1 1 -0.01059288 -0.01053153 -0.009836612 -0.00945549 -0.009690241 1000 -0.01059288 -0.01053153 -0.009836612 -0.00945549 -0.009690241 1000 -0.009799644 -0.009775537 -0.009810027 -0.009735734 -0.009637312 1000 -0.009799644 -0.009775537 -0.009810027 -0.009735734 -0.009637312 1000
lala 14 0.15 0 second 5 1 224 6 4.980001 1.07999730110168 -1 1 -1 1 -0.01060177 -0.009800608 -0.01004877 -0.01094545 -0.01072916 1000 -0.01060177 -0.009800608 -0.01004877 -0.01094545 -0.01072916 1000 -0.01010699 -0.01030102 -0.01034489 -0.01031241 -0.009971903 1000 -0.01010699 -0.01030102 -0.01034489 -0.01031241 -0.009971903 1000
lala 12 0.3 0 second 7 1 225 4 3.82 0.939997434616089 1 1 -1 1 -0.0111079 -0.0106461 -0.01026985 -0.01061853 -0.01076818 1000 -0.0111079 -0.0106461 -0.01026985 -0.01061853 -0.01076818 1000 -0.009877016 -0.009758419 -0.009382293 -0.009628654 -0.009933524 1000 -0.009877016 -0.009758419 -0.009382293 -0.009628654 -0.009933524 1000
lala 16 0.075 1 second 14 1 226 5 4.65 0.599997758865356 0 0 1 0 -0.009537837 -0.009668187 -0.009575407 -0.009705584 -0.009397348 1000 -0.009537837 -0.009668187 -0.009575407 -0.009705584 -0.009397348 1000 -0.00990007 -0.009831334 -0.01031033 -0.01038752 -0.01042505 1000 -0.00990007 -0.009831334 -0.01031033 -0.01038752 -0.01042505 1000
lala 13 1.2 0 first 9 1 227 5 5.45 2.39999628067017 1 1 -1 0 -0.0100231 -0.009457321 -0.008955763 1000 1000 1000 -0.0100231 -0.009457321 -0.008955763 1000 1000 1000 -0.009588644 -0.009135589 -0.009179031 -0.00950339 -0.009089499 1000 -0.009588644 -0.009135589 -0.009179031 -0.00950339 -0.009089499 1000
lala 14 0.15 0 second 17 1 228 6 4.980001 0.779997587203979 0 1 -1 0 -0.01064316 -0.01060611 -0.01074775 -0.01056989 -0.0103973 1000 -0.01064316 -0.01060611 -0.01074775 -0.01056989 -0.0103973 1000 -0.01066585 -0.01020758 -0.01033097 -0.01092846 -0.01109737 1000 -0.01066585 -0.01020758 -0.01033097 -0.01092846 -0.01109737 1000
lala 11 0.6 0 first 12 1 229 4 3.84 0.859997510910034 0 0 -1 1 -0.00945579 -0.009274297 -0.009217368 1000 1000 1000 -0.00945579 -0.009274297 -0.009217368 1000 1000 1000 -0.01041871 -0.01023856 -0.01052997 -0.01039923 -0.01060611 1000 -0.01041871 -0.01023856 -0.01052997 -0.01039923 -0.01060611 1000
lala 14 0.0375 0 first 11 1 230 6 5.167501 1.57999682426453 1 1 -1 1 -0.01052462 -0.01079595 -0.0109919 1000 1000 1000 -0.01052462 -0.01079595 -0.0109919 1000 1000 1000 -0.009629318 -0.009794381 -0.01043644 -0.0103348 -0.0103261 1000 -0.009629318 -0.009794381 -0.01043644 -0.0103348 -0.0103261 1000
lala 8 1.2 1 second 4 1 231 6 7.559999 0.439997911453247 -1 0 1 0 -0.01058339 -0.01030572 -0.009991691 -0.01034239 -0.01051528 1000 -0.01058339 -0.01030572 -0.009991691 -0.01034239 -0.01051528 1000 -0.01098395 -0.01087012 -0.01086339 -0.01090419 -0.01088785 1000 -0.01098395 -0.01087012 -0.01086339 -0.01090419 -0.01088785 1000
lala 17 0.6 1 second 15 1 232 5 5.6 0.419997930526733 0 1 1 1 -0.009985599 -0.009876786 -0.009433976 -0.009068549 -0.009576472 1000 -0.009985599 -0.009876786 -0.009433976 -0.009068549 -0.009576472 1000 -0.01069815 -0.01071429 -0.01074409 -0.01063727 -0.01053132 1000 -0.01069815 -0.01071429 -0.01074409 -0.01063727 -0.01053132 1000
lala 14 1.2 1 second 13 1 233 4 5.32 2.17999649047852 0 1 1 1 -0.01074341 -0.01072231 -0.01056342 -0.01050078 -0.01058873 1000 -0.01074341 -0.01072231 -0.01056342 -0.01050078 -0.01058873 1000 -0.01051917 -0.01015469 -0.009510827 -0.008950318 -0.009280674 1000 -0.01051917 -0.01015469 -0.009510827 -0.008950318 -0.009280674 1000
lala 15 0.15 0 first 5 1 234 6 5.130001 0.299998044967651 -1 1 -1 0 -0.01189594 -0.01201151 -0.01198155 1000 1000 1000 -0.01189594 -0.01201151 -0.01198155 1000 1000 1000 -0.01151353 -0.01157497 -0.01196245 -0.01216138 -0.01239195 1000 -0.01151353 -0.01157497 -0.01196245 -0.01216138 -0.01239195 1000
lala 13 0.3 0 first 0 1 235 4 6.539999 1.01999735832214 -1 0 -1 1 -0.0120779 -0.01197379 -0.0117177 1000 1000 1000 -0.0120779 -0.01197379 -0.0117177 1000 1000 1000 -0.012202 -0.0122006 -0.01201424 -0.011875 -0.01164729 1000 -0.012202 -0.0122006 -0.01201424 -0.011875 -0.01164729 1000
lala 16 0.01875 1 first 10 1 236 6 4.95375 1.83999681472778 1 0 1 1 -0.01241348 -0.01187045 -0.01162202 1000 1000 1000 -0.01241348 -0.01187045 -0.01162202 1000 1000 1000 -0.01249093 -0.01225107 -0.01251284 -0.01287586 -0.01238471 1000 -0.01249093 -0.01225107 -0.01251284 -0.01287586 -0.01238471 1000
lala 15 0.01875 1 second 11 1 237 6 5.186251 0.99999737739563 1 1 1 1 -0.01035754 -0.01021158 -0.01063673 -0.01037326 -0.01028892 1000 -0.01035754 -0.01021158 -0.01063673 -0.01037326 -0.01028892 1000 -0.01073698 -0.01102315 -0.01077416 -0.01091212 -0.01101908 1000 -0.01073698 -0.01102315 -0.01077416 -0.01091212 -0.01101908 1000
lala 13 0.15 0 first 7 1 238 4 3.97 0.359997987747192 1 1 -1 1 -0.01092834 -0.01141463 -0.0112292 1000 1000 1000 -0.01092834 -0.01141463 -0.0112292 1000 1000 1000 -0.01135063 -0.01151237 -0.0115573 -0.01137523 -0.01133094 1000 -0.01135063 -0.01151237 -0.0115573 -0.01137523 -0.01133094 1000
lala 14 0.15 0 first 0 1 239 4 6.69 1.27999711036682 -1 0 -1 0 -0.01174909 -0.01204615 -0.01163867 1000 1000 1000 -0.01174909 -0.01204615 -0.01163867 1000 1000 1000 -0.01184961 -0.01168265 -0.01168303 -0.01169183 -0.01160509 1000 -0.01184961 -0.01168265 -0.01168303 -0.01169183 -0.01160509 1000
lala 14 0.15 1 first 7 1 240 4 4.12 0.859997510910034 1 1 1 0 -0.01257164 -0.01216281 -0.01218026 1000 1000 1000 -0.01257164 -0.01216281 -0.01218026 1000 1000 1000 -0.0115543 -0.0102881 -0.01025542 -0.009905552 -0.01028662 1000 -0.0115543 -0.0102881 -0.01025542 -0.009905552 -0.01028662 1000
lala 12 0.3 1 first 12 1 241 4 4.14 1.03999733924866 0 0 1 0 -0.01024055 -0.01012824 -0.009721968 1000 1000 1000 -0.01024055 -0.01012824 -0.009721968 1000 1000 1000 -0.01108191 -0.01119484 -0.01143305 -0.01165471 -0.01121761 1000 -0.01108191 -0.01119484 -0.01143305 -0.01165471 -0.01121761 1000
lala 13 0.15 1 first 12 1 242 4 3.99 0.839997529983521 0 0 1 0 -0.009998052 -0.009935043 -0.01018043 1000 1000 1000 -0.009998052 -0.009935043 -0.01018043 1000 1000 1000 -0.01123238 -0.01119735 -0.01139639 -0.01111354 -0.01102667 1000 -0.01123238 -0.01119735 -0.01139639 -0.01111354 -0.01102667 1000
lala 16 0.3 1 second 5 1 243 6 5.430001 3.07999563217163 -1 1 1 1 -0.01251375 -0.01214008 -0.01211268 -0.01264906 -0.01242404 1000 -0.01251375 -0.01214008 -0.01211268 -0.01264906 -0.01242404 1000 -0.01157327 -0.01137848 -0.01142489 -0.01165323 -0.01189309 1000 -0.01157327 -0.01137848 -0.01142489 -0.01165323 -0.01189309 1000
lala 15 0.15 1 second 17 1 244 6 5.130001 0.899997472763062 0 1 1 0 -0.01335733 -0.01347333 -0.01323532 -0.01247462 -0.01242541 1000 -0.01335733 -0.01347333 -0.01323532 -0.01247462 -0.01242541 1000 -0.01276736 -0.0129417 -0.01276416 -0.01275318 -0.01287033 1000 -0.01276736 -0.0129417 -0.01276416 -0.01275318 -0.01287033 1000
lala 18 0.3 1 second 15 1 245 5 5.3 0.379997968673706 0 1 1 0 -0.01219116 -0.01202336 -0.0122625 -0.01231232 -0.01241883 1000 -0.01219116 -0.01202336 -0.0122625 -0.01231232 -0.01241883 1000 -0.01304027 -0.01319154 -0.01265261 -0.0126138 -0.01289274 1000 -0.01304027 -0.01319154 -0.01265261 -0.0126138 -0.01289274 1000
lala 17 0.0375 0 first 14 1 246 5 4.6125 0.499997854232788 0 0 -1 0 -0.01284734 -0.01281801 -0.01295159 1000 1000 1000 -0.01284734 -0.01281801 -0.01295159 1000 1000 1000 -0.01305182 -0.01308433 -0.01330357 -0.01351625 -0.01363038 1000 -0.01305182 -0.01308433 -0.01330357 -0.01351625 -0.01363038 1000
lala 17 0.01875 0 first 10 1 247 6 4.934999 1.97999668121338 1 0 -1 1 -0.01348169 -0.01359054 -0.01298617 1000 1000 1000 -0.01348169 -0.01359054 -0.01298617 1000 1000 1000 -0.01268627 -0.01257702 -0.01249258 -0.01218916 -0.0124087 1000 -0.01268627 -0.01257702 -0.01249258 -0.01218916 -0.0124087 1000
lala 16 0.009375 1 first 11 1 248 6 5.176876 0.359997987747192 1 1 1 0 -0.01263042 -0.01296268 -0.01301323 1000 1000 1000 -0.01263042 -0.01296268 -0.01301323 1000 1000 1000 -0.01363154 -0.0135119 -0.01319248 -0.01288682 -0.0130031 1000 -0.01363154 -0.0135119 -0.01319248 -0.01288682 -0.0130031 1000
lala 9 1.2 1 first 4 1 249 6 6.36 1.05999732017517 -1 0 1 0 -0.01149902 -0.01150884 -0.01173553 1000 1000 1000 -0.01149902 -0.01150884 -0.01173553 1000 1000 1000 -0.0116135 -0.01133977 -0.01072894 -0.01062695 -0.01112805 1000 -0.0116135 -0.01133977 -0.01072894 -0.01062695 -0.01112805 1000
lala 14 0.15 0 second 12 1 250 4 3.84 0.739997625350952 0 0 -1 1 -0.004644798 -0.004665715 -0.004643723 -0.004661751 -0.00454326 1000 -0.004644798 -0.004665715 -0.004643723 -0.004661751 -0.00454326 1000 -0.005079856 -0.004697382 -0.0047795 -0.005038332 -0.004912797 1000 -0.005079856 -0.004697382 -0.0047795 -0.005038332 -0.004912797 1000
lala 14 2.4 0 first 9 1 251 5 7.85 0.39999794960022 1 1 -1 1 -0.003786674 -0.003745262 -0.00435236 1000 1000 1000 -0.003786674 -0.003745262 -0.00435236 1000 1000 1000 -0.004838172 -0.005007469 -0.005243244 -0.005252078 -0.005408588 1000 -0.004838172 -0.005007469 -0.005243244 -0.005252078 -0.005408588 1000
lala 19 0.3 1 second 15 1 252 5 5 0.379997968673706 0 1 1 0 -0.004949994 -0.005071369 -0.005312388 -0.005473357 -0.005621478 1000 -0.004949994 -0.005071369 -0.005312388 -0.005473357 -0.005621478 1000 -0.005111573 -0.005090643 -0.004993559 -0.004845898 -0.004360238 1000 -0.005111573 -0.005090643 -0.004993559 -0.004845898 -0.004360238 1000
lala 17 0.075 0 second 8 1 253 5 4.5 0.499997854232788 1 0 -1 1 -0.00514163 -0.005260172 -0.005344168 -0.005538395 -0.005128594 1000 -0.00514163 -0.005260172 -0.005344168 -0.005538395 -0.005128594 1000 -0.005005713 -0.004898663 -0.005347854 -0.00548842 -0.005509303 1000 -0.005005713 -0.004898663 -0.005347854 -0.00548842 -0.005509303 1000
lala 15 4.8 1 second 9 1 254 5 12.65 0.279998064041138 1 1 1 0 -0.005381424 -0.005719193 -0.005313592 -0.005179684 -0.005476118 1000 -0.005381424 -0.005719193 -0.005313592 -0.005179684 -0.005476118 1000 -0.005791873 -0.005691215 -0.005986701 -0.006070573 -0.005830865 1000 -0.005791873 -0.005691215 -0.005986701 -0.006070573 -0.005830865 1000
lala 20 0.3 1 second 15 1 255 5 4.699999 1.93999671936035 0 1 1 0 -0.006248896 -0.006285182 -0.006376719 -0.006389996 -0.005839298 1000 -0.006248896 -0.006285182 -0.006376719 -0.006389996 -0.005839298 1000 -0.006262189 -0.006289707 -0.006503203 -0.006193033 -0.006038454 1000 -0.006262189 -0.006289707 -0.006503203 -0.006193033 -0.006038454 1000
lala 10 2.4 0 first 4 1 256 6 3.96 0.259998083114624 -1 0 -1 0 -0.005904622 -0.006148119 -0.006197419 1000 1000 1000 -0.005904622 -0.006148119 -0.006197419 1000 1000 1000 -0.006172607 -0.006312388 -0.006348758 -0.006191547 -0.005958543 1000 -0.006172607 -0.006312388 -0.006348758 -0.006191547 -0.005958543 1000
lala 15 0.15 0 first 0 1 257 4 6.84 0.879997491836548 -1 0 -1 1 -0.005941736 -0.005946395 -0.006494586 1000 1000 1000 -0.005941736 -0.005946395 -0.006494586 1000 1000 1000 -0.005991425 -0.006279634 -0.006204851 -0.00628096 -0.006419648 1000 -0.005991425 -0.006279634 -0.006204851 -0.00628096 -0.006419648 1000
lala 11 1.2 1 second 4 1 258 6 5.16 1.89999675750732 -1 0 1 0 -0.005752002 -0.005725949 -0.005521185 -0.005810267 -0.006294108 1000 -0.005752002 -0.005725949 -0.005521185 -0.005810267 -0.006294108 1000 -0.006366311 -0.006536256 -0.00667774 -0.006539701 -0.006223116 1000 -0.006366311 -0.006536256 -0.00667774 -0.006539701 -0.006223116 1000
lala 15 0.15 0 second 6 1 259 4 4.59 0.39999794960022 1 0 -1 0 -0.006492224 -0.005468833 -0.004799045 -0.004651643 -0.004070586 1000 -0.006492224 -0.005468833 -0.004799045 -0.004651643 -0.004070586 1000 -0.004603777 -0.004428472 -0.004638272 -0.005213161 -0.005040635 1000 -0.004603777 -0.004428472 -0.004638272 -0.005213161 -0.005040635 1000
lala 15 0.075 1 first 12 1 260 4 3.915 0.579997777938843 0 0 1 0 -0.004215505 -0.004219344 -0.004570319 1000 1000 1000 -0.004215505 -0.004219344 -0.004570319 1000 1000 1000 -0.005876642 -0.005650586 -0.005822253 -0.006175374 -0.006385871 1000 -0.005876642 -0.005650586 -0.005822253 -0.006175374 -0.006385871 1000
lala 17 0.009375 1 first 11 1 261 6 5.167501 2.23999643325806 1 1 1 0 -0.00640376 -0.00631197 -0.006141567 1000 1000 1000 -0.00640376 -0.00631197 -0.006141567 1000 1000 1000 -0.006266492 -0.006456356 -0.006205393 -0.005741409 -0.00577377 1000 -0.006266492 -0.006456356 -0.006205393 -0.005741409 -0.00577377 1000
lala 15 0.075 0 first 7 1 262 4 4.045 0.219998121261597 1 1 -1 0 -0.00670014 -0.007224729 -0.007382511 1000 1000 1000 -0.00670014 -0.007224729 -0.007382511 1000 1000 1000 0.003184965 0.003948078 0.004533018 0.004870752 0.004911669 1000 0.003184965 0.003948078 0.004533018 0.004870752 0.004911669 1000
lala 15 0.6 1 second 13 1 263 4 4.72 0.0599982738494873 0 1 1 0 0.007365349 0.007318228 0.00669769 0.006950712 0.007320353 1000 0.007365349 0.007318228 0.00669769 0.006950712 0.007320353 1000 0.007473515 0.007459582 0.007356993 0.007833554 0.008181336 1000 0.007473515 0.007459582 0.007356993 0.007833554 0.008181336 1000
lala 16 0.0375 0 second 12 1 264 4 3.8775 0.599997758865356 0 0 -1 0 0.007222491 0.007372258 0.00777432 0.008137566 0.007983586 1000 0.007222491 0.007372258 0.00777432 0.008137566 0.007983586 1000 0.007512531 0.007824894 0.007858574 0.007768971 0.007881806 1000 0.007512531 0.007824894 0.007858574 0.007768971 0.007881806 1000
lala 13 0.15 1 second 2 1 265 5 7.5 0.39999794960022 -1 0 1 1 0.007085101 0.007091039 0.00783463 0.008601702 0.008941988 1000 0.007085101 0.007091039 0.00783463 0.008601702 0.008941988 1000 0.007275847 0.007488423 0.007674305 0.007928455 0.007647695 1000 0.007275847 0.007488423 0.007674305 0.007928455 0.007647695 1000
lala 16 0.075 0 first 17 1 266 6 5.055001 0.379997968673706 0 1 -1 1 0.00807056 0.008376368 0.008265177 1000 1000 1000 0.00807056 0.008376368 0.008265177 1000 1000 1000 0.006839618 0.006800386 0.006827109 0.007373795 0.007621135 1000 0.006839618 0.006800386 0.006827109 0.007373795 0.007621135 1000
lala 17 0.15 0 first 5 1 267 6 5.280001 0.559997797012329 -1 1 -1 0 0.007345622 0.006902194 0.006697619 1000 1000 1000 0.007345622 0.006902194 0.006697619 1000 1000 1000 0.007106555 0.007140544 0.007391666 0.007348794 0.007497896 1000 0.007106555 0.007140544 0.007391666 0.007348794 0.007497896 1000
lala 12 0.6 0 second 4 1 268 6 4.56 0.579997777938843 -1 0 -1 1 0.006235732 0.006645195 0.006603357 0.006872347 0.006773386 1000 0.006235732 0.006645195 0.006603357 0.006872347 0.006773386 1000 0.007059922 0.007198049 0.007314572 0.00744747 0.007509276 1000 0.007059922 0.007198049 0.007314572 0.00744747 0.007509276 1000
lala 16 0.075 0 second 6 1 269 4 4.665 1.49999690055847 1 0 -1 0 0.006002194 0.006155464 0.005996305 0.006305481 0.006291685 1000 0.006002194 0.006155464 0.005996305 0.006305481 0.006291685 1000 0.006831286 0.006623066 0.006624226 0.006847601 0.00680578 1000 0.006831286 0.006623066 0.006624226 0.006847601 0.00680578 1000
lala 17 0.0375 0 second 17 1 270 6 5.092501 0.539997816085815 0 1 -1 0 0.003563827 0.002598678 0.002635172 0.002734597 0.002585246 1000 0.003563827 0.002598678 0.002635172 0.002734597 0.002585246 1000 0.001871977 0.002358902 0.002835442 0.00259387 0.002785265 1000 0.001871977 0.002358902 0.002835442 0.00259387 0.002785265 1000
lala 18 0.009375 0 first 11 1 271 6 5.158126 0.679997682571411 1 1 -1 1 0.001597861 0.001633253 0.002105403 1000 1000 1000 0.001597861 0.001633253 0.002105403 1000 1000 1000 0.002104203 0.002346278 0.001946069 0.00197515 0.002052874 1000 0.002104203 0.002346278 0.001946069 0.00197515 0.002052874 1000
lala 21 0.6 0 first 15 1 272 5 4.099999 0.599997758865356 0 1 -1 0 0.001350854 0.00131246 0.001418338 1000 1000 1000 0.001350854 0.00131246 0.001418338 1000 1000 1000 0.001514585 0.001401784 0.001586741 0.001827656 0.001947076 1000 0.001514585 0.001401784 0.001586741 0.001827656 0.001947076 1000
lala 16 2.4 0 first 9 1 273 5 10.25 1.35999703407288 1 1 -1 0 0.00240356 0.002343819 0.00232576 1000 1000 1000 0.00240356 0.002343819 0.00232576 1000 1000 1000 7.856408E-05 -0.0005422253 -5.225229E-05 -4.560373E-05 0.0004462162 1000 7.856408E-05 -0.0005422253 -5.225229E-05 -4.560373E-05 0.0004462162 1000
lala 12 0.3 0 first 3 1 274 5 6.65 1.17999720573425 -1 1 -1 0 -0.00262373 -0.00328437 -0.003284815 1000 1000 1000 -0.00262373 -0.00328437 -0.003284815 1000 1000 1000 -0.004682381 -0.004380011 -0.004500844 -0.00485407 -0.00457008 1000 -0.004682381 -0.004380011 -0.004500844 -0.00485407 -0.00457008 1000
lala 16 0.6 0 second 13 1 275 4 4.12 0.959997415542603 0 1 -1 1 -0.006210435 -0.005802563 -0.005780733 -0.006251637 -0.006128936 1000 -0.006210435 -0.005802563 -0.005780733 -0.006251637 -0.006128936 1000 -0.005892469 -0.005935119 -0.005848674 -0.005575291 -0.00498059 1000 -0.005892469 -0.005935119 -0.005848674 -0.005575291 -0.00498059 1000
lala 18 0.0375 0 first 17 1 276 6 5.130001 0.519997835159302 0 1 -1 1 -0.005251283 -0.005295383 -0.004793075 1000 1000 1000 -0.005251283 -0.005295383 -0.004793075 1000 1000 1000 -0.005591008 -0.005185726 -0.005350868 -0.005742253 -0.005743518 1000 -0.005591008 -0.005185726 -0.005350868 -0.005742253 -0.005743518 1000
lala 22 0.3 0 second 15 1 277 5 4.4 0.899997472763062 0 1 -1 0 -0.006621339 -0.006367157 -0.006170599 -0.006184511 -0.006232032 1000 -0.006621339 -0.006367157 -0.006170599 -0.006184511 -0.006232032 1000 -0.005138617 -0.004860468 -0.004537996 -0.004646463 -0.004600524 1000 -0.005138617 -0.004860468 -0.004537996 -0.004646463 -0.004600524 1000
lala 18 0.01875 0 first 14 1 278 5 4.63125 0.839997529983521 0 0 -1 1 -0.005480205 -0.005448567 -0.005782843 1000 1000 1000 -0.005480205 -0.005448567 -0.005782843 1000 1000 1000 -0.005693566 -0.005568109 -0.006079318 -0.006098997 -0.006210707 1000 -0.005693566 -0.005568109 -0.006079318 -0.006098997 -0.006210707 1000
lala 19 0.01875 1 second 14 1 279 5 4.65 1.5399968624115 0 0 1 1 -0.005732932 -0.005572268 -0.005325625 -0.00510919 -0.005305992 1000 -0.005732932 -0.005572268 -0.005325625 -0.00510919 -0.005305992 1000 -0.005876859 -0.006260954 -0.00621382 -0.006258631 -0.006171811 1000 -0.005876859 -0.006260954 -0.00621382 -0.006258631 -0.006171811 1000
lala 23 0.3 0 first 15 1 280 5 4.7 2.25999641418457 0 1 -1 1 -0.008378702 -0.008562536 -0.00814711 1000 1000 1000 -0.008378702 -0.008562536 -0.00814711 1000 1000 1000 -0.005109088 -0.005066592 -0.004937598 -0.004892414 -0.004393068 1000 -0.005109088 -0.005066592 -0.004937598 -0.004892414 -0.004393068 1000
lala 7 1.2 0 first 1 1 281 4 5.32 1.79999685287476 -1 1 -1 1 -0.008531166 -0.008623436 -0.008243942 1000 1000 1000 -0.008531166 -0.008623436 -0.008243942 1000 1000 1000 -0.007450467 -0.006995906 -0.007017408 -0.007491696 -0.008555559 1000 -0.007450467 -0.006995906 -0.007017408 -0.007491696 -0.008555559 1000
lala 19 0.0046875 1 second 11 1 282 6 5.162813 1.83999681472778 1 1 1 0 -0.008206978 -0.008502761 -0.008545768 -0.008339912 -0.007627384 1000 -0.008206978 -0.008502761 -0.008545768 -0.008339912 -0.007627384 1000 -0.007387398 -0.007677716 -0.007307416 -0.006828331 -0.00676508 1000 -0.007387398 -0.007677716 -0.007307416 -0.006828331 -0.00676508 1000
lala 18 0.075 1 second 5 1 283 6 5.355001 2.159996509552 -1 1 1 1 -0.008721594 -0.008500732 -0.008872395 -0.008865405 -0.009036622 1000 -0.008721594 -0.008500732 -0.008872395 -0.008865405 -0.009036622 1000 -0.009487464 -0.009432582 -0.00915099 -0.009188981 -0.009630255 1000 -0.009487464 -0.009432582 -0.00915099 -0.009188981 -0.009630255 1000
lala 17 0.075 0 first 6 1 284 4 4.74 0.259998083114624 1 0 -1 0 -0.009616906 -0.009735418 -0.009764068 1000 1000 1000 -0.009616906 -0.009735418 -0.009764068 1000 1000 1000 -0.008819791 -0.009009173 -0.009064813 -0.009115595 -0.009015245 1000 -0.008819791 -0.009009173 -0.009064813 -0.009115595 -0.009015245 1000
lala 17 0.3 1 first 13 1 285 4 4.42 0.479997873306274 0 1 1 1 -0.00851979 -0.008383192 -0.008208266 1000 1000 1000 -0.00851979 -0.008383192 -0.008208266 1000 1000 1000 -0.008321859 -0.007981401 -0.008025411 -0.008508279 -0.008253898 1000 -0.008321859 -0.007981401 -0.008025411 -0.008508279 -0.008253898 1000
lala 16 0.0375 0 first 7 1 286 4 4.0825 0.559997797012329 1 1 -1 0 -0.008313402 -0.008104915 -0.008001549 1000 1000 1000 -0.008313402 -0.008104915 -0.008001549 1000 1000 1000 -0.005876478 -0.005554643 -0.005408131 -0.005664961 -0.006108006 1000 -0.005876478 -0.005554643 -0.005408131 -0.005664961 -0.006108006 1000
lala 19 0.0375 0 second 5 1 287 6 5.317501 0.899997472763062 -1 1 -1 1 -0.00724821 -0.006545314 -0.006229246 -0.006358825 -0.006431594 1000 -0.00724821 -0.006545314 -0.006229246 -0.006358825 -0.006431594 1000 -0.007047565 -0.00720421 -0.007034756 -0.007181799 -0.00753864 1000 -0.007047565 -0.00720421 -0.007034756 -0.007181799 -0.00753864 1000
lala 24 0.3 0 second 15 1 288 5 5 1.51999688148499 0 1 -1 1 -0.008230703 -0.008007582 -0.008014319 -0.008173467 -0.008314146 1000 -0.008230703 -0.008007582 -0.008014319 -0.008173467 -0.008314146 1000 -0.006942742 -0.007091442 -0.007377968 -0.007146088 -0.00726628 1000 -0.006942742 -0.007091442 -0.007377968 -0.007146088 -0.00726628 1000
lala 16 0.15 0 first 0 1 289 4 6.99 4.21999454498291 -1 0 -1 0 -0.007542079 -0.007572367 -0.00818431 1000 1000 1000 -0.007542079 -0.007572367 -0.00818431 1000 1000 1000 -0.008333486 -0.008478539 -0.008746817 -0.008685806 -0.008693307 1000 -0.008333486 -0.008478539 -0.008746817 -0.008685806 -0.008693307 1000
lala 13 0.15 0 first 3 1 290 5 6.8 1.07999730110168 -1 1 -1 1 -0.00915312 -0.009287565 -0.009455507 1000 1000 1000 -0.00915312 -0.009287565 -0.009455507 1000 1000 1000 -0.0101506 -0.0100064 -0.01019341 -0.009669904 -0.009456106 1000 -0.0101506 -0.0100064 -0.01019341 -0.009669904 -0.009456106 1000
lala 14 0.15 1 first 2 1 291 5 7.349999 1.3999969959259 -1 0 1 0 -0.01002657 -0.009621462 -0.009931387 1000 1000 1000 -0.01002657 -0.009621462 -0.009931387 1000 1000 1000 -0.009183107 -0.009209651 -0.009842852 -0.009881268 -0.009663113 1000 -0.009183107 -0.009209651 -0.009842852 -0.009881268 -0.009663113 1000
lala 17 0.3 1 second 0 1 292 4 7.29 0.0999982357025146 -1 0 1 1 -0.01542465 -0.01436736 -0.01292047 -0.01238207 -0.0125951 1000 -0.01542465 -0.01436736 -0.01292047 -0.01238207 -0.0125951 1000 -0.01421952 -0.01421223 -0.0139979 -0.01371578 -0.01415395 1000 -0.01421952 -0.01421223 -0.0139979 -0.01371578 -0.01415395 1000
lala 18 0.075 0 second 6 1 293 4 4.815 0.39999794960022 1 0 -1 0 -0.01461244 -0.01413874 -0.01378 -0.01400145 -0.013942 1000 -0.01461244 -0.01413874 -0.01378 -0.01400145 -0.013942 1000 -0.01527806 -0.01510224 -0.01460909 -0.01454475 -0.01496223 1000 -0.01527806 -0.01510224 -0.01460909 -0.01454475 -0.01496223 1000
lala 20 0.00234375 0 first 11 1 294 6 5.16047 1.05999732017517 1 1 -1 0 -0.0156068 -0.01566541 -0.01517494 1000 1000 1000 -0.0156068 -0.01566541 -0.01517494 1000 1000 1000 -0.01658082 -0.01644685 -0.01671518 -0.01680578 -0.01692759 1000 -0.01658082 -0.01644685 -0.01671518 -0.01680578 -0.01692759 1000
lala 15 0.3 0 first 2 1 295 5 7.049999 1.21999716758728 -1 0 -1 0 -0.01640163 -0.01643385 -0.01673628 1000 1000 1000 -0.01640163 -0.01643385 -0.01673628 1000 1000 1000 -0.016178 -0.01581917 -0.01592963 -0.0156265 -0.01535346 1000 -0.016178 -0.01581917 -0.01592963 -0.0156265 -0.01535346 1000
lala 15 0.075 0 first 16 1 296 6 4.635 0.0999982357025146 0 0 -1 0 -0.01679504 -0.01688032 -0.01625273 1000 1000 1000 -0.01679504 -0.01688032 -0.01625273 1000 1000 1000 -0.01600184 -0.01594052 -0.01622878 -0.01640568 -0.0159418 1000 -0.01600184 -0.01594052 -0.01622878 -0.01640568 -0.0159418 1000
lala 18 0.009375 0 first 10 1 297 6 4.944375 0.319998025894165 1 0 -1 1 -0.01657479 -0.01592467 -0.01623412 1000 1000 1000 -0.01657479 -0.01592467 -0.01623412 1000 1000 1000 -0.01682774 -0.01735939 -0.01730321 -0.01726183 -0.01737072 1000 -0.01682774 -0.01735939 -0.01730321 -0.01726183 -0.01737072 1000
lala 8 1.2 1 second 1 1 298 4 6.52 1.15999722480774 -1 1 1 1 -0.01730868 -0.01680072 -0.01629135 -0.0149371 -0.01321199 1000 -0.01730868 -0.01680072 -0.01629135 -0.0149371 -0.01321199 1000 -0.0108912 -0.0114885 -0.01183847 -0.01192169 -0.01215588 1000 -0.0108912 -0.0114885 -0.01183847 -0.01192169 -0.01215588 1000
lala 18 0.15 1 first 0 1 299 4 7.14 1.13999724388123 -1 0 1 1 -0.01261749 -0.01296451 -0.01286056 1000 1000 1000 -0.01261749 -0.01296451 -0.01286056 1000 1000 1000 -0.01307349 -0.01311881 -0.01299914 -0.01276338 -0.01293934 1000 -0.01307349 -0.01311881 -0.01299914 -0.01276338 -0.01293934 1000
lala 18 0.0375 0 second 8 1 300 5 4.5375 0.379997968673706 1 0 -1 1 -0.01240026 -0.01252664 -0.01290248 -0.01299298 -0.01332317 1000 -0.01240026 -0.01252664 -0.01290248 -0.01299298 -0.01332317 1000 -0.0137596 -0.01329643 -0.01359413 -0.01338917 -0.01344479 1000 -0.0137596 -0.01329643 -0.01359413 -0.01338917 -0.01344479 1000
lala 16 0.15 1 second 2 1 301 5 7.199999 0.279998064041138 -1 0 1 1 -0.01477605 -0.01432127 -0.01445738 -0.01437198 -0.01393221 1000 -0.01477605 -0.01432127 -0.01445738 -0.01437198 -0.01393221 1000 -0.01472791 -0.01486565 -0.01497786 -0.0150108 -0.01490368 1000 -0.01472791 -0.01486565 -0.01497786 -0.0150108 -0.01490368 1000
lala 19 0.0375 0 second 8 1 302 5 4.575 0.779997587203979 1 0 -1 1 -0.01813787 -0.01890995 -0.01925758 -0.01820149 -0.01570297 1000 -0.01813787 -0.01890995 -0.01925758 -0.01820149 -0.01570297 1000 0.005218465 0.007649983 0.007560802 0.008007103 0.008751961 1000 0.005218465 0.007649983 0.007560802 0.008007103 0.008751961 1000
lala 20 0.01875 1 second 5 1 303 6 5.336251 0.499997854232788 -1 1 1 0 0.007625767 0.007583276 0.007226466 0.007148226 0.006746651 1000 0.007625767 0.007583276 0.007226466 0.007148226 0.006746651 1000 0.007548899 0.007579461 0.006379275 0.005883174 0.005521522 1000 0.007548899 0.007579461 0.006379275 0.005883174 0.005521522 1000
lala 19 0.009375 1 first 10 1 304 6 4.95375 1.13999724388123 1 0 1 0 0.003774898 0.003498018 0.003839392 1000 1000 1000 0.003774898 0.003498018 0.003839392 1000 1000 1000 0.001182565 0.001124249 0.001433203 0.001492503 0.0007378004 1000 0.001182565 0.001124249 0.001433203 0.001492503 0.0007378004 1000
lala 19 0.15 1 second 0 1 305 4 6.99 0.23999810218811 -1 0 1 0 -0.003128136 -0.003406888 -0.003487375 -0.003233946 -0.003290382 1000 -0.003128136 -0.003406888 -0.003487375 -0.003233946 -0.003290382 1000 -0.004882331 -0.004879473 -0.004795876 -0.004633248 -0.004568978 1000 -0.004882331 -0.004879473 -0.004795876 -0.004633248 -0.004568978 1000
lala 9 1.2 0 first 1 1 306 4 5.32 0.439997911453247 -1 1 -1 0 -0.006274153 -0.006125292 -0.00614449 1000 1000 1000 -0.006274153 -0.006125292 -0.00614449 1000 1000 1000 -0.006970459 -0.006831309 -0.007015892 -0.007457444 -0.007623243 1000 -0.006970459 -0.006831309 -0.007015892 -0.007457444 -0.007623243 1000
lala 13 0.3 0 second 4 1 307 6 4.86 0.579997777938843 -1 0 -1 0 -0.007849533 -0.007728359 -0.007609851 -0.007670784 -0.007425543 1000 -0.007849533 -0.007728359 -0.007609851 -0.007670784 -0.007425543 1000 -0.008125787 -0.008154632 -0.008728243 -0.008780975 -0.008981901 1000 -0.008125787 -0.008154632 -0.008728243 -0.008780975 -0.008981901 1000
lala 19 0.0375 0 second 17 1 308 6 5.167501 0.419997930526733 0 1 -1 1 -0.008459115 -0.008637215 -0.008838071 -0.008833254 -0.008594282 1000 -0.008459115 -0.008637215 -0.008838071 -0.008833254 -0.008594282 1000 -0.009759761 -0.009660818 -0.009872012 -0.01010653 -0.01007705 1000 -0.009759761 -0.009660818 -0.009872012 -0.01010653 -0.01007705 1000
lala 21 0.009375 0 first 5 1 309 6 5.326876 0.299998044967651 -1 1 -1 1 -0.008991055 -0.009444391 -0.01028328 1000 1000 1000 -0.008991055 -0.009444391 -0.01028328 1000 1000 1000 -0.01141816 -0.01113328 -0.01085726 -0.0106634 -0.01023552 1000 -0.01141816 -0.01113328 -0.01085726 -0.0106634 -0.01023552 1000
lala 17 0.075 0 first 2 1 310 5 7.125 0.639997720718384 -1 0 -1 1 -0.01103816 -0.01125234 -0.01144894 1000 1000 1000 -0.01103816 -0.01125234 -0.01144894 1000 1000 1000 -0.01217872 -0.01253737 -0.01221513 -0.01206262 -0.01207671 1000 -0.01217872 -0.01253737 -0.01221513 -0.01206262 -0.01207671 1000
lala 16 0.0375 0 first 16 1 311 6 4.6725 0.499997854232788 0 0 -1 0 -0.01217101 -0.01201316 -0.0122193 1000 1000 1000 -0.01217101 -0.01201316 -0.0122193 1000 1000 1000 -0.01265402 -0.01253277 -0.01212678 -0.01215394 -0.01210874 1000 -0.01265402 -0.01253277 -0.01212678 -0.01215394 -0.01210874 1000
lala 20 0.009375 1 second 14 1 312 5 4.640625 0.819997549057007 0 0 1 0 -0.01404095 -0.01358298 -0.0139263 -0.01432008 -0.01425715 1000 -0.01404095 -0.01358298 -0.0139263 -0.01432008 -0.01425715 1000 -0.01379686 -0.01407094 -0.01432623 -0.01461548 -0.01482529 1000 -0.01379686 -0.01407094 -0.01432623 -0.01461548 -0.01482529 1000
lala 20 0.0375 1 second 8 1 313 5 4.6125 1.3999969959259 1 0 1 0 -0.01541399 -0.01465624 -0.01470842 -0.01547503 -0.01595995 1000 -0.01541399 -0.01465624 -0.01470842 -0.01547503 -0.01595995 1000 -0.01686348 -0.01686728 -0.01699307 -0.01665716 -0.01679701 1000 -0.01686348 -0.01686728 -0.01699307 -0.01665716 -0.01679701 1000
lala 21 0.001171875 1 second 11 1 314 6 5.161642 1.95999670028687 1 1 1 1 -0.01671288 -0.01680875 -0.01663829 -0.01677956 -0.01699578 1000 -0.01671288 -0.01680875 -0.01663829 -0.01677956 -0.01699578 1000 -0.01632731 -0.0157772 -0.01594699 -0.01649598 -0.01642402 1000 -0.01632731 -0.0157772 -0.01594699 -0.01649598 -0.01642402 1000
lala 17 0.0375 0 first 16 1 315 6 4.71 0.159998178482056 0 0 -1 1 -0.01698412 -0.01714588 -0.01723624 1000 1000 1000 -0.01698412 -0.01714588 -0.01723624 1000 1000 1000 -0.01698004 -0.01678841 -0.01657866 -0.01606365 -0.01586222 1000 -0.01698004 -0.01678841 -0.01657866 -0.01606365 -0.01586222 1000
