subject PestNr Step_Size_OnTrial Pest_Faster Pest_Interval Condition block trial velH velH_Pest Reaction_Time velH_Subject Start_Above Response_MotionEstimation RightOrLeftxRotations_first0 xRotations_first1 xRotations_first2 xRotations_first3 xRotations_first4 xRotations_first5 yRotations_first0 yRotations_first1 yRotations_first2 yRotations_first3 yRotations_first4 yRotations_first5 xRotations_second0 xRotations_second1 xRotations_second2 xRotations_second3 xRotations_second4 xRotations_second5 yRotations_second0 yRotations_second1 yRotations_second2 yRotations_second3 yRotations_second4 yRotations_second5
lala 1 1.2 1 first 0 1 1 4 2.64 0.719997644424438 -1 0 1 1 -0.008505138 -0.01028289 -0.01414253 -0.01873157 -0.02214849 -0.02277356 -0.008505138 -0.01028289 -0.01414253 -0.01873157 -0.02214849 -0.02277356 -0.01369015 -0.01353675 -0.01298251 -0.01284996 -0.01252008 1000 -0.01369015 -0.01353675 -0.01298251 -0.01284996 -0.01252008 1000
lala 1 1.2 1 second 14 1 2 5 3.3 0.659997701644897 0 0 1 1 -0.0107875 -0.01101225 -0.01123711 -0.01058188 -0.01040618 1000 -0.0107875 -0.01101225 -0.01123711 -0.01058188 -0.01040618 1000 -0.009803169 -0.009702558 -0.009916259 -0.00983299 -0.009845102 1000 -0.009803169 -0.009702558 -0.009916259 -0.00983299 -0.009845102 1000
lala 1 1.2 1 second 7 1 3 4 5.32 0.579997777938843 1 1 1 1 -0.008333907 -0.008084922 -0.008289998 -0.008447354 -0.008493665 1000 -0.008333907 -0.008084922 -0.008289998 -0.008447354 -0.008493665 1000 -0.007959276 -0.007415905 -0.007152324 -0.007649271 -0.00780032 1000 -0.007959276 -0.007415905 -0.007152324 -0.007649271 -0.00780032 1000
lala 1 1.2 1 first 5 1 4 6 7.98 0.879997491836548 -1 1 1 0 -0.01421958 -0.009957036 -0.009786189 1000 1000 1000 -0.01421958 -0.009957036 -0.009786189 1000 1000 1000 -0.01095222 -0.01054763 -0.009905232 -0.009394486 -0.009105584 1000 -0.01095222 -0.01054763 -0.009905232 -0.009394486 -0.009105584 1000
lala 2 1.2 0 second 0 1 5 4 1.44 0.61999773979187 -1 0 -1 0 -0.006917374 -0.006597782 -0.006178864 -0.005956015 -0.006337713 1000 -0.006917374 -0.006597782 -0.006178864 -0.005956015 -0.006337713 1000 -0.006398569 -0.006078004 -0.005874487 -0.005863525 -0.005459752 1000 -0.006398569 -0.006078004 -0.005874487 -0.005863525 -0.005459752 1000
lala 1 1.2 1 second 10 1 6 6 3.96 1.19999718666077 1 0 1 0 -0.003702726 -0.003965753 -0.003827813 -0.003394788 -0.003465482 1000 -0.003702726 -0.003965753 -0.003827813 -0.003394788 -0.003465482 1000 -0.00353535 -0.003571456 -0.003711293 -0.003705598 -0.003502883 1000 -0.00353535 -0.003571456 -0.003711293 -0.003705598 -0.003502883 1000
lala 1 1.2 1 first 9 1 7 5 6.65 1.89999675750732 1 1 1 1 -0.005494541 -0.006367885 -0.007594827 1000 1000 1000 -0.005494541 -0.006367885 -0.007594827 1000 1000 1000 -0.01072039 -0.01062112 -0.009724363 -0.006570834 -0.004101055 1000 -0.01072039 -0.01062112 -0.009724363 -0.006570834 -0.004101055 1000
lala 2 1.2 1 second 7 1 8 4 4.12 0.99999737739563 1 1 1 1 0.01029774 0.0110579 0.01138817 0.01180965 0.01162604 1000 0.01029774 0.0110579 0.01138817 0.01180965 0.01162604 1000 0.01023676 0.01066035 0.01034484 0.01086379 0.01144597 1000 0.01023676 0.01066035 0.01034484 0.01086379 0.01144597 1000
lala 1 1.2 0 first 16 1 9 6 3.96 0.979997396469116 0 0 -1 0 0.01582917 0.01674035 0.01753422 1000 1000 1000 0.01582917 0.01674035 0.01753422 1000 1000 1000 0.01913395 0.01899437 0.01908834 0.01925959 0.01987741 1000 0.01913395 0.01899437 0.01908834 0.01925959 0.01987741 1000
lala 1 1.2 1 first 15 1 10 5 6.65 0.859997510910034 0 1 1 1 0.02377689 0.02606077 0.0287797 1000 1000 1000 0.02377689 0.02606077 0.0287797 1000 1000 1000 0.01086713 0.0096166 0.01040019 0.01225099 0.01468404 1000 0.01086713 0.0096166 0.01040019 0.01225099 0.01468404 1000
lala 1 1.2 0 second 8 1 11 5 3.3 0.759997606277466 1 0 -1 0 0.01464253 0.01475065 0.01515243 0.01585258 0.01546327 1000 0.01464253 0.01475065 0.01515243 0.01585258 0.01546327 1000 0.01508332 0.01547549 0.01567824 0.01589222 0.0160098 1000 0.01508332 0.01547549 0.01567824 0.01589222 0.0160098 1000
lala 1 1.2 1 first 1 1 12 4 5.32 0.899997472763062 -1 1 1 0 0.01556794 0.01622186 0.01626595 1000 1000 1000 0.01556794 0.01622186 0.01626595 1000 1000 1000 0.0167688 0.01664549 0.01648128 0.01659385 0.01656957 1000 0.0167688 0.01664549 0.01648128 0.01659385 0.01656957 1000
lala 2 1.2 1 first 8 1 13 5 4.5 0.99999737739563 1 0 1 1 0.01749706 0.01809311 0.01804681 1000 1000 1000 0.01749706 0.01809311 0.01804681 1000 1000 1000 0.01724545 0.01710488 0.01735618 0.01792737 0.01820143 1000 0.01724545 0.01710488 0.01735618 0.01792737 0.01820143 1000
lala 1 1.2 1 second 13 1 14 4 5.32 0.459997892379761 0 1 1 1 0.01828426 0.01840771 0.01905462 0.01902502 0.0191745 1000 0.01828426 0.01840771 0.01905462 0.01902502 0.0191745 1000 0.01889894 0.01909249 0.01890486 0.01977567 0.02030925 1000 0.01889894 0.01909249 0.01890486 0.01977567 0.02030925 1000
lala 1 1.2 0 second 2 1 15 5 3.3 0.659997701644897 -1 0 -1 0 0.02173187 0.02153046 0.02152864 0.02165681 0.02154954 1000 0.02173187 0.02153046 0.02152864 0.02165681 0.02154954 1000 0.0220254 0.02155628 0.02143685 0.02129701 0.02141351 1000 0.0220254 0.02155628 0.02143685 0.02129701 0.02141351 1000
lala 1 1.2 0 second 6 1 16 4 2.64 0.679997682571411 1 0 -1 1 0.02418071 0.02419276 0.02390845 0.02391149 0.0238309 1000 0.02418071 0.02419276 0.02390845 0.02391149 0.0238309 1000 0.02319165 0.02356965 0.02424436 0.02369447 0.0237409 1000 0.02319165 0.02356965 0.02424436 0.02369447 0.0237409 1000
lala 3 1.2 0 first 0 1 17 4 2.64 0.959997415542603 -1 0 -1 1 0.02503862 0.02475015 0.02463491 1000 1000 1000 0.02503862 0.02475015 0.02463491 1000 1000 1000 0.01719219 0.01697372 0.01743282 0.01766196 0.01840913 1000 0.01719219 0.01697372 0.01743282 0.01766196 0.01840913 1000
lala 2 1.2 1 second 16 1 18 6 5.16 0.499997854232788 0 0 1 1 0.02079675 0.02118964 0.02137312 0.02171672 0.02157951 1000 0.02079675 0.02118964 0.02137312 0.02171672 0.02157951 1000 0.02018997 0.01991878 0.01999353 0.02076435 0.02109787 1000 0.02018997 0.01991878 0.01999353 0.02076435 0.02109787 1000
lala 2 1.2 1 second 15 1 19 5 5.45 0.739997625350952 0 1 1 1 0.02237451 0.02272175 0.02225149 0.02211383 0.02223471 1000 0.02237451 0.02272175 0.02225149 0.02211383 0.02223471 1000 0.02224105 0.02252688 0.02285587 0.02265463 0.02218502 1000 0.02224105 0.02252688 0.02285587 0.02265463 0.02218502 1000
lala 3 1.2 1 first 16 1 20 6 3.96 0.919997453689575 0 0 1 0 0.02422368 0.0239072 0.02367362 1000 1000 1000 0.02422368 0.0239072 0.02367362 1000 1000 1000 0.02252857 0.02272707 0.02280453 0.02293186 0.02355935 1000 0.02252857 0.02272707 0.02280453 0.02293186 0.02355935 1000
lala 2 1.2 1 first 6 1 21 4 3.84 1.03999733924866 1 0 1 0 0.02486523 0.02477657 0.02452719 1000 1000 1000 0.02486523 0.02477657 0.02452719 1000 1000 1000 0.02297933 0.02287493 0.02288026 0.02373869 0.02385314 1000 0.02297933 0.02287493 0.02288026 0.02373869 0.02385314 1000
lala 2 1.2 1 first 5 1 22 6 6.780001 1.69999694824219 -1 1 1 1 0.02481253 0.02494963 0.02485545 1000 1000 1000 0.02481253 0.02494963 0.02485545 1000 1000 1000 0.02467418 0.02531054 0.02575536 0.02565192 0.02557545 1000 0.02467418 0.02531054 0.02575536 0.02565192 0.02557545 1000
lala 2 1.2 0 first 14 1 23 5 2.1 0.539997816085815 0 0 -1 1 0.01877624 0.01311433 0.008536961 1000 1000 1000 0.01877624 0.01311433 0.008536961 1000 1000 1000 0.01198859 0.01249331 0.01301067 0.01299242 0.01276667 1000 0.01198859 0.01249331 0.01301067 0.01299242 0.01276667 1000
lala 2 1.2 0 second 10 1 24 6 2.76 0.819997549057007 1 0 -1 1 0.0152759 0.01538247 0.01428293 0.01470517 0.01527853 1000 0.0152759 0.01538247 0.01428293 0.01470517 0.01527853 1000 0.01584453 0.01559821 0.01527124 0.01516979 0.01579443 1000 0.01584453 0.01559821 0.01527124 0.01516979 0.01579443 1000
lala 3 1.2 1 second 10 1 25 6 3.96 0.659997701644897 1 0 1 1 0.01521521 0.01588202 0.01702513 0.01806739 0.01789352 1000 0.01521521 0.01588202 0.01702513 0.01806739 0.01789352 1000 0.01661664 0.01699214 0.01713545 0.01724115 0.01674017 1000 0.01661664 0.01699214 0.01713545 0.01724115 0.01674017 1000
lala 2 1.2 1 second 2 1 26 5 4.5 0.899997472763062 -1 0 1 1 0.01797508 0.01848615 0.01904622 0.02005186 0.01962655 1000 0.01797508 0.01848615 0.01904622 0.02005186 0.01962655 1000 0.01839608 0.0185268 0.01861343 0.01889011 0.0190597 1000 0.01839608 0.0185268 0.01861343 0.01889011 0.0190597 1000
lala 3 1.2 0 second 7 1 27 4 2.92 0.519997835159302 1 1 -1 0 0.02066536 0.02029105 0.02083334 0.02089177 0.02039785 1000 0.02066536 0.02029105 0.02083334 0.02089177 0.02039785 1000 0.01973362 0.01987345 0.02023469 0.0204991 0.02007202 1000 0.01973362 0.01987345 0.02023469 0.0204991 0.02007202 1000
lala 3 1.2 1 first 14 1 28 5 3.3 0.0999982357025146 0 0 1 1 0.02138526 0.02158882 0.02147834 1000 1000 1000 0.02138526 0.02158882 0.02147834 1000 1000 1000 0.02050123 0.0205185 0.02053236 0.02058397 0.02144337 1000 0.02050123 0.0205185 0.02053236 0.02058397 0.02144337 1000
lala 1 1.2 0 second 4 1 29 6 3.96 1.3999969959259 -1 0 -1 1 0.02122469 0.021567 0.02119377 0.0222823 0.02326276 1000 0.02122469 0.021567 0.02119377 0.0222823 0.02326276 1000 0.02064124 0.02043766 0.01758407 0.01871554 0.0221017 1000 0.02064124 0.02043766 0.01758407 0.01871554 0.0221017 1000
lala 4 1.2 0 first 14 1 30 5 2.1 0.299998044967651 0 0 -1 0 0.02292013 0.02222581 0.02230817 1000 1000 1000 0.02292013 0.02222581 0.02230817 1000 1000 1000 0.02232542 0.02233241 0.02222281 0.02225192 0.02248568 1000 0.02232542 0.02233241 0.02222281 0.02225192 0.02248568 1000
lala 2 1.2 1 first 1 1 31 4 4.12 1.55999684333801 -1 1 1 0 0.0224249 0.02248827 0.02278689 1000 1000 1000 0.0224249 0.02248827 0.02278689 1000 1000 1000 0.02357218 0.02398214 0.02411305 0.02376046 0.02332862 1000 0.02357218 0.02398214 0.02411305 0.02376046 0.02332862 1000
lala 4 1.2 0 second 0 1 32 4 3.84 0.639997720718384 -1 0 -1 1 0.02367178 0.02358874 0.02355928 0.02393306 0.02352134 1000 0.02367178 0.02358874 0.02355928 0.02393306 0.02352134 1000 0.02219008 0.022374 0.02239996 0.02266917 0.02320014 1000 0.02219008 0.022374 0.02239996 0.02266917 0.02320014 1000
lala 1 1.2 1 second 3 1 33 5 6.65 0.739997625350952 -1 1 1 1 0.02434256 0.02441389 0.02452869 0.02464184 0.02494687 1000 0.02434256 0.02441389 0.02452869 0.02464184 0.02494687 1000 0.0236003 0.02317871 0.02295062 0.02287015 0.02330668 1000 0.0236003 0.02317871 0.02295062 0.02287015 0.02330668 1000
lala 3 1.2 0 second 1 1 34 4 2.92 0.759997606277466 -1 1 -1 1 0.02453962 0.0246089 0.02520425 0.02520711 0.02559938 1000 0.02453962 0.0246089 0.02520425 0.02520711 0.02559938 1000 0.02423775 0.02360796 0.02376248 0.0240588 0.02470371 1000 0.02423775 0.02360796 0.02376248 0.0240588 0.02470371 1000
lala 3 1.2 1 first 5 1 35 6 5.580001 0.979997396469116 -1 1 1 0 0.02556434 0.02631916 0.02599385 1000 1000 1000 0.02556434 0.02631916 0.02599385 1000 1000 1000 0.02610949 0.02601384 0.02639434 0.02619023 0.02688247 1000 0.02610949 0.02601384 0.02639434 0.02619023 0.02688247 1000
lala 4 1.2 0 second 10 1 36 6 2.76 1.15999722480774 1 0 -1 1 0.01951061 0.01919751 0.01853114 0.01862997 0.0188534 1000 0.01951061 0.01919751 0.01853114 0.01862997 0.0188534 1000 0.0208599 0.02070212 0.02120045 0.02139777 0.02220021 1000 0.0208599 0.02070212 0.02120045 0.02139777 0.02220021 1000
lala 2 1.2 0 first 4 1 37 6 5.16 1.49999690055847 -1 0 -1 0 0.02199232 0.02240885 0.02259153 1000 1000 1000 0.02199232 0.02240885 0.02259153 1000 1000 1000 0.02424897 0.02378914 0.02366834 0.02368361 0.02357137 1000 0.02424897 0.02378914 0.02366834 0.02368361 0.02357137 1000
lala 3 1.2 0 second 8 1 38 5 3.3 0.799997568130493 1 0 -1 0 0.02257725 0.02288088 0.02321653 0.02294488 0.02332323 1000 0.02257725 0.02288088 0.02321653 0.02294488 0.02332323 1000 0.02391159 0.0237497 0.02358493 0.02373889 0.02358358 1000 0.02391159 0.0237497 0.02358493 0.02373889 0.02358358 1000
lala 3 1.2 0 second 2 1 39 5 3.3 0.439997911453247 -1 0 -1 1 0.02279491 0.02292118 0.02347071 0.02354859 0.02412383 1000 0.02279491 0.02292118 0.02347071 0.02354859 0.02412383 1000 0.02399292 0.02404262 0.02381578 0.02380211 0.02404417 1000 0.02399292 0.02404262 0.02381578 0.02380211 0.02404417 1000
lala 5 1.2 0 first 14 1 40 5 3.3 1.61999702453613 0 0 -1 0 0.02460225 0.02442365 0.02450075 1000 1000 1000 0.02460225 0.02442365 0.02450075 1000 1000 1000 0.0247378 0.02414655 0.02377636 0.02364484 0.02375795 1000 0.0247378 0.02414655 0.02377636 0.02364484 0.02375795 1000
lala 5 1.2 1 first 0 1 41 4 5.04 0.499997854232788 -1 0 1 0 0.02546408 0.02559902 0.02512804 1000 1000 1000 0.02546408 0.02559902 0.02512804 1000 1000 1000 0.0250178 0.02485863 0.0254833 0.02556743 0.02557822 1000 0.0250178 0.02485863 0.0254833 0.02556743 0.02557822 1000
lala 3 1.2 1 first 15 1 42 5 4.25 0.299998044967651 0 1 1 1 0.02483605 0.02462466 0.02455189 1000 1000 1000 0.02483605 0.02462466 0.02455189 1000 1000 1000 0.02452497 0.02458705 0.0251265 0.02525177 0.0250292 1000 0.02452497 0.02458705 0.0251265 0.02525177 0.0250292 1000
lala 5 1.2 0 first 10 1 43 6 3.96 0.979997396469116 1 0 -1 0 0.0251715 0.02569916 0.02554346 1000 1000 1000 0.0251715 0.02569916 0.02554346 1000 1000 1000 0.02683017 0.02651701 0.02602037 0.02593248 0.02633216 1000 0.02683017 0.02651701 0.02602037 0.02593248 0.02633216 1000
lala 4 1.2 1 second 7 1 44 4 4.12 1.93999671936035 1 1 1 1 0.004382552 0.006943263 0.008737295 0.007481353 0.007050072 1000 0.004382552 0.006943263 0.008737295 0.007481353 0.007050072 1000 0.00953013 0.009216731 0.009305596 0.0093841 0.009450238 1000 0.00953013 0.009216731 0.009305596 0.0093841 0.009450238 1000
lala 2 1.2 1 first 13 1 45 4 4.12 0.739997625350952 0 1 1 1 0.01243878 0.01294983 0.01269721 1000 1000 1000 0.01243878 0.01294983 0.01269721 1000 1000 1000 0.01186664 0.01359127 0.01304313 0.01204908 0.01183567 1000 0.01186664 0.01359127 0.01304313 0.01204908 0.01183567 1000
lala 3 1.2 0 second 6 1 46 4 2.64 1.03999733924866 1 0 -1 1 0.01274507 0.01295536 0.0115508 0.009483402 0.008549021 1000 0.01274507 0.01295536 0.0115508 0.009483402 0.008549021 1000 0.009423147 0.01386185 0.01495697 0.01413333 0.01308391 1000 0.009423147 0.01386185 0.01495697 0.01413333 0.01308391 1000
lala 2 1.2 1 first 9 1 47 5 5.45 1.11999726295471 1 1 1 1 0.01273728 0.01241885 0.01168016 1000 1000 1000 0.01273728 0.01241885 0.01168016 1000 1000 1000 0.01298064 0.01288607 0.01258161 0.01275112 0.01338642 1000 0.01298064 0.01288607 0.01258161 0.01275112 0.01338642 1000
lala 6 1.2 0 second 0 1 48 4 3.84 1.23999714851379 -1 0 -1 0 0.01406235 0.01386725 0.01388028 0.01368631 0.01371399 1000 0.01406235 0.01386725 0.01388028 0.01368631 0.01371399 1000 0.01497307 0.01480492 0.01436406 0.01383867 0.01365936 1000 0.01497307 0.01480492 0.01436406 0.01383867 0.01365936 1000
lala 1 1.2 1 second 11 1 49 6 7.98 0.479997873306274 1 1 1 0 0.01568056 0.01365942 0.01550977 0.01688156 0.01775042 1000 0.01568056 0.01365942 0.01550977 0.01688156 0.01775042 1000 0.02012081 0.02094205 0.01908876 0.01944582 0.02013803 1000 0.02012081 0.02094205 0.01908876 0.01944582 0.02013803 1000
lala 4 1.2 1 second 8 1 50 5 4.5 0.739997625350952 1 0 1 1 -0.008992203 -0.00704871 -0.005611495 -0.005862297 -0.0001876076 1000 -0.008992203 -0.00704871 -0.005611495 -0.005862297 -0.0001876076 1000 0.01114774 0.01026706 0.005727313 4.230122E-05 -0.005187022 1000 0.01114774 0.01026706 0.005727313 4.230122E-05 -0.005187022 1000
lala 4 1.2 1 second 2 1 51 5 4.5 1.3999969959259 -1 0 1 0 0.03499284 0.02459336 0.0274379 0.036046 0.03481671 1000 0.03499284 0.02459336 0.0274379 0.036046 0.03481671 1000 0.02731491 0.02694554 0.02619331 0.02638314 0.02637738 1000 0.02731491 0.02694554 0.02619331 0.02638314 0.02637738 1000
lala 1 1.2 1 first 17 1 52 6 7.98 0.519997835159302 0 1 1 0 0.004162597 -0.005760279 -0.00807178 1000 1000 1000 0.004162597 -0.005760279 -0.00807178 1000 1000 1000 -0.002678012 -0.002578132 -0.001464931 -4.476347E-05 0.0001752903 1000 -0.002678012 -0.002578132 -0.001464931 -4.476347E-05 0.0001752903 1000
lala 3 1.2 1 first 4 1 53 6 6.36 0.599997758865356 -1 0 1 1 -0.0008717087 -0.00219747 -0.00382824 1000 1000 1000 -0.0008717087 -0.00219747 -0.00382824 1000 1000 1000 0.0003268071 0.0008572896 0.004990113 0.008620214 0.009108026 1000 0.0003268071 0.0008572896 0.004990113 0.008620214 0.009108026 1000
lala 3 1.2 0 second 13 1 54 4 2.92 1.99999666213989 0 1 -1 1 0.009487743 0.009894706 0.009739607 0.009447715 0.009438291 1000 0.009487743 0.009894706 0.009739607 0.009447715 0.009438291 1000 0.0103677 0.01115106 0.01113486 0.01070695 0.01035974 1000 0.0103677 0.01115106 0.01113486 0.01070695 0.01035974 1000
lala 6 1.2 1 second 10 1 55 6 5.16 2.09999656677246 1 0 1 0 0.007098021 0.006911458 0.007696798 0.008117249 0.009420304 1000 0.007098021 0.006911458 0.007696798 0.008117249 0.009420304 1000 0.01516307 0.01553291 0.0214714 0.02631458 0.03210401 1000 0.01516307 0.01553291 0.0214714 0.02631458 0.03210401 1000
lala 3 1.2 1 second 9 1 56 5 4.25 1.47999691963196 1 1 1 1 0.02558654 0.02641345 0.02763781 0.02721908 0.02550722 1000 0.02558654 0.02641345 0.02763781 0.02721908 0.02550722 1000 0.02108689 0.02092553 0.02073855 0.02135954 0.02170655 1000 0.02108689 0.02092553 0.02073855 0.02135954 0.02170655 1000
lala 7 1.2 1 second 0 1 57 4 5.04 1.37999701499939 -1 0 1 1 0.0213062 0.02116497 0.02155518 0.02150413 0.02172978 1000 0.0213062 0.02116497 0.02155518 0.02150413 0.02172978 1000 0.02136531 0.02125754 0.02173364 0.02226112 0.02201783 1000 0.02136531 0.02125754 0.02173364 0.02226112 0.02201783 1000
lala 8 1.2 0 first 0 1 58 4 3.84 0.579997777938843 -1 0 -1 0 0.02503555 0.02492152 0.02427865 1000 1000 1000 0.02503555 0.02492152 0.02427865 1000 1000 1000 0.02386287 0.02421695 0.02491136 0.02511759 0.0250234 1000 0.02386287 0.02421695 0.02491136 0.02511759 0.0250234 1000
lala 4 1.2 0 second 9 1 59 5 3.05 0.39999794960022 1 1 -1 1 0.01908864 0.01979612 0.02136473 0.01957893 0.01859477 1000 0.01908864 0.01979612 0.02136473 0.01957893 0.01859477 1000 0.01910144 0.01724318 0.01669887 0.01761555 0.01942634 1000 0.01910144 0.01724318 0.01669887 0.01761555 0.01942634 1000
lala 2 1.2 0 second 17 1 60 6 6.780001 1.55999684333801 0 1 -1 1 0.020424 0.0198231 0.02136801 0.02130042 0.0205124 1000 0.020424 0.0198231 0.02136801 0.02130042 0.0205124 1000 0.0186716 0.02186637 0.02355035 0.02283966 0.02321937 1000 0.0186716 0.02186637 0.02355035 0.02283966 0.02321937 1000
lala 4 1.2 1 first 13 1 61 4 4.12 0.279998064041138 0 1 1 0 0.02486726 0.02582884 0.0270824 1000 1000 1000 0.02486726 0.02582884 0.0270824 1000 1000 1000 -0.01315904 -0.01369899 -0.01379143 -0.01310786 -0.01365986 1000 -0.01315904 -0.01369899 -0.01379143 -0.01310786 -0.01365986 1000
lala 4 1.2 0 second 15 1 62 5 3.05 0.319998025894165 0 1 -1 0 -0.005372643 -0.005035854 -0.005276006 -0.005295765 -0.005156243 1000 -0.005372643 -0.005035854 -0.005276006 -0.005295765 -0.005156243 1000 -0.002236899 -0.002283992 -0.002423252 -0.002391269 -0.00236658 1000 -0.002236899 -0.002283992 -0.002423252 -0.002391269 -0.00236658 1000
lala 5 1.2 0 first 13 1 63 4 2.92 0.879997491836548 0 1 -1 1 -0.002129487 -0.001766927 -0.001640271 1000 1000 1000 -0.002129487 -0.001766927 -0.001640271 1000 1000 1000 -0.000915395 -0.0006026015 -0.000169242 -0.0002836751 -0.0004257628 1000 -0.000915395 -0.0006026015 -0.000169242 -0.0002836751 -0.0004257628 1000
lala 6 1.2 1 second 13 1 64 4 4.12 1.95999670028687 0 1 1 1 -0.001248297 -0.001950156 -0.002303635 -0.002399978 -0.002454312 1000 -0.001248297 -0.001950156 -0.002303635 -0.002399978 -0.002454312 1000 0.01644508 0.01402694 0.01102068 0.008671063 0.01074774 1000 0.01644508 0.01402694 0.01102068 0.008671063 0.01074774 1000
lala 2 1.2 1 first 11 1 65 6 6.780001 1.17999720573425 1 1 1 0 0.006680876 0.006546536 0.006643281 1000 1000 1000 0.006680876 0.006546536 0.006643281 1000 1000 1000 0.007733393 0.008390617 0.008358648 0.007479135 0.007087646 1000 0.007733393 0.008390617 0.008358648 0.007479135 0.007087646 1000
lala 3 1.2 1 second 11 1 66 6 5.580001 0.199998140335083 1 1 1 1 0.009292833 0.009498565 0.009676262 0.01026169 0.01145882 1000 0.009292833 0.009498565 0.009676262 0.01026169 0.01145882 1000 0.01384421 0.009040772 0.00730418 0.008375956 0.01028904 1000 0.01384421 0.009040772 0.00730418 0.008375956 0.01028904 1000
lala 5 1.2 1 first 15 1 67 5 4.25 0.719997644424438 0 1 1 0 0.0112627 0.01137423 0.01192928 1000 1000 1000 0.0112627 0.01137423 0.01192928 1000 1000 1000 0.01377115 0.01363321 0.01341191 0.01373522 0.01422324 1000 0.01377115 0.01363321 0.01341191 0.01373522 0.01422324 1000
lala 2 1.2 1 second 3 1 68 5 5.45 0.279998064041138 -1 1 1 1 0.01580365 0.01598061 0.01571421 0.01619822 0.01535689 1000 0.01580365 0.01598061 0.01571421 0.01619822 0.01535689 1000 0.01706776 0.01638293 0.01614621 0.0167318 0.01778987 1000 0.01706776 0.01638293 0.01614621 0.0167318 0.01778987 1000
lala 3 1.2 0 first 3 1 69 5 4.25 1.55999684333801 -1 1 -1 1 0.01877815 0.01936996 0.0182566 1000 1000 1000 0.01877815 0.01936996 0.0182566 1000 1000 1000 0.02082009 0.02161974 0.02196667 0.02183316 0.02162733 1000 0.02082009 0.02161974 0.02196667 0.02183316 0.02162733 1000
lala 6 1.2 1 first 15 1 70 5 3.05 0.639997720718384 0 1 1 0 0.02188649 0.02204775 0.02282068 1000 1000 1000 0.02188649 0.02204775 0.02282068 1000 1000 1000 0.02244526 0.02238284 0.02197527 0.02170793 0.02179777 1000 0.02244526 0.02238284 0.02197527 0.02170793 0.02179777 1000
lala 7 1.2 0 second 10 1 71 6 3.96 1.8599967956543 1 0 -1 0 0.02213721 0.02092436 0.02418826 0.02586689 0.02895556 1000 0.02213721 0.02092436 0.02418826 0.02586689 0.02895556 1000 0.03092667 0.02874492 0.02838135 0.02492007 0.0212432 1000 0.03092667 0.02874492 0.02838135 0.02492007 0.0212432 1000
lala 4 1.2 1 first 16 1 72 6 2.76 1.17999720573425 0 0 1 1 0.01823278 0.01944764 0.01969003 1000 1000 1000 0.01823278 0.01944764 0.01969003 1000 1000 1000 0.01937302 0.01937369 0.01946886 0.01965972 0.02024521 1000 0.01937302 0.01937369 0.01946886 0.01965972 0.02024521 1000
lala 3 1.2 1 second 17 1 73 6 7.98 0.219998121261597 0 1 1 0 0.02144116 0.02128157 0.02119661 0.02153864 0.0212512 1000 0.02144116 0.02128157 0.02119661 0.02153864 0.0212512 1000 0.02070975 0.02071451 0.02065766 0.01984186 0.01881908 1000 0.02070975 0.02071451 0.02065766 0.01984186 0.01881908 1000
lala 4 1.2 1 second 17 1 74 6 6.780001 5.11999368667603 0 1 1 1 0.01826702 0.01968005 0.02019655 0.01965999 0.01966621 1000 0.01826702 0.01968005 0.02019655 0.01965999 0.01966621 1000 0.02151063 0.0221985 0.02214158 0.02223211 0.02244845 1000 0.02151063 0.0221985 0.02214158 0.02223211 0.02244845 1000
lala 5 1.2 0 first 7 1 75 4 2.92 1.01999735832214 1 1 -1 1 0.01298582 0.01287377 0.0133967 1000 1000 1000 0.01298582 0.01287377 0.0133967 1000 1000 1000 0.01728022 0.01679735 0.01710042 0.01744813 0.01781916 1000 0.01728022 0.01679735 0.01710042 0.01744813 0.01781916 1000
lala 5 1.2 1 first 17 1 76 6 5.580001 0.739997625350952 0 1 1 0 0.02068166 0.02091396 0.02093578 1000 1000 1000 0.02068166 0.02091396 0.02093578 1000 1000 1000 0.02013934 0.02002201 0.02025249 0.02056801 0.02155507 1000 0.02013934 0.02002201 0.02025249 0.02056801 0.02155507 1000
lala 5 1.2 0 second 8 1 77 5 3.3 0.799997568130493 1 0 -1 0 0.02103646 0.02100162 0.02114639 0.0203417 0.02120909 1000 0.02103646 0.02100162 0.02114639 0.0203417 0.02120909 1000 0.03323862 0.03460774 0.03522271 0.03168906 0.03056271 1000 0.03323862 0.03460774 0.03522271 0.03168906 0.03056271 1000
lala 8 1.2 0 first 10 1 78 6 5.16 0.699997663497925 1 0 -1 0 0.02223992 0.02446293 0.0251617 1000 1000 1000 0.02223992 0.02446293 0.0251617 1000 1000 1000 0.01953547 0.02086475 0.02168818 0.02138765 0.0201369 1000 0.01953547 0.02086475 0.02168818 0.02138765 0.0201369 1000
lala 4 1.2 1 first 1 1 79 4 4.12 1.55999684333801 -1 1 1 0 0.01897146 0.01906775 0.01972958 1000 1000 1000 0.01897146 0.01906775 0.01972958 1000 1000 1000 0.01885988 0.01933738 0.01899462 0.01879896 0.01884356 1000 0.01885988 0.01933738 0.01899462 0.01879896 0.01884356 1000
lala 4 1.2 1 first 6 1 80 4 3.84 0.0999982357025146 1 0 1 1 0.01631388 0.01512998 0.01551617 1000 1000 1000 0.01631388 0.01512998 0.01551617 1000 1000 1000 0.0243731 0.02561459 0.02572076 0.02403908 0.02328492 1000 0.0243731 0.02561459 0.02572076 0.02403908 0.02328492 1000
lala 1 1.2 0 first 12 1 81 4 2.64 0.259998083114624 0 0 -1 1 0.0166732 0.005469585 0.002782965 1000 1000 1000 0.0166732 0.005469585 0.002782965 1000 1000 1000 0.02543357 0.0256378 0.02532155 0.02492103 0.02489777 1000 0.02543357 0.0256378 0.02532155 0.02492103 0.02489777 1000
lala 4 1.2 0 second 5 1 82 6 4.380001 0.939997434616089 -1 1 -1 0 -0.01886525 -0.02934858 -0.03442621 -0.03422254 -0.03211955 1000 -0.01886525 -0.02934858 -0.03442621 -0.03422254 -0.03211955 1000 -0.01928041 -0.01899921 -0.01874296 -0.01802928 -0.01709894 1000 -0.01928041 -0.01899921 -0.01874296 -0.01802928 -0.01709894 1000
lala 5 1.2 0 first 1 1 83 4 2.92 0.319998025894165 -1 1 -1 1 -0.01201673 -0.01079109 -0.009635528 1000 1000 1000 -0.01201673 -0.01079109 -0.009635528 1000 1000 1000 -0.008497864 -0.008250075 -0.006966442 -0.006635766 -0.007128577 1000 -0.008497864 -0.008250075 -0.006966442 -0.006635766 -0.007128577 1000
lala 7 1.2 1 first 13 1 84 4 2.92 0.0999982357025146 0 1 1 1 -0.005955818 -0.005743856 -0.006791973 1000 1000 1000 -0.005955818 -0.005743856 -0.006791973 1000 1000 1000 -0.003247116 -0.002482382 -0.001864932 -0.002029996 -0.003063158 1000 -0.003247116 -0.002482382 -0.001864932 -0.002029996 -0.003063158 1000
lala 6 1.2 0 second 8 1 85 5 4.5 1.63999700546265 1 0 -1 0 0.000444397 0.0005613352 0.0004177088 -0.0002727688 -0.0005524764 1000 0.000444397 0.0005613352 0.0004177088 -0.0002727688 -0.0005524764 1000 0.0005112943 0.001535072 0.002143027 0.002718104 0.003271859 1000 0.0005112943 0.001535072 0.002143027 0.002718104 0.003271859 1000
lala 7 1.2 0 second 15 1 86 5 1.85 0.759997606277466 0 1 -1 1 0.003728298 0.003776314 0.003617463 0.004122376 0.004247817 1000 0.003728298 0.003776314 0.003617463 0.004122376 0.004247817 1000 0.003912472 0.00400675 0.004418969 0.00413529 0.004692558 1000 0.003912472 0.00400675 0.004418969 0.00413529 0.004692558 1000
lala 8 1.2 0 second 15 1 87 5 3.05 0.579997777938843 0 1 -1 0 0.004854218 0.004983471 0.005519656 0.005907459 0.005974276 1000 0.004854218 0.004983471 0.005519656 0.005907459 0.005974276 1000 0.00571716 0.005987376 0.005855434 0.006161329 0.006548941 1000 0.00571716 0.005987376 0.005855434 0.006161329 0.006548941 1000
lala 6 1.2 1 second 14 1 88 5 4.5 0.419997930526733 0 0 1 0 0.006438533 0.006130838 0.006060516 0.006284805 0.007142875 1000 0.006438533 0.006130838 0.006060516 0.006284805 0.007142875 1000 0.007509266 0.007152155 0.006769921 0.006450973 0.006995353 1000 0.007509266 0.007152155 0.006769921 0.006450973 0.006995353 1000
lala 4 1.2 0 second 4 1 89 6 5.16 0.379997968673706 -1 0 -1 1 0.007377642 0.008303708 0.008566261 0.008354898 0.008014168 1000 0.007377642 0.008303708 0.008566261 0.008354898 0.008014168 1000 0.006744209 0.007128827 0.008298146 0.008693154 0.008455961 1000 0.006744209 0.007128827 0.008298146 0.008693154 0.008455961 1000
lala 9 1.2 1 second 0 1 90 4 5.04 0.819997549057007 -1 0 1 1 0.008610572 0.008488471 0.008043227 0.007780958 0.007751403 1000 0.008610572 0.008488471 0.008043227 0.007780958 0.007751403 1000 0.008903224 0.009474377 0.009372117 0.00919282 0.008663226 1000 0.008903224 0.009474377 0.009372117 0.00919282 0.008663226 1000
lala 10 0.6 0 second 0 1 91 4 4.44 0.759997606277466 -1 0 -1 1 0.009601471 0.01014429 0.01030229 0.01051379 0.01025583 1000 0.009601471 0.01014429 0.01030229 0.01051379 0.01025583 1000 0.01080153 0.01071914 0.01137547 0.01195922 0.01241289 1000 0.01080153 0.01071914 0.01137547 0.01195922 0.01241289 1000
lala 11 0.3 1 first 0 1 92 4 4.74 1.37999701499939 -1 0 1 0 0.01199803 0.01228022 0.01198283 1000 1000 1000 0.01199803 0.01228022 0.01198283 1000 1000 1000 0.009378089 0.00595771 0.004050271 0.003280184 0.003710196 1000 0.009378089 0.00595771 0.004050271 0.003280184 0.003710196 1000
lala 6 1.2 0 first 17 1 93 6 4.380001 0.719997644424438 0 1 -1 0 0.007366599 0.0101706 0.01252068 1000 1000 1000 0.007366599 0.0101706 0.01252068 1000 1000 1000 0.0155006 0.01837203 0.02034864 0.02229476 0.02297516 1000 0.0155006 0.01837203 0.02034864 0.02229476 0.02297516 1000
lala 5 1.2 1 first 5 1 94 6 5.580001 0.139998197555542 -1 1 1 1 0.02218666 0.02216833 0.02277563 1000 1000 1000 0.02218666 0.02216833 0.02277563 1000 1000 1000 0.0400129 0.03798857 0.03312795 0.02544309 0.02146895 1000 0.0400129 0.03798857 0.03312795 0.02544309 0.02146895 1000
lala 5 1.2 0 first 16 1 95 6 1.98 0.359997987747192 0 0 -1 1 0.02333857 0.02400317 0.02558955 1000 1000 1000 0.02333857 0.02400317 0.02558955 1000 1000 1000 0.02136965 0.02058806 0.0214762 0.02353332 0.02451039 1000 0.02136965 0.02058806 0.0214762 0.02353332 0.02451039 1000
lala 5 1.2 1 first 9 1 96 5 4.25 1.5399968624115 1 1 1 1 0.02344497 0.02356788 0.02416616 1000 1000 1000 0.02344497 0.02356788 0.02416616 1000 1000 1000 0.0214379 0.01882769 0.01730784 0.0176139 0.0188872 1000 0.0214379 0.01882769 0.01730784 0.0176139 0.0188872 1000
lala 6 1.2 1 first 9 1 97 5 3.05 1.13999724388123 1 1 1 1 0.02052844 0.0204283 0.02088158 1000 1000 1000 0.02052844 0.0204283 0.02088158 1000 1000 1000 0.01801911 0.02051282 0.02196233 0.02073438 0.01783587 1000 0.01801911 0.02051282 0.02196233 0.02073438 0.01783587 1000
lala 2 1.2 0 first 12 1 98 4 3.84 0.779997587203979 0 0 -1 1 0.02236955 0.02220071 0.02149575 1000 1000 1000 0.02236955 0.02220071 0.02149575 1000 1000 1000 0.0176806 0.0160511 0.01704744 0.01899124 0.02032124 1000 0.0176806 0.0160511 0.01704744 0.01899124 0.02032124 1000
lala 4 1.2 1 second 3 1 99 5 5.45 0.939997434616089 -1 1 1 1 0.03317166 0.03512909 0.0366731 0.03624739 0.0357196 1000 0.03317166 0.03512909 0.0366731 0.03624739 0.0357196 1000 0.02268617 0.02045675 0.02236295 0.02596627 0.02896564 1000 0.02268617 0.02045675 0.02236295 0.02596627 0.02896564 1000
lala 5 1.2 1 first 4 1 100 6 6.36 0.859997510910034 -1 0 1 0 -0.0009474811 -0.001818713 -0.004631402 -0.009083087 -0.01397637 -0.02111037 -0.0009474811 -0.001818713 -0.004631402 -0.009083087 -0.01397637 -0.02111037 -0.004823259 -0.00169959 -7.51811E-05 0.0004338934 -0.0003997074 1000 -0.004823259 -0.00169959 -7.51811E-05 0.0004338934 -0.0003997074 1000
lala 5 1.2 0 second 2 1 101 5 3.3 2.83999586105347 -1 0 -1 1 0.004538463 0.005164581 0.006135384 0.007040864 0.00697688 1000 0.004538463 0.005164581 0.006135384 0.007040864 0.00697688 1000 0.006982689 0.006811508 0.006556526 0.006759727 0.007463022 1000 0.006982689 0.006811508 0.006556526 0.006759727 0.007463022 1000
lala 8 1.2 0 second 13 1 102 4 1.72 0.959997415542603 0 1 -1 1 0.0108939 0.01324174 0.01334356 0.01113601 0.007391902 1000 0.0108939 0.01324174 0.01334356 0.01113601 0.007391902 1000 0.02338559 0.02520707 0.02181867 0.01541422 0.009969245 1000 0.02338559 0.02520707 0.02181867 0.01541422 0.009969245 1000
lala 6 1.2 0 first 16 1 103 6 3.18 1.47999691963196 0 0 -1 0 0.0241807 0.02345514 0.02249382 1000 1000 1000 0.0241807 0.02345514 0.02249382 1000 1000 1000 0.02049452 0.02043902 0.02027838 0.02075103 0.02113239 1000 0.02049452 0.02043902 0.02027838 0.02075103 0.02113239 1000
lala 6 1.2 1 first 7 1 104 4 4.12 0.659997701644897 1 1 1 0 0.0235807 0.02338458 0.02332276 1000 1000 1000 0.0235807 0.02338458 0.02332276 1000 1000 1000 0.01408159 0.01354526 0.01371737 0.01423019 0.01509784 1000 0.01408159 0.01354526 0.01371737 0.01423019 0.01509784 1000
lala 5 1.2 0 second 6 1 105 4 2.64 0.479997873306274 1 0 -1 0 0.01305508 0.01272469 0.01181009 0.01046304 0.01001643 1000 0.01305508 0.01272469 0.01181009 0.01046304 0.01001643 1000 0.00657156 0.007873207 0.008805881 0.009107194 0.008921676 1000 0.00657156 0.007873207 0.008805881 0.009107194 0.008921676 1000
lala 7 1.2 1 second 7 1 106 4 2.92 0.719997644424438 1 1 1 0 0.01386241 0.01572568 0.01609132 0.01450682 0.0127161 1000 0.01386241 0.01572568 0.01609132 0.01450682 0.0127161 1000 0.01153894 0.01154436 0.01236611 0.01255556 0.01228698 1000 0.01153894 0.01154436 0.01236611 0.01255556 0.01228698 1000
lala 7 1.2 0 second 9 1 107 5 1.85 0.839997529983521 1 1 -1 0 0.01522605 0.01494579 0.0146374 0.01529285 0.01516252 1000 0.01522605 0.01494579 0.0146374 0.01529285 0.01516252 1000 0.01109403 0.01390393 0.01588892 0.01522108 0.0137267 1000 0.01109403 0.01390393 0.01588892 0.01522108 0.0137267 1000
lala 7 1.2 1 second 14 1 108 5 3.3 1.23999714851379 0 0 1 1 0.01756246 0.01786896 0.01870029 0.01948458 0.01938774 1000 0.01756246 0.01786896 0.01870029 0.01948458 0.01938774 1000 0.01789171 0.01788785 0.01815942 0.01909255 0.01905699 1000 0.01789171 0.01788785 0.01815942 0.01909255 0.01905699 1000
lala 7 1.2 1 first 17 1 109 6 5.580001 0.0399982929229736 0 1 1 0 0.02124778 0.0221701 0.02265292 1000 1000 1000 0.02124778 0.0221701 0.02265292 1000 1000 1000 0.02074359 0.02152796 0.02174699 0.02197501 0.0222961 1000 0.02074359 0.02152796 0.02174699 0.02197501 0.0222961 1000
lala 6 1.2 0 first 1 1 110 4 4.12 0.879997491836548 -1 1 -1 0 0.02375798 0.02418789 0.02438791 1000 1000 1000 0.02375798 0.02418789 0.02438791 1000 1000 1000 0.02478299 0.02424869 0.02480063 0.02581028 0.0265066 1000 0.02478299 0.02424869 0.02480063 0.02581028 0.0265066 1000
lala 8 1.2 0 second 9 1 111 5 3.05 1.43999695777893 1 1 -1 1 -0.01920235 -0.01807247 -0.01575183 -0.01374749 -0.01337835 1000 -0.01920235 -0.01807247 -0.01575183 -0.01374749 -0.01337835 1000 -0.01313212 -0.01313274 -0.01363231 -0.01359586 -0.01308137 1000 -0.01313212 -0.01313274 -0.01363231 -0.01359586 -0.01308137 1000
lala 8 1.2 1 first 14 1 112 5 2.1 0.01999831199646 0 0 1 1 -0.009300946 -0.009630618 -0.01035422 1000 1000 1000 -0.009300946 -0.009630618 -0.01035422 1000 1000 1000 0.001887091 0.002962593 0.004106469 0.004905743 0.005185905 1000 0.001887091 0.002962593 0.004106469 0.004905743 0.005185905 1000
lala 7 1.2 1 first 1 1 113 4 5.32 0.539997816085815 -1 1 1 0 0.006139738 0.007310275 0.008388322 1000 1000 1000 0.006139738 0.007310275 0.008388322 1000 1000 1000 0.009339919 0.008740023 0.009610546 0.01089346 0.01144465 1000 0.009339919 0.008740023 0.009610546 0.01089346 0.01144465 1000
lala 9 1.2 0 second 14 1 114 5 1.65 1.01999735832214 0 0 -1 1 0.01306841 0.01393972 0.01463793 0.01470884 0.01469041 1000 0.01306841 0.01393972 0.01463793 0.01470884 0.01469041 1000 0.0147462 0.01503056 0.01545651 0.01590997 0.01578497 1000 0.0147462 0.01503056 0.01545651 0.01590997 0.01578497 1000
lala 8 1.2 1 second 17 1 115 6 4.380001 0.499997854232788 0 1 1 0 0.01842847 0.01843705 0.01800906 0.0177554 0.01783425 1000 0.01842847 0.01843705 0.01800906 0.0177554 0.01783425 1000 0.01740668 0.01740241 0.01811649 0.01823032 0.0178434 1000 0.01740668 0.01740241 0.01811649 0.01823032 0.0178434 1000
lala 3 1.2 1 second 12 1 116 4 5.04 0.459997892379761 0 0 1 1 0.0197218 0.01939308 0.01973532 0.01987891 0.02051203 1000 0.0197218 0.01939308 0.01973532 0.01987891 0.02051203 1000 0.02154427 0.02085678 0.02036475 0.02048699 0.02065711 1000 0.02154427 0.02085678 0.02036475 0.02048699 0.02065711 1000
lala 10 0.6 0 second 14 1 117 5 2.25 0.859997510910034 0 0 -1 1 0.02007543 0.02007774 0.02066324 0.02103776 0.02058602 1000 0.02007543 0.02007774 0.02066324 0.02103776 0.02058602 1000 0.02068056 0.02092859 0.02057615 0.0203561 0.02098547 1000 0.02068056 0.02092859 0.02057615 0.0203561 0.02098547 1000
lala 7 1.2 1 first 8 1 118 5 5.7 0.479997873306274 1 0 1 1 0.02154451 0.02220936 0.02232646 1000 1000 1000 0.02154451 0.02220936 0.02232646 1000 1000 1000 0.02387962 0.02334933 0.02312042 0.02342057 0.02328169 1000 0.02387962 0.02334933 0.02312042 0.02342057 0.02328169 1000
lala 6 1.2 1 first 2 1 119 5 4.5 0.779997587203979 -1 0 1 1 0.003825761 -0.005503539 -0.007542727 1000 1000 1000 0.003825761 -0.005503539 -0.007542727 1000 1000 1000 -0.003143158 -0.00496983 -0.005039968 -0.00404271 -0.002530583 1000 -0.003143158 -0.00496983 -0.005039968 -0.00404271 -0.002530583 1000
lala 4 1.2 1 first 12 1 120 4 3.84 1.03999733924866 0 0 1 0 0.002404206 0.00243051 0.002798396 1000 1000 1000 0.002404206 0.00243051 0.002798396 1000 1000 1000 0.004643318 0.00490575 0.005986032 0.006524931 0.005979795 1000 0.004643318 0.00490575 0.005986032 0.006524931 0.005979795 1000
lala 8 1.2 0 second 7 1 121 4 1.72 0.639997720718384 1 1 -1 1 0.009183107 0.009064536 0.008683451 0.007117281 0.004886001 1000 0.009183107 0.009064536 0.008683451 0.007117281 0.004886001 1000 0.006701542 0.006705249 0.008025899 0.005758212 0.01034468 1000 0.006701542 0.006705249 0.008025899 0.005758212 0.01034468 1000
lala 6 1.2 1 second 4 1 122 6 5.16 0.759997606277466 -1 0 1 1 0.01532334 0.01534577 0.01521642 0.01516351 0.01501044 1000 0.01532334 0.01534577 0.01521642 0.01516351 0.01501044 1000 0.01366241 0.01418276 0.01516632 0.01507744 0.01455292 1000 0.01366241 0.01418276 0.01516632 0.01507744 0.01455292 1000
lala 7 1.2 1 second 16 1 123 6 4.38 0.779997587203979 0 0 1 0 0.01673049 0.01708873 0.01648497 0.01608737 0.01611705 1000 0.01673049 0.01708873 0.01648497 0.01608737 0.01611705 1000 0.01659486 0.01666506 0.01678771 0.01717574 0.01761161 1000 0.01659486 0.01666506 0.01678771 0.01717574 0.01761161 1000
lala 9 1.2 1 first 9 1 124 5 4.25 0.359997987747192 1 1 1 0 0.01887916 0.01853709 0.01868305 1000 1000 1000 0.01887916 0.01853709 0.01868305 1000 1000 1000 0.01963917 0.01992837 0.0204261 0.02050582 0.02124103 1000 0.01963917 0.01992837 0.0204261 0.02050582 0.02124103 1000
lala 7 1.2 1 first 2 1 125 5 3.3 0.839997529983521 -1 0 1 0 0.02255463 0.02242928 0.02233919 1000 1000 1000 0.02255463 0.02242928 0.02233919 1000 1000 1000 0.02205761 0.02260614 0.0231211 0.02366032 0.02384422 1000 0.02205761 0.02260614 0.0231211 0.02366032 0.02384422 1000
lala 9 1.2 1 first 10 1 126 6 6.36 0.419997930526733 1 0 1 1 0.02492015 0.0250402 0.02517488 1000 1000 1000 0.02492015 0.0250402 0.02517488 1000 1000 1000 0.02504348 0.02542765 0.02566064 0.02525353 0.02486746 1000 0.02504348 0.02542765 0.02566064 0.02525353 0.02486746 1000
lala 5 1.2 1 first 3 1 127 5 4.25 0.659997701644897 -1 1 1 1 0.01305219 0.004809685 0.003550544 1000 1000 1000 0.01305219 0.004809685 0.003550544 1000 1000 1000 0.01474828 0.01491033 0.01477657 0.01503292 0.01601799 1000 0.01474828 0.01491033 0.01477657 0.01503292 0.01601799 1000
lala 9 1.2 1 second 17 1 128 6 3.180001 2.75999593734741 0 1 1 0 0.01835464 0.01961467 0.02211414 0.02267532 0.02206112 1000 0.01835464 0.01961467 0.02211414 0.02267532 0.02206112 1000 0.02217851 0.02335514 0.02339477 0.02357029 0.02479794 1000 0.02217851 0.02335514 0.02339477 0.02357029 0.02479794 1000
lala 10 2.4 0 first 17 1 129 6 1.98 0.0399982929229736 0 1 -1 0 0.01025904 0.01010451 0.01011824 1000 1000 1000 0.01025904 0.01010451 0.01011824 1000 1000 1000 0.01201287 0.0123134 0.01238671 0.01398127 0.01466951 1000 0.01201287 0.0123134 0.01238671 0.01398127 0.01466951 1000
lala 10 0.6 1 second 9 1 130 5 3.65 0.99999737739563 1 1 1 1 0.01586514 0.0161171 0.01556738 0.01532672 0.01560334 1000 0.01586514 0.0161171 0.01556738 0.01532672 0.01560334 1000 0.01646187 0.01621742 0.01700261 0.01768943 0.01711449 1000 0.01646187 0.01621742 0.01700261 0.01768943 0.01711449 1000
lala 8 1.2 0 first 16 1 131 6 3.18 0.979997396469116 0 0 -1 1 0.0192534 0.01872537 0.01984325 1000 1000 1000 0.0192534 0.01872537 0.01984325 1000 1000 1000 0.01958557 0.01762739 0.01441927 0.01344272 0.01318212 1000 0.01958557 0.01762739 0.01441927 0.01344272 0.01318212 1000
lala 9 1.2 1 first 16 1 132 6 4.38 0.279998064041138 0 0 1 1 0.01994844 0.0211145 0.02016195 1000 1000 1000 0.01994844 0.0211145 0.02016195 1000 1000 1000 -0.001158325 0.001113252 0.001882837 0.003175267 0.006320422 1000 -0.001158325 0.001113252 0.001882837 0.003175267 0.006320422 1000
lala 9 1.2 0 second 7 1 133 4 2.92 0.079998254776001 1 1 -1 0 0.02441163 0.02438911 0.02544811 0.02604537 0.02617638 1000 0.02441163 0.02438911 0.02544811 0.02604537 0.02617638 1000 0.02781516 0.02748784 0.02811312 0.02850217 0.02882494 1000 0.02781516 0.02748784 0.02811312 0.02850217 0.02882494 1000
lala 8 1.2 0 second 2 1 134 5 2.1 0.519997835159302 -1 0 -1 1 -0.02153703 -0.02164497 -0.0200312 -0.01880956 -0.01837515 1000 -0.02153703 -0.02164497 -0.0200312 -0.01880956 -0.01837515 1000 -0.01820472 -0.01795515 -0.01781565 -0.01698332 -0.01592516 1000 -0.01820472 -0.01795515 -0.01781565 -0.01698332 -0.01592516 1000
lala 6 1.2 1 second 6 1 135 4 3.84 0.879997491836548 1 0 1 1 -0.009460757 -0.00842684 -0.008357754 -0.008915891 -0.009946092 1000 -0.009460757 -0.00842684 -0.008357754 -0.008915891 -0.009946092 1000 -0.008314002 -0.008340444 -0.008388048 -0.007206148 -0.005465645 1000 -0.008314002 -0.008340444 -0.008388048 -0.007206148 -0.005465645 1000
lala 6 1.2 1 second 3 1 136 5 3.05 1.67999696731567 -1 1 1 0 0.0009049226 -0.000411968 -0.003005006 -0.003973258 -0.002363562 1000 0.0009049226 -0.000411968 -0.003005006 -0.003973258 -0.002363562 1000 -0.001146995 -0.0005620134 -0.0001966675 -0.0005660094 -0.0006366657 1000 -0.001146995 -0.0005620134 -0.0001966675 -0.0005660094 -0.0006366657 1000
lala 5 1.2 0 first 12 1 137 4 2.64 0.139998197555542 0 0 -1 1 0.002623899 0.002933831 0.003121233 1000 1000 1000 0.002623899 0.002933831 0.003121233 1000 1000 1000 0.004406713 0.004531506 0.004853406 0.004834748 0.005148922 1000 0.004406713 0.004531506 0.004853406 0.004834748 0.005148922 1000
lala 4 1.2 1 first 11 1 138 6 4.380001 8.18005228042603 1 1 1 1 0.006412101 0.006668977 0.007230574 1000 1000 1000 0.006412101 0.006668977 0.007230574 1000 1000 1000 0.01343932 0.01386204 0.0147902 0.01523186 0.01489748 1000 0.01343932 0.01386204 0.0147902 0.01523186 0.01489748 1000
lala 6 1.2 1 first 12 1 139 4 3.84 0.319998025894165 0 0 1 1 0.008269014 0.008921157 0.0088717 1000 1000 1000 0.008269014 0.008921157 0.0088717 1000 1000 1000 0.008807476 0.008762816 0.009336913 0.009694185 0.009462952 1000 0.008807476 0.008762816 0.009336913 0.009694185 0.009462952 1000
lala 5 1.2 0 second 11 1 140 6 3.180001 1.99999666213989 1 1 -1 1 0.01024125 0.0107632 0.01130756 0.01090564 0.01079861 1000 0.01024125 0.0107632 0.01130756 0.01090564 0.01079861 1000 0.01085202 0.0115891 0.0117425 0.0128191 0.01333043 1000 0.01085202 0.0115891 0.0117425 0.0128191 0.01333043 1000
lala 12 0.15 1 second 0 1 141 4 4.59 0.659997701644897 -1 0 1 0 0.01680961 0.01680978 0.01674944 0.01634836 0.01681519 1000 0.01680961 0.01680978 0.01674944 0.01634836 0.01681519 1000 0.01618745 0.0163919 0.01657902 0.01633705 0.01644481 1000 0.01618745 0.0163919 0.01657902 0.01633705 0.01644481 1000
lala 9 1.2 0 second 15 1 142 5 4.25 0.879997491836548 0 1 -1 0 0.01990374 0.02026249 0.02069342 0.01997768 0.01940521 1000 0.01990374 0.02026249 0.02069342 0.01997768 0.01940521 1000 0.01846872 0.01858271 0.01835275 0.01873771 0.01924018 1000 0.01846872 0.01858271 0.01835275 0.01873771 0.01924018 1000
lala 11 0.6 1 second 9 1 143 5 3.05 0.939997434616089 1 1 1 0 0.02051767 0.02040115 0.02041185 0.0202225 0.02110725 1000 0.02051767 0.02040115 0.02041185 0.0202225 0.02110725 1000 0.02327517 0.02285148 0.02196796 0.02157221 0.02190719 1000 0.02327517 0.02285148 0.02196796 0.02157221 0.02190719 1000
lala 9 1.2 1 second 13 1 144 4 2.92 1.3999969959259 0 1 1 1 0.02464559 0.02425632 0.02500399 0.02641926 0.0263222 1000 0.02464559 0.02425632 0.02500399 0.02641926 0.0263222 1000 0.02501334 0.02518842 0.02409719 0.02658596 0.02964903 1000 0.02501334 0.02518842 0.02409719 0.02658596 0.02964903 1000
lala 10 1.2 0 second 7 1 145 4 4.12 1.77999687194824 1 1 -1 0 0.02948356 0.03043278 0.03063264 0.03021221 0.02936144 1000 0.02948356 0.03043278 0.03063264 0.03021221 0.02936144 1000 0.03102082 0.03054787 0.03000588 0.02932927 0.02916328 1000 0.03102082 0.03054787 0.03000588 0.02932927 0.02916328 1000
lala 7 1.2 0 first 3 1 146 5 1.85 1.23999714851379 -1 1 -1 1 -0.001036471 -0.01555818 -0.022112 1000 1000 1000 -0.001036471 -0.01555818 -0.022112 1000 1000 1000 -0.01719935 -0.0153486 -0.01263421 -0.01037548 -0.009343751 1000 -0.01719935 -0.0153486 -0.01263421 -0.01037548 -0.009343751 1000
lala 7 1.2 1 first 6 1 147 4 2.64 0.859997510910034 1 0 1 0 -0.003756083 -0.003166583 -0.002847279 1000 1000 1000 -0.003756083 -0.003166583 -0.002847279 1000 1000 1000 0.00189905 0.0007940874 -0.0006387587 -0.0008176614 -5.48914E-05 1000 0.00189905 0.0007940874 -0.0006387587 -0.0008176614 -5.48914E-05 1000
lala 8 1.2 1 second 8 1 148 5 4.5 0.259998083114624 1 0 1 1 0.00340181 0.004034401 0.004546163 0.004412419 0.003878311 1000 0.00340181 0.004034401 0.004546163 0.004412419 0.003878311 1000 0.004004748 0.003966954 0.00433996 0.004575525 0.005317033 1000 0.004004748 0.003966954 0.00433996 0.004575525 0.005317033 1000
lala 7 1.2 0 first 12 1 149 4 2.64 0.299998044967651 0 0 -1 0 0.007343682 0.008460017 0.009480233 1000 1000 1000 0.007343682 0.008460017 0.009480233 1000 1000 1000 0.01106072 0.01138358 0.01051531 0.01051031 0.01152501 1000 0.01106072 0.01138358 0.01051531 0.01051031 0.01152501 1000
lala 10 2.4 1 first 15 1 150 5 6.65 0.0999982357025146 0 1 1 0 -0.008273054 -0.004588162 -0.003873275 -0.006460168 0.0005788414 0.01293064 -0.008273054 -0.004588162 -0.003873275 -0.006460168 0.0005788414 0.01293064 0.0119614 0.01272811 0.0132846 0.01375101 0.01499151 1000 0.0119614 0.01272811 0.0132846 0.01375101 0.01499151 1000
lala 10 0.6 0 second 16 1 151 6 3.78 0.339998006820679 0 0 -1 0 0.02109163 0.02150013 0.02221046 0.02244946 0.0228535 1000 0.02109163 0.02150013 0.02221046 0.02244946 0.0228535 1000 0.02387376 0.02493507 0.02582978 0.02526406 0.02507588 1000 0.02387376 0.02493507 0.02582978 0.02526406 0.02507588 1000
lala 7 1.2 0 first 4 1 152 6 3.96 0.379997968673706 -1 0 -1 0 0.01368109 0.006073851 -0.001515843 1000 1000 1000 0.01368109 0.006073851 -0.001515843 1000 1000 1000 0.001722421 0.001735752 0.001439247 0.001766618 0.002329406 1000 0.001722421 0.001735752 0.001439247 0.001766618 0.002329406 1000
lala 8 1.2 0 second 6 1 153 4 1.44 0.339998006820679 1 0 -1 0 0.006229996 0.006019989 0.006044965 0.00625371 0.006449158 1000 0.006229996 0.006019989 0.006044965 0.00625371 0.006449158 1000 0.007285468 0.007238357 0.007354783 0.007687298 0.007498601 1000 0.007285468 0.007238357 0.007354783 0.007687298 0.007498601 1000
lala 6 1.2 1 second 11 1 154 6 4.380001 0.0599982738494873 1 1 1 1 0.008869058 0.008562333 0.007991245 0.008056491 0.007997668 1000 0.008869058 0.008562333 0.007991245 0.008056491 0.007997668 1000 0.007162973 0.006872781 0.005879063 0.005058939 0.005100491 1000 0.007162973 0.006872781 0.005879063 0.005058939 0.005100491 1000
lala 8 1.2 1 first 12 1 155 4 3.84 0.139998197555542 0 0 1 1 0.006848113 0.008312684 0.008823024 1000 1000 1000 0.006848113 0.008312684 0.008823024 1000 1000 1000 0.009411376 0.009847118 0.009400361 0.009246918 0.009528197 1000 0.009411376 0.009847118 0.009400361 0.009246918 0.009528197 1000
lala 8 1.2 0 first 4 1 156 6 5.16 0.559997797012329 -1 0 -1 0 0.01070362 0.01093779 0.01154837 1000 1000 1000 0.01070362 0.01093779 0.01154837 1000 1000 1000 0.01316318 0.01279912 0.01258718 0.01276924 0.01272972 1000 0.01316318 0.01279912 0.01258718 0.01276924 0.01272972 1000
lala 13 0.15 1 second 0 1 157 4 4.44 0.199998140335083 -1 0 1 1 0.01330553 0.01359534 0.01419804 0.01426199 0.01380446 1000 0.01330553 0.01359534 0.01419804 0.01426199 0.01380446 1000 0.01095528 0.01004047 0.009362594 0.009238357 0.009756506 1000 0.01095528 0.01004047 0.009362594 0.009238357 0.009756506 1000
lala 9 1.2 1 first 8 1 158 5 3.3 0.599997758865356 1 0 1 0 0.01066251 0.01087396 0.01078528 1000 1000 1000 0.01066251 0.01087396 0.01078528 1000 1000 1000 0.01496627 0.01661102 0.01703038 0.01646135 0.01504581 1000 0.01496627 0.01661102 0.01703038 0.01646135 0.01504581 1000
lala 6 1.2 0 first 5 1 159 6 4.380001 0.639997720718384 -1 1 -1 1 0.01701615 0.01780172 0.01736499 1000 1000 1000 0.01701615 0.01780172 0.01736499 1000 1000 1000 0.01760241 0.01723633 0.01725766 0.01788424 0.01838466 1000 0.01760241 0.01723633 0.01725766 0.01788424 0.01838466 1000
lala 11 1.2 1 first 15 1 160 5 5.45 0.01999831199646 0 1 1 1 0.01972969 0.01932202 0.01922058 1000 1000 1000 0.01972969 0.01932202 0.01922058 1000 1000 1000 0.01960173 0.01990697 0.02049575 0.02069574 0.02024646 1000 0.01960173 0.01990697 0.02049575 0.02069574 0.02024646 1000
lala 11 0.6 0 first 14 1 161 5 2.85 0.61999773979187 0 0 -1 1 0.02109932 0.02095437 0.0205367 1000 1000 1000 0.02109932 0.02095437 0.0205367 1000 1000 1000 0.02124939 0.02119139 0.02119457 0.02162619 0.02165031 1000 0.02124939 0.02119139 0.02119457 0.02162619 0.02165031 1000
lala 9 1.2 1 first 2 1 162 5 3.3 0.299998044967651 -1 0 1 0 0.02088802 0.02104595 0.02185574 1000 1000 1000 0.02088802 0.02104595 0.02185574 1000 1000 1000 0.03544527 0.03724797 0.03906555 0.03418645 0.02202755 1000 0.03544527 0.03724797 0.03906555 0.03418645 0.02202755 1000
lala 11 2.4 1 second 7 1 163 4 6.52 0.519997835159302 1 1 1 0 0.01393361 0.0138132 0.01550404 0.01599491 0.0155303 1000 0.01393361 0.0138132 0.01550404 0.01599491 0.0155303 1000 0.01891686 0.01966058 0.01996024 0.02023337 0.02049024 1000 0.01891686 0.01966058 0.01996024 0.02023337 0.02049024 1000
lala 9 1.2 0 first 12 1 164 4 2.64 0.23999810218811 0 0 -1 0 0.0232915 0.02388201 0.0237745 1000 1000 1000 0.0232915 0.02388201 0.0237745 1000 1000 1000 0.02579425 0.02626728 0.02692905 0.0270593 0.02696166 1000 0.02579425 0.02626728 0.02692905 0.0270593 0.02696166 1000
lala 12 0.6 1 first 14 1 165 5 3.45 0.359997987747192 0 0 1 1 0.01687795 0.008186338 0.001882245 1000 1000 1000 0.01687795 0.008186338 0.001882245 1000 1000 1000 -0.02099649 -0.01854514 -0.0163273 -0.01556465 -0.01580125 1000 -0.02099649 -0.01854514 -0.0163273 -0.01556465 -0.01580125 1000
lala 7 1.2 1 first 5 1 166 6 5.580001 0.779997587203979 -1 1 1 0 -0.007574679 -0.007448745 -0.007495592 1000 1000 1000 -0.007574679 -0.007448745 -0.007495592 1000 1000 1000 0.009207166 0.01064682 0.01196036 0.01258713 0.01248821 1000 0.009207166 0.01064682 0.01196036 0.01258713 0.01248821 1000
lala 13 0.3 0 second 14 1 167 5 3.15 0.779997587203979 0 0 -1 1 0.02140175 0.01917986 0.01751199 0.01752632 0.01949622 1000 0.02140175 0.01917986 0.01751199 0.01752632 0.01949622 1000 0.02465713 0.02445594 0.02445688 0.02431045 0.02472707 1000 0.02465713 0.02445594 0.02445688 0.02431045 0.02472707 1000
lala 9 1.2 0 second 6 1 168 4 2.64 0.39999794960022 1 0 -1 0 0.00653143 0.007803155 0.009537669 0.0105232 0.0100558 1000 0.00653143 0.007803155 0.009537669 0.0105232 0.0100558 1000 0.01173692 0.01214184 0.0125721 0.0128989 0.01346537 1000 0.01173692 0.01214184 0.0125721 0.0128989 0.01346537 1000
lala 11 0.3 1 second 16 1 169 6 4.08 0.339998006820679 0 0 1 0 0.01515917 0.01505659 0.01543837 0.01542692 0.01434753 1000 0.01515917 0.01505659 0.01543837 0.01542692 0.01434753 1000 0.01322444 0.01382329 0.01472208 0.01504071 0.01558256 1000 0.01322444 0.01382329 0.01472208 0.01504071 0.01558256 1000
lala 9 1.2 1 second 4 1 170 6 6.36 0.719997644424438 -1 0 1 1 0.01660436 0.01699965 0.01705017 0.01721216 0.01817369 1000 0.01660436 0.01699965 0.01705017 0.01721216 0.01817369 1000 0.01894473 0.02024429 0.02065859 0.02071402 0.02011426 1000 0.01894473 0.02024429 0.02065859 0.02071402 0.02011426 1000
lala 10 0.6 1 second 10 1 171 6 5.76 0.61999773979187 1 0 1 1 0.02303408 0.02359053 0.02316007 0.02297433 0.02285702 1000 0.02303408 0.02359053 0.02316007 0.02297433 0.02285702 1000 0.02438987 0.02419638 0.02447445 0.02496353 0.0243738 1000 0.02438987 0.02419638 0.02447445 0.02496353 0.0243738 1000
lala 12 0.6 0 second 9 1 172 5 2.45 0.879997491836548 1 1 -1 1 0.01175256 0.01159342 0.0136862 0.01449101 0.01387186 1000 0.01175256 0.01159342 0.0136862 0.01449101 0.01387186 1000 0.01470686 0.01488138 0.01491132 0.01516844 0.01591269 1000 0.01470686 0.01488138 0.01491132 0.01516844 0.01591269 1000
lala 12 1.2 1 second 7 1 173 4 5.32 0.01999831199646 1 1 1 0 0.02248857 0.02270261 0.02168821 0.02229255 0.02246561 1000 0.02248857 0.02270261 0.02168821 0.02229255 0.02246561 1000 0.02394228 0.02387401 0.02513939 0.0239407 0.02992693 1000 0.02394228 0.02387401 0.02513939 0.0239407 0.02992693 1000
lala 11 1.2 0 first 17 1 174 6 3.18 0.39999794960022 0 1 -1 0 0.01612709 0.0093203 0.003719219 1000 1000 1000 0.01612709 0.0093203 0.003719219 1000 1000 1000 0.009699159 0.00970342 0.009848415 0.010443 0.01095309 1000 0.009699159 0.00970342 0.009848415 0.010443 0.01095309 1000
lala 12 1.2 0 first 17 1 175 6 4.38 0.719997644424438 0 1 -1 1 0.0164893 0.01831686 0.02072343 1000 1000 1000 0.0164893 0.01831686 0.02072343 1000 1000 1000 0.02258028 0.02167131 0.02103641 0.0233665 0.02791391 1000 0.02258028 0.02167131 0.02103641 0.0233665 0.02791391 1000
lala 12 0.15 0 first 16 1 176 6 3.93 0.459997892379761 0 0 -1 1 0.02122952 0.01974128 0.01792204 1000 1000 1000 0.02122952 0.01974128 0.01792204 1000 1000 1000 0.01848494 0.01689873 0.01537972 0.01441844 0.01332643 1000 0.01848494 0.01689873 0.01537972 0.01441844 0.01332643 1000
lala 10 0.6 0 first 2 1 177 5 2.7 0.359997987747192 -1 0 -1 0 0.01414511 0.01258112 0.01145341 1000 1000 1000 0.01414511 0.01258112 0.01145341 1000 1000 1000 -0.004354476 -0.003204234 -0.00208842 -0.001597062 -0.001363809 1000 -0.004354476 -0.003204234 -0.00208842 -0.001597062 -0.001363809 1000
lala 10 0.6 1 first 13 1 178 4 2.32 0.719997644424438 0 1 1 0 0.000577374 0.0002813228 0.0006060314 1000 1000 1000 0.000577374 0.0002813228 0.0006060314 1000 1000 1000 0.002479364 0.001943182 0.001915993 0.002441212 0.00264707 1000 0.002479364 0.001943182 0.001915993 0.002441212 0.00264707 1000
lala 8 1.2 1 first 1 1 179 4 4.12 0.699997663497925 -1 1 1 0 0.004672312 0.004724946 0.005141499 1000 1000 1000 0.004672312 0.004724946 0.005141499 1000 1000 1000 0.00306734 0.003669134 0.004461201 0.005308253 0.004691057 1000 0.00306734 0.003669134 0.004461201 0.005308253 0.004691057 1000
lala 11 0.3 0 first 2 1 180 5 3 0.839997529983521 -1 0 -1 1 0.005876935 0.005935204 0.006080304 1000 1000 1000 0.005876935 0.005935204 0.006080304 1000 1000 1000 0.007388104 0.007259318 0.008000287 0.008278932 0.007969481 1000 0.007388104 0.007259318 0.008000287 0.008278932 0.007969481 1000
lala 11 0.6 0 first 13 1 181 4 1.72 0.339998006820679 0 1 -1 1 0.009834297 0.009526551 0.00977264 1000 1000 1000 0.009834297 0.009526551 0.00977264 1000 1000 1000 0.01088219 0.01027317 0.01036721 0.01094729 0.01147405 1000 0.01088219 0.01027317 0.01036721 0.01094729 0.01147405 1000
lala 13 0.3 1 second 9 1 182 5 2.75 0.39999794960022 1 1 1 1 0.01342586 0.01345664 0.01438285 0.01417068 0.01366077 1000 0.01342586 0.01345664 0.01438285 0.01417068 0.01366077 1000 0.01323967 0.0134006 0.01323955 0.0136575 0.01431883 1000 0.01323967 0.0134006 0.01323955 0.0136575 0.01431883 1000
lala 13 1.2 1 second 7 1 183 4 4.12 0.959997415542603 1 1 1 1 0.0146498 0.01474955 0.01427552 0.01373638 0.01392565 1000 0.0146498 0.01474955 0.01427552 0.01373638 0.01392565 1000 0.01638869 0.01762209 0.0199215 0.02110571 0.01987437 1000 0.01638869 0.01762209 0.0199215 0.02110571 0.01987437 1000
lala 13 1.2 1 first 17 1 184 6 5.58 0.159998178482056 0 1 1 0 0.02031451 0.02023854 0.0202126 1000 1000 1000 0.02031451 0.02023854 0.0202126 1000 1000 1000 0.02205317 0.02188252 0.02167401 0.02175749 0.02178464 1000 0.02205317 0.02188252 0.02167401 0.02175749 0.02178464 1000
lala 14 0.6 1 second 17 1 185 6 4.98 0.859997510910034 0 1 1 0 0.02459089 0.02582128 0.02598688 0.02526614 0.02425876 1000 0.02459089 0.02582128 0.02598688 0.02526614 0.02425876 1000 0.02538613 0.02548512 0.02619275 0.02676359 0.026748 1000 0.02538613 0.02548512 0.02619275 0.02676359 0.026748 1000
lala 12 0.3 0 first 13 1 186 4 2.02 5.9200005531311 0 1 -1 0 0.01276332 0.003585014 -0.002871059 1000 1000 1000 0.01276332 0.003585014 -0.002871059 1000 1000 1000 0.005510596 0.005607719 0.005813143 0.006067543 0.006794545 1000 0.005510596 0.005607719 0.005813143 0.006067543 0.006794545 1000
lala 14 1.2 1 first 7 1 187 4 2.92 1.55999684333801 1 1 1 1 0.005822671 0.006075409 0.0057095 1000 1000 1000 0.005822671 0.006075409 0.0057095 1000 1000 1000 0.002579181 0.002275988 0.002831842 0.00256239 0.0005614543 1000 0.002579181 0.002275988 0.002831842 0.00256239 0.0005614543 1000
lala 15 0.6 0 first 17 1 188 6 4.38 0.799997568130493 0 1 -1 1 0.003690874 0.003806828 0.004361627 1000 1000 1000 0.003690874 0.003806828 0.004361627 1000 1000 1000 0.00858007 0.008057386 0.008360446 0.009253735 0.0104111 1000 0.00858007 0.008057386 0.008360446 0.009253735 0.0104111 1000
lala 11 0.6 1 first 10 1 189 6 5.16 0.419997930526733 1 0 1 0 0.01230298 0.01179373 0.01180017 1000 1000 1000 0.01230298 0.01179373 0.01180017 1000 1000 1000 0.01186735 0.01176824 0.01210806 0.0130263 0.01289309 1000 0.01186735 0.01176824 0.01210806 0.0130263 0.01289309 1000
lala 12 1.2 1 second 15 1 190 5 4.25 0.639997720718384 0 1 1 1 0.01357124 0.01411388 0.01414719 0.01375419 0.01373633 1000 0.01357124 0.01411388 0.01414719 0.01375419 0.01373633 1000 0.01428414 0.0144533 0.01466346 0.015044 0.01559172 1000 0.01428414 0.0144533 0.01466346 0.015044 0.01559172 1000
lala 14 0.15 1 first 0 1 191 4 4.29 0.0399982929229736 -1 0 1 1 0.01640879 0.01665803 0.01668957 1000 1000 1000 0.01640879 0.01665803 0.01668957 1000 1000 1000 0.01362615 0.01415993 0.01504692 0.01575981 0.01637577 1000 0.01362615 0.01415993 0.01504692 0.01575981 0.01637577 1000
lala 10 0.6 1 second 4 1 192 6 5.76 0.659997701644897 -1 0 1 1 0.02012939 0.01987652 0.01920175 0.01939199 0.02012742 1000 0.02012939 0.01987652 0.01920175 0.01939199 0.02012742 1000 0.02112011 0.02157936 0.02133816 0.02101578 0.02078478 1000 0.02112011 0.02157936 0.02133816 0.02101578 0.02078478 1000
lala 16 0.3 1 second 17 1 193 6 4.68 0.499997854232788 0 1 1 0 0.02378812 0.02395262 0.02380573 0.02377856 0.02389135 1000 0.02378812 0.02395262 0.02380573 0.02377856 0.02389135 1000 0.02381418 0.02370271 0.02412112 0.02448955 0.0241824 1000 0.02381418 0.02370271 0.02412112 0.02448955 0.0241824 1000
lala 11 0.6 0 second 4 1 194 6 5.16 0.61999773979187 -1 0 -1 0 0.01931478 0.01443351 0.009220262 0.004411034 8.876783E-05 1000 0.01931478 0.01443351 0.009220262 0.004411034 8.876783E-05 1000 -0.02206486 -0.02369681 -0.02505952 -0.02588532 -0.02577439 1000 -0.02206486 -0.02369681 -0.02505952 -0.02588532 -0.02577439 1000
lala 9 1.2 0 second 1 1 195 4 2.92 0.519997835159302 -1 1 -1 0 -0.01583748 -0.01428028 -0.01366862 -0.01407248 -0.01467043 1000 -0.01583748 -0.01428028 -0.01366862 -0.01407248 -0.01467043 1000 -0.01438279 -0.01455257 -0.01473018 -0.01452731 -0.0134588 1000 -0.01438279 -0.01455257 -0.01473018 -0.01452731 -0.0134588 1000
lala 10 2.4 0 first 8 1 196 5 1.65 0.259998083114624 1 0 -1 1 -0.01376871 -0.01331528 -0.01240739 1000 1000 1000 -0.01376871 -0.01331528 -0.01240739 1000 1000 1000 0.004517058 0.005107649 0.005112784 0.004167455 0.005072571 1000 0.004517058 0.005107649 0.005112784 0.004167455 0.005072571 1000
lala 10 0.6 1 first 12 1 197 4 3.24 0.659997701644897 0 0 1 0 0.005938109 0.006053723 0.006785784 1000 1000 1000 0.005938109 0.006053723 0.006785784 1000 1000 1000 0.008838176 0.008440055 0.008420461 0.008557338 0.008602917 1000 0.008838176 0.008440055 0.008420461 0.008557338 0.008602917 1000
lala 13 0.075 1 second 16 1 198 6 4.005 1.11999726295471 0 0 1 1 0.009878605 0.01041942 0.01105028 0.0106088 0.009779209 1000 0.009878605 0.01041942 0.01105028 0.0106088 0.009779209 1000 0.01077301 0.01096851 0.01091013 0.01159305 0.01222855 1000 0.01077301 0.01096851 0.01091013 0.01159305 0.01222855 1000
lala 8 1.2 0 first 3 1 199 5 3.05 0.61999773979187 -1 1 -1 1 0.01337525 0.01334212 0.01321714 1000 1000 1000 0.01337525 0.01334212 0.01321714 1000 1000 1000 0.008572464 0.00885529 0.009813057 0.009973186 0.01001833 1000 0.008572464 0.00885529 0.009813057 0.009973186 0.01001833 1000
lala 15 0.3 1 first 0 1 200 4 3.99 0.759997606277466 -1 0 1 1 -0.005613047 0.02001091 0.03114225 0.03194014 0.02960751 0.02225194 -0.005613047 0.02001091 0.03114225 0.03194014 0.02960751 0.02225194 0.001481028 0.003804193 0.002565412 -0.0002367691 -0.001590407 1000 0.001481028 0.003804193 0.002565412 -0.0002367691 -0.001590407 1000
lala 16 0.6 1 first 0 1 201 4 3.39 0.759997606277466 -1 0 1 0 0.008508643 0.0101974 0.01243085 1000 1000 1000 0.008508643 0.0101974 0.01243085 1000 1000 1000 0.02198793 0.02193655 0.02207494 0.02292168 0.02407883 1000 0.02198793 0.02193655 0.02207494 0.02292168 0.02407883 1000
lala 12 0.3 1 first 2 1 202 5 3.3 1.81999683380127 -1 0 1 0 0.0236045 0.01976183 0.01021337 1000 1000 1000 0.0236045 0.01976183 0.01021337 1000 1000 1000 0.004846101 0.002836217 0.003437326 0.006439397 0.005746977 1000 0.004846101 0.002836217 0.003437326 0.006439397 0.005746977 1000
lala 14 0.15 0 first 9 1 203 5 2.6 0.01999831199646 1 1 -1 1 0.001618345 -0.0036863 -0.004351003 1000 1000 1000 0.001618345 -0.0036863 -0.004351003 1000 1000 1000 0.004684702 0.005064727 0.005814499 0.006490044 0.006567373 1000 0.004684702 0.005064727 0.005814499 0.006490044 0.006567373 1000
lala 13 0.3 0 second 13 1 204 4 2.32 0.499997854232788 0 1 -1 0 0.00952646 0.0101264 0.01022835 0.01058638 0.01041469 1000 0.00952646 0.0101264 0.01022835 0.01058638 0.01041469 1000 0.01219291 0.01286723 0.01285159 0.01255992 0.01240379 1000 0.01219291 0.01286723 0.01285159 0.01255992 0.01240379 1000
lala 13 1.2 1 first 15 1 205 5 3.05 0.119998216629028 0 1 1 1 0.01428695 0.01474688 0.0143738 1000 1000 1000 0.01428695 0.01474688 0.0143738 1000 1000 1000 0.01347197 0.01359101 0.0132556 0.01394557 0.01534676 1000 0.01347197 0.01359101 0.0132556 0.01394557 0.01534676 1000
lala 17 1.2 0 first 0 1 206 4 2.19 0.01999831199646 -1 0 -1 1 0.01274606 0.01364594 0.0145222 1000 1000 1000 0.01274606 0.01364594 0.0145222 1000 1000 1000 0.008941977 0.007690001 0.008498644 0.00794241 0.007761548 1000 0.008941977 0.007690001 0.008498644 0.00794241 0.007761548 1000
lala 9 1.2 0 second 3 1 207 5 4.25 0.39999794960022 -1 1 -1 0 0.008498682 0.01203335 0.01356847 0.012336 0.010532 1000 0.008498682 0.01203335 0.01356847 0.012336 0.010532 1000 0.01372944 0.013029 0.01345909 0.01394634 0.01420372 1000 0.01372944 0.013029 0.01345909 0.01394634 0.01420372 1000
lala 14 0.0375 1 second 16 1 208 6 3.9675 0.319998025894165 0 0 1 1 0.01533252 0.01616558 0.01625072 0.01598839 0.01587246 1000 0.01533252 0.01616558 0.01625072 0.01598839 0.01587246 1000 0.01619378 0.01599537 0.01668623 0.01673668 0.01686813 1000 0.01619378 0.01599537 0.01668623 0.01673668 0.01686813 1000
lala 14 0.3 0 first 13 1 209 4 2.62 0.959997415542603 0 1 -1 1 0.0177908 0.01758337 0.01747662 1000 1000 1000 0.0177908 0.01758337 0.01747662 1000 1000 1000 0.00497249 0.002950019 0.004269375 0.005785782 0.004607618 1000 0.00497249 0.002950019 0.004269375 0.005785782 0.004607618 1000
lala 10 2.4 1 second 3 1 210 5 6.65 0.679997682571411 -1 1 1 0 0.01406254 0.01330523 0.01409811 0.01462063 0.01392559 1000 0.01406254 0.01330523 0.01409811 0.01462063 0.01392559 1000 0.01553388 0.01576108 0.01595274 0.01568485 0.01580234 1000 0.01553388 0.01576108 0.01595274 0.01568485 0.01580234 1000
lala 12 0.6 1 second 10 1 211 6 4.56 0.459997892379761 1 0 1 0 -0.003081212 -0.001656059 -0.0004724196 -0.0008474423 -0.001372536 1000 -0.003081212 -0.001656059 -0.0004724196 -0.0008474423 -0.001372536 1000 0.001830495 0.001573086 0.001451628 0.001793604 0.002306548 1000 0.001830495 0.001573086 0.001451628 0.001793604 0.002306548 1000
lala 14 2.4 0 second 15 1 212 5 1.65 0.699997663497925 0 1 -1 0 0.01748736 0.01821749 0.01729358 0.01646348 0.01554161 1000 0.01748736 0.01821749 0.01729358 0.01646348 0.01554161 1000 0.02331746 0.02736395 0.02912633 0.02903017 0.02816725 1000 0.02331746 0.02736395 0.02912633 0.02903017 0.02816725 1000
lala 11 0.3 1 first 12 1 213 4 2.94 0.559997797012329 0 0 1 1 0.0227336 0.01080132 0.00172723 1000 1000 1000 0.0227336 0.01080132 0.00172723 1000 1000 1000 -0.006832587 -0.006247289 -0.005484346 -0.004780339 -0.004298119 1000 -0.006832587 -0.006247289 -0.005484346 -0.004780339 -0.004298119 1000
lala 15 1.2 0 second 15 1 214 5 2.85 0.879997491836548 0 1 -1 0 0.001736743 0.002162165 0.002502772 0.002995213 0.003249288 1000 0.001736743 0.002162165 0.002502772 0.002995213 0.003249288 1000 0.005681021 0.006856668 0.00859299 0.009666676 0.009616527 1000 0.005681021 0.006856668 0.00859299 0.009666676 0.009616527 1000
lala 16 1.2 1 second 15 1 215 5 4.05 0.159998178482056 0 1 1 1 0.02355472 0.02507839 0.02436619 0.02738891 0.0322461 1000 0.02355472 0.02507839 0.02436619 0.02738891 0.0322461 1000 0.02469234 0.02525085 0.02603296 0.02642816 0.0267301 1000 0.02469234 0.02525085 0.02603296 0.02642816 0.0267301 1000
lala 14 0.15 1 second 14 1 216 5 3.3 1.25999712944031 0 0 1 1 0.01114521 0.0178353 0.01851109 0.01260562 0.01059121 1000 0.01114521 0.0178353 0.01851109 0.01260562 0.01059121 1000 -0.005947261 -0.01026523 -0.006957996 -0.002519551 0.0009930354 1000 -0.005947261 -0.01026523 -0.006957996 -0.002519551 0.0009930354 1000
lala 8 1.2 1 second 5 1 217 6 4.380001 0.519997835159302 -1 1 1 0 0.01213514 0.01544236 0.01709509 0.01711148 0.0172263 1000 0.01213514 0.01544236 0.01709509 0.01711148 0.0172263 1000 0.01962579 0.02028346 0.02050403 0.01996679 0.0196871 1000 0.01962579 0.02028346 0.02050403 0.01996679 0.0196871 1000
lala 15 2.4 0 first 7 1 218 4 1.32 4.53999423980713 1 1 -1 0 0.02254782 0.02285028 0.02250696 1000 1000 1000 0.02254782 0.02285028 0.02250696 1000 1000 1000 0.02493093 0.02528353 0.02629303 0.02649464 0.02727005 1000 0.02493093 0.02528353 0.02629303 0.02649464 0.02727005 1000
lala 10 1.2 1 second 6 1 219 4 3.84 0.339998006820679 1 0 1 0 0.003667971 0.004389042 0.004914432 0.005361386 0.005859841 1000 0.003667971 0.004389042 0.004914432 0.005361386 0.005859841 1000 0.008942273 0.008777377 0.008747867 0.009277094 0.009514481 1000 0.008942273 0.008777377 0.008747867 0.009277094 0.009514481 1000
lala 9 1.2 0 first 5 1 220 6 3.180001 0.079998254776001 -1 1 -1 0 0.01230353 0.01399355 0.01569032 1000 1000 1000 0.01230353 0.01399355 0.01569032 1000 1000 1000 0.02265316 0.02387364 0.02464601 0.02552395 0.02556418 1000 0.02265316 0.02387364 0.02464601 0.02552395 0.02556418 1000
lala 15 0.075 0 second 9 1 221 5 2.675 0.639997720718384 1 1 -1 0 -0.009533024 -0.007362335 -0.005977612 -0.006320061 -0.006136254 1000 -0.009533024 -0.007362335 -0.005977612 -0.006320061 -0.006136254 1000 -0.002143197 -0.001976712 -0.001787772 -0.0009752247 -0.0006939528 1000 -0.002143197 -0.001976712 -0.001787772 -0.0009752247 -0.0006939528 1000
lala 11 1.2 1 first 3 1 222 5 5.45 6.04000329971313 -1 1 1 1 0.006566992 0.01141935 0.01230184 1000 1000 1000 0.006566992 0.01141935 0.01230184 1000 1000 1000 0.01998042 0.01505159 0.01372503 0.01328776 0.01139202 1000 0.01998042 0.01505159 0.01372503 0.01328776 0.01139202 1000
lala 17 0.6 1 second 15 1 223 5 3.45 0.759997606277466 0 1 1 0 -0.0003367162 0.0002247591 0.0001419799 -2.134295E-05 9.409378E-05 1000 -0.0003367162 0.0002247591 0.0001419799 -2.134295E-05 9.409378E-05 1000 0.0008839515 0.0008816926 0.001310648 0.001343322 0.001554539 1000 0.0008839515 0.0008816926 0.001310648 0.001343322 0.001554539 1000
lala 10 0.6 0 second 5 1 224 6 3.780001 0.559997797012329 -1 1 -1 1 0.004126593 0.004718361 0.004830046 0.006327313 0.008078436 1000 0.004126593 0.004718361 0.004830046 0.006327313 0.008078436 1000 0.02007648 0.01875857 0.01845018 0.01680422 0.01650618 1000 0.02007648 0.01875857 0.01845018 0.01680422 0.01650618 1000
lala 12 1.2 0 first 3 1 225 5 4.25 1.3999969959259 -1 1 -1 0 0.02289964 0.01984516 0.01977913 1000 1000 1000 0.02289964 0.01984516 0.01977913 1000 1000 1000 0.01480597 0.01246162 0.01069294 0.01197466 0.0152497 1000 0.01480597 0.01246162 0.01069294 0.01197466 0.0152497 1000
lala 15 0.0375 1 second 16 1 226 6 3.93 0.339998006820679 0 0 1 1 0.01697925 0.01708469 0.016867 0.01520031 0.01316261 1000 0.01697925 0.01708469 0.016867 0.01520031 0.01316261 1000 -0.00648005 -0.008094155 -0.009922221 -0.009561509 -0.00770652 1000 -0.00648005 -0.008094155 -0.009922221 -0.009561509 -0.00770652 1000
lala 12 0.3 1 first 12 1 227 4 2.64 0.679997682571411 0 0 1 1 -0.003619721 -0.003787574 -0.004246013 1000 1000 1000 -0.003619721 -0.003787574 -0.004246013 1000 1000 1000 0.02340537 0.02074308 0.01679673 0.01360403 0.01140324 1000 0.02340537 0.02074308 0.01679673 0.01360403 0.01140324 1000
lala 7 1.2 1 second 11 1 228 6 3.180001 0.459997892379761 1 1 1 1 0.02214239 0.02351988 0.02222526 0.01982405 0.02081187 1000 0.02214239 0.02351988 0.02222526 0.01982405 0.02081187 1000 0.02286302 0.02397593 0.02478564 0.02728309 0.03189024 1000 0.02286302 0.02397593 0.02478564 0.02728309 0.03189024 1000
lala 16 0.0375 0 first 16 1 229 6 3.8925 0.539997816085815 0 0 -1 1 0.02225126 0.02014694 0.01901666 1000 1000 1000 0.02225126 0.02014694 0.01901666 1000 1000 1000 0.02310257 0.02436829 0.02539754 0.02610426 0.02729965 1000 0.02310257 0.02436829 0.02539754 0.02610426 0.02729965 1000
lala 18 0.6 0 second 15 1 230 5 2.85 0.659997701644897 0 1 -1 1 -0.01696747 -0.004170543 0.008804635 0.01992541 0.03214886 1000 -0.01696747 -0.004170543 0.008804635 0.01992541 0.03214886 1000 0.02678289 0.02012346 0.01901063 0.01901124 0.01799005 1000 0.02678289 0.02012346 0.01901063 0.01901124 0.01799005 1000
lala 16 1.2 1 first 7 1 231 4 2.52 2.45999622344971 1 1 1 1 0.02182659 0.0218939 0.02211655 1000 1000 1000 0.02182659 0.0218939 0.02211655 1000 1000 1000 0.025299 0.02475675 0.02461021 0.02480924 0.02521341 1000 0.025299 0.02475675 0.02461021 0.02480924 0.02521341 1000
lala 13 0.3 1 first 12 1 232 4 2.34 2.43999624252319 0 0 1 1 0.01043286 -0.001797737 -0.004726623 1000 1000 1000 0.01043286 -0.001797737 -0.004726623 1000 1000 1000 0.00500896 0.004858213 0.004489969 0.004674532 0.004945437 1000 0.00500896 0.004858213 0.004489969 0.004674532 0.004945437 1000
lala 17 0.15 1 second 17 1 233 6 4.53 0.259998083114624 0 1 1 0 0.01306391 0.0134676 0.01303286 0.01189472 0.01163467 1000 0.01306391 0.0134676 0.01303286 0.01189472 0.01163467 1000 0.01378226 0.01581714 0.01567331 0.0143649 0.01429041 1000 0.01378226 0.01581714 0.01567331 0.0143649 0.01429041 1000
lala 11 0.6 1 first 6 1 234 4 3.24 0.439997911453247 1 0 1 1 0.0175637 0.0191574 0.01791428 1000 1000 1000 0.0175637 0.0191574 0.01791428 1000 1000 1000 0.01966606 0.01915866 0.0181984 0.01820011 0.02048634 1000 0.01966606 0.01915866 0.0181984 0.01820011 0.02048634 1000
lala 8 1.2 0 first 11 1 235 6 1.980001 3.97999477386475 1 1 -1 0 0.02190471 0.02231311 0.02297586 1000 1000 1000 0.02190471 0.02231311 0.02297586 1000 1000 1000 0.02635405 0.02570098 0.02759886 0.02755781 0.02635645 1000 0.02635405 0.02570098 0.02759886 0.02755781 0.02635645 1000
lala 12 0.6 0 first 6 1 236 4 2.64 0.23999810218811 1 0 -1 0 0.01114559 0.01233784 0.01341273 1000 1000 1000 0.01114559 0.01233784 0.01341273 1000 1000 1000 0.01325214 0.0125916 0.01239687 0.01225015 0.01250078 1000 0.01325214 0.0125916 0.01239687 0.01225015 0.01250078 1000
lala 9 1.2 0 second 11 1 237 6 3.180001 0.819997549057007 1 1 -1 1 0.01520676 0.0154033 0.0156843 0.0157017 0.01587755 1000 0.01520676 0.0154033 0.0156843 0.0157017 0.01587755 1000 0.01596247 0.0165325 0.01744012 0.0193243 0.02036367 1000 0.01596247 0.0165325 0.01744012 0.0193243 0.02036367 1000
lala 19 0.3 0 second 15 1 238 5 3.15 0.859997510910034 0 1 -1 0 0.006617957 0.00827188 0.01023049 0.01134597 0.01149541 1000 0.006617957 0.00827188 0.01023049 0.01134597 0.01149541 1000 0.01323073 0.01489469 0.01700295 0.01855171 0.01958679 1000 0.01323073 0.01489469 0.01700295 0.01855171 0.01958679 1000
lala 16 0.075 0 second 9 1 239 5 2.75 0.859997510910034 1 1 -1 1 0.02850267 0.02041479 0.006668319 0.004266554 0.003893819 1000 0.02850267 0.02041479 0.006668319 0.004266554 0.003893819 1000 0.01538448 0.01212805 0.008642271 0.005152632 0.004237392 1000 0.01538448 0.01212805 0.008642271 0.005152632 0.004237392 1000
lala 15 0.6 1 second 13 1 240 4 3.22 2.53999614715576 0 1 1 0 0.01864539 0.01865208 0.01818395 0.01758043 0.01670509 1000 0.01864539 0.01865208 0.01818395 0.01758043 0.01670509 1000 0.02118181 0.02219463 0.02340594 0.02415352 0.02559189 1000 0.02118181 0.02219463 0.02340594 0.02415352 0.02559189 1000
lala 18 0.15 0 first 17 1 241 6 4.38 8.58006143569946 0 1 -1 1 0.02298822 0.02193449 0.02171177 1000 1000 1000 0.02298822 0.02193449 0.02171177 1000 1000 1000 0.02120834 0.02149336 0.02204461 0.02265117 0.02270403 1000 0.02120834 0.02149336 0.02204461 0.02265117 0.02270403 1000
lala 16 0.3 0 first 13 1 242 4 2.92 0.739997625350952 0 1 -1 1 0.01235899 0.0126701 0.01049167 1000 1000 1000 0.01235899 0.0126701 0.01049167 1000 1000 1000 0.01140512 0.0153697 0.01968551 0.02354702 0.02488698 1000 0.01140512 0.0153697 0.01968551 0.02354702 0.02488698 1000
lala 17 0.15 1 second 13 1 243 4 3.07 1.37999701499939 0 1 1 0 -0.01053201 -0.01319612 -0.01599682 -0.01420807 -0.01604447 1000 -0.01053201 -0.01319612 -0.01599682 -0.01420807 -0.01604447 1000 -0.0145363 -0.013867 -0.01533013 -0.01577812 -0.01627577 1000 -0.0145363 -0.013867 -0.01533013 -0.01577812 -0.01627577 1000
lala 13 0.15 1 first 2 1 244 5 3.15 1.17999720573425 -1 0 1 0 -0.02243004 -0.01969209 -0.01915806 1000 1000 1000 -0.02243004 -0.01969209 -0.01915806 1000 1000 1000 -0.01812074 -0.01771294 -0.01861098 -0.01812602 -0.01558104 1000 -0.01812074 -0.01771294 -0.01861098 -0.01812602 -0.01558104 1000
lala 15 0.075 1 first 14 1 245 5 3.225 1.15999722480774 0 0 1 1 0.01565307 0.01853887 0.02153747 1000 1000 1000 0.01565307 0.01853887 0.02153747 1000 1000 1000 0.01337493 0.02325313 0.02080892 0.01439402 0.01246125 1000 0.01337493 0.02325313 0.02080892 0.01439402 0.01246125 1000
lala 20 0.3 1 second 15 1 246 5 3.45 3.01999568939209 0 1 1 1 0.02579267 0.02549081 0.02566047 0.02627469 0.0266757 1000 0.02579267 0.02549081 0.02566047 0.02627469 0.0266757 1000 0.03139653 0.03173782 0.03176786 0.03171537 0.03205886 1000 0.03139653 0.03173782 0.03176786 0.03171537 0.03205886 1000
lala 14 0.6 0 second 12 1 247 4 1.74 0.61999773979187 0 0 -1 1 -0.002370947 3.790854E-05 0.001686188 0.001828858 0.002100273 1000 -0.002370947 3.790854E-05 0.001686188 0.001828858 0.002100273 1000 0.003569404 0.003591735 0.003677902 0.003884594 0.004390142 1000 0.003569404 0.003591735 0.003677902 0.003884594 0.004390142 1000
lala 19 0.075 1 second 17 1 248 6 4.455 0.23999810218811 0 1 1 1 0.007722724 0.007609472 0.007586182 0.007782892 0.00825572 1000 0.007722724 0.007609472 0.007586182 0.007782892 0.00825572 1000 0.009922798 0.009984872 0.009839801 0.01001585 0.01064806 1000 0.009922798 0.009984872 0.009839801 0.01001585 0.01064806 1000
lala 16 0.075 1 second 14 1 249 5 3.15 1.0999972820282 0 0 1 0 0.01260197 0.0111763 0.0112915 0.01308277 0.01283145 1000 0.01260197 0.0111763 0.0112915 0.01308277 0.01283145 1000 0.01240165 0.01333745 0.01322502 0.01215617 0.01249137 1000 0.01240165 0.01333745 0.01322502 0.01215617 0.01249137 1000
lala 10 0.6 1 second 1 1 250 4 3.52 0.61999773979187 -1 1 1 1 0.0218121 0.02046373 0.02038841 0.0210474 0.02107006 1000 0.0218121 0.02046373 0.02038841 0.0210474 0.02107006 1000 0.02443788 0.02466237 0.02461298 0.02477203 0.02524371 1000 0.02443788 0.02466237 0.02461298 0.02477203 0.02524371 1000
lala 13 0.6 1 first 3 1 251 5 4.85 0.359997987747192 -1 1 1 1 0.009387414 -0.006131803 -0.01745627 1000 1000 1000 0.009387414 -0.006131803 -0.01745627 1000 1000 1000 -0.01089238 -0.007146405 -0.005190588 -0.002721355 -0.0007462944 1000 -0.01089238 -0.007146405 -0.005190588 -0.002721355 -0.0007462944 1000
lala 18 0.6 0 second 0 1 252 4 2.79 0.499997854232788 -1 0 -1 0 0.005319573 0.005118699 0.004257806 0.003987634 0.004081146 1000 0.005319573 0.005118699 0.004257806 0.003987634 0.004081146 1000 0.003735459 0.004797818 0.005187199 0.004780532 0.00463923 1000 0.003735459 0.004797818 0.005187199 0.004780532 0.00463923 1000
lala 17 0.6 0 first 7 1 253 4 1.92 3.57999515533447 1 1 -1 0 0.006216755 0.004703648 0.003963348 1000 1000 1000 0.006216755 0.004703648 0.003963348 1000 1000 1000 0.005093745 0.005259712 0.005870859 0.005821709 0.006249564 1000 0.005093745 0.005259712 0.005870859 0.005821709 0.006249564 1000
lala 10 1.2 1 first 11 1 254 6 4.380001 0.179998159408569 1 1 1 0 0.01376839 0.01476393 0.01496374 1000 1000 1000 0.01376839 0.01476393 0.01496374 1000 1000 1000 0.01900801 0.0189137 0.01879295 0.01805237 0.01810857 1000 0.01900801 0.0189137 0.01879295 0.01805237 0.01810857 1000
lala 15 0.3 0 first 12 1 255 4 2.04 0.01999831199646 0 0 -1 1 0.02064699 0.02158554 0.02418636 1000 1000 1000 0.02064699 0.02158554 0.02418636 1000 1000 1000 0.02396794 0.02556939 0.02734969 0.0284277 0.02890341 1000 0.02396794 0.02556939 0.02734969 0.0284277 0.02890341 1000
lala 17 0.075 1 first 14 1 256 5 3.075 1.07999730110168 0 0 1 0 0.01428056 0.01267693 0.01438602 1000 1000 1000 0.01428056 0.01267693 0.01438602 1000 1000 1000 0.02124115 0.02162942 0.02175951 0.02184374 0.02254291 1000 0.02124115 0.02162942 0.02175951 0.02184374 0.02254291 1000
lala 14 0.15 0 second 2 1 257 5 3 0.779997587203979 -1 0 -1 0 0.01430479 0.01567408 0.01789627 0.01946755 0.02076993 1000 0.01430479 0.01567408 0.01789627 0.01946755 0.02076993 1000 0.02335897 0.01997661 0.017177 0.01676198 0.01506147 1000 0.02335897 0.01997661 0.017177 0.01676198 0.01506147 1000
lala 19 0.6 1 first 0 1 258 4 3.39 1.01999735832214 -1 0 1 1 0.01542376 0.01430009 0.01232067 1000 1000 1000 0.01542376 0.01430009 0.01232067 1000 1000 1000 0.0181206 0.01397144 0.01161011 0.01178416 0.01378574 1000 0.0181206 0.01397144 0.01161011 0.01178416 0.01378574 1000
lala 20 0.0375 0 first 17 1 259 6 4.4175 0.839997529983521 0 1 -1 1 0.0164143 0.01703146 0.01676905 1000 1000 1000 0.0164143 0.01703146 0.01676905 1000 1000 1000 0.01840889 0.01804634 0.01823901 0.01828229 0.01823402 1000 0.01840889 0.01804634 0.01823901 0.01828229 0.01823402 1000
lala 20 0.3 1 first 0 1 260 4 3.09 0.61999773979187 -1 0 1 0 0.02175501 0.0221884 0.02279734 1000 1000 1000 0.02175501 0.0221884 0.02279734 1000 1000 1000 0.02765587 0.02786579 0.02776287 0.02774492 0.0276604 1000 0.02765587 0.02786579 0.02776287 0.02774492 0.0276604 1000
lala 11 0.6 0 first 11 1 261 6 3.780001 0.719997644424438 1 1 -1 1 0.00297693 -0.0002019533 0.004770032 1000 1000 1000 0.00297693 -0.0002019533 0.004770032 1000 1000 1000 0.00886881 0.00961098 0.01016807 0.01082938 0.01240664 1000 0.00886881 0.00961098 0.01016807 0.01082938 0.01240664 1000
lala 21 0.3 1 first 0 1 262 4 2.79 0.799997568130493 -1 0 1 1 0.01904349 0.01954414 0.01988932 1000 1000 1000 0.01904349 0.01954414 0.01988932 1000 1000 1000 0.02403388 0.02402237 0.02379078 0.02365202 0.0241419 1000 0.02403388 0.02402237 0.02379078 0.02365202 0.0241419 1000
lala 11 0.6 0 first 5 1 263 6 4.380001 0.39999794960022 -1 1 -1 0 0.01012763 -0.003153793 -0.01096169 1000 1000 1000 0.01012763 -0.003153793 -0.01096169 1000 1000 1000 -0.007363777 -0.005952956 -0.004078002 -0.003207787 -0.003159709 1000 -0.007363777 -0.005952956 -0.004078002 -0.003207787 -0.003159709 1000
lala 14 0.3 1 second 3 1 264 5 4.55 0.499997854232788 -1 1 1 0 0.00381231 0.003569709 0.003968461 0.004436758 0.004868052 1000 0.00381231 0.003569709 0.003968461 0.004436758 0.004868052 1000 0.006885677 0.006753314 0.007052379 0.007586667 0.007945447 1000 0.006885677 0.006753314 0.007052379 0.007586667 0.007945447 1000
lala 11 1.2 1 second 8 1 265 5 2.85 1.31999707221985 1 0 1 0 0.01151087 0.01239018 0.01277268 0.01272459 0.01249867 1000 0.01151087 0.01239018 0.01277268 0.01272459 0.01249867 1000 0.01024239 0.00948735 0.009472375 0.01008687 0.01029609 1000 0.01024239 0.00948735 0.009472375 0.01008687 0.01029609 1000
lala 12 0.6 1 first 5 1 266 6 4.980001 0.559997797012329 -1 1 1 0 0.01923504 0.02096947 0.02413297 1000 1000 1000 0.01923504 0.02096947 0.02413297 1000 1000 1000 0.03170841 0.0318574 0.03097011 0.0289948 0.02976936 1000 0.03170841 0.0318574 0.03097011 0.0289948 0.02976936 1000
lala 17 0.01875 0 second 16 1 267 6 3.91125 1.47999691963196 0 0 -1 1 0.005876989 0.004562733 0.0054359 0.006059477 0.006000269 1000 0.005876989 0.004562733 0.0054359 0.006059477 0.006000269 1000 0.003343518 0.003740516 0.004649863 0.006236837 0.007367368 1000 0.003343518 0.003740516 0.004649863 0.006236837 0.007367368 1000
lala 16 0.3 0 second 12 1 268 4 2.34 1.3999969959259 0 0 -1 1 -0.006172467 -0.007589878 -0.01275979 -0.0170923 -0.01963135 1000 -0.006172467 -0.007589878 -0.01275979 -0.0170923 -0.01963135 1000 -0.0008558652 0.001055239 0.004912125 0.01035598 0.01362044 1000 -0.0008558652 0.001055239 0.004912125 0.01035598 0.01362044 1000
lala 21 0.01875 1 second 17 1 269 6 4.43625 0.559997797012329 0 1 1 1 0.02716494 0.02714926 0.0286387 0.02820298 0.02655174 1000 0.02716494 0.02714926 0.0286387 0.02820298 0.02655174 1000 0.03687326 0.03553438 0.03649874 0.04023615 0.04423279 1000 0.03687326 0.03553438 0.03649874 0.04023615 0.04423279 1000
lala 11 0.3 1 second 1 1 270 4 3.22 2.05999660491943 -1 1 1 0 0.01644241 0.01825306 0.0205576 0.02118763 0.01881516 1000 0.01644241 0.01825306 0.0205576 0.02118763 0.01881516 1000 0.02133849 0.02169512 0.02548982 0.02484371 0.02379029 1000 0.02133849 0.02169512 0.02548982 0.02484371 0.02379029 1000
lala 12 0.3 0 first 1 1 271 4 2.92 0.179998159408569 -1 1 -1 1 0.01190382 0.004789481 0.003132248 1000 1000 1000 0.01190382 0.004789481 0.003132248 1000 1000 1000 0.01547217 0.01727372 0.01767485 0.01788282 0.01870358 1000 0.01547217 0.01727372 0.01767485 0.01788282 0.01870358 1000
lala 13 1.2 0 first 10 1 272 6 3.36 0.679997682571411 1 0 -1 0 0.02323453 0.02243149 0.02262773 1000 1000 1000 0.02323453 0.02243149 0.02262773 1000 1000 1000 0.0300627 0.03050488 0.0309597 0.03147223 0.03238296 1000 0.0300627 0.03050488 0.0309597 0.03147223 0.03238296 1000
lala 13 0.3 0 first 6 1 273 4 2.94 1.41999697685242 1 0 -1 0 0.009791828 -0.002622972 -0.007729133 1000 1000 1000 0.009791828 -0.002622972 -0.007729133 1000 1000 1000 -0.00523477 -0.002846802 -0.0007991049 0.0002391886 0.0002633094 1000 -0.00523477 -0.002846802 -0.0007991049 0.0002391886 0.0002633094 1000
lala 14 0.3 1 second 6 1 274 4 3.24 2.35999631881714 1 0 1 1 0.01044157 0.01184525 0.01240135 0.01208465 0.01210298 1000 0.01044157 0.01184525 0.01240135 0.01208465 0.01210298 1000 0.01303271 0.01357843 0.01440424 0.0143605 0.01405689 1000 0.01303271 0.01357843 0.01440424 0.0143605 0.01405689 1000
lala 12 0.6 0 first 8 1 275 5 2.25 3.37999534606934 1 0 -1 1 0.02537246 0.0270272 0.02722871 1000 1000 1000 0.02537246 0.0270272 0.02722871 1000 1000 1000 0.02912471 0.03408383 0.03636327 0.03451975 0.03198656 1000 0.02912471 0.03408383 0.03636327 0.03451975 0.03198656 1000
lala 15 0.075 0 first 2 1 276 5 3.075 4.03999471664429 -1 0 -1 0 0.004132437 0.004480099 0.005526084 1000 1000 1000 0.004132437 0.004480099 0.005526084 1000 1000 1000 0.008111363 0.008210132 0.008519279 0.009123075 0.008982454 1000 0.008111363 0.008210132 0.008519279 0.009123075 0.008982454 1000
lala 13 0.15 0 second 1 1 277 4 3.07 1.23999714851379 -1 1 -1 1 0.01182714 0.01142427 0.01219507 0.0134434 0.01853339 1000 0.01182714 0.01142427 0.01219507 0.0134434 0.01853339 1000 0.04256544 0.03103518 0.02962529 0.02992066 0.02778967 1000 0.04256544 0.03103518 0.02962529 0.02992066 0.02778967 1000
lala 17 0.075 1 first 9 1 278 5 2.825 0.799997568130493 1 1 1 1 0.009195953 0.007307824 0.006044287 1000 1000 1000 0.009195953 0.007307824 0.006044287 1000 1000 1000 0.01343304 0.01459251 0.01505192 0.01519044 0.01508315 1000 0.01343304 0.01459251 0.01505192 0.01519044 0.01508315 1000
lala 15 0.3 1 second 3 1 279 5 4.25 0.379997968673706 -1 1 1 0 0.02205756 0.02193539 0.02090334 0.02118678 0.0197687 1000 0.02205756 0.02193539 0.02090334 0.02118678 0.0197687 1000 0.02360714 0.02333109 0.024221 0.02441739 0.02437383 1000 0.02360714 0.02333109 0.024221 0.02441739 0.02437383 1000
lala 14 0.15 1 second 1 1 280 4 3.22 0.61999773979187 -1 1 1 0 0.004777476 0.004721233 0.005330443 0.006010682 0.00829318 1000 0.004777476 0.004721233 0.005330443 0.006010682 0.00829318 1000 0.01590626 0.01552334 0.01346802 0.01016734 0.008339253 1000 0.01590626 0.01552334 0.01346802 0.01016734 0.008339253 1000
lala 16 0.075 0 second 2 1 281 5 3.15 0.559997797012329 -1 0 -1 1 0.01792309 0.01921995 0.02013647 0.02043854 0.02017102 1000 0.01792309 0.01921995 0.02013647 0.02043854 0.02017102 1000 0.02039006 0.02101232 0.02182042 0.02226882 0.02190223 1000 0.02039006 0.02101232 0.02182042 0.02226882 0.02190223 1000
lala 13 0.3 1 second 5 1 282 6 4.680001 0.479997873306274 -1 1 1 1 0.02418648 0.02441575 0.02448033 0.02473506 0.02519452 1000 0.02418648 0.02441575 0.02448033 0.02473506 0.02519452 1000 0.03386324 0.03906179 0.04147971 0.03535837 0.03050988 1000 0.03386324 0.03906179 0.04147971 0.03535837 0.03050988 1000
lala 14 0.3 1 first 5 1 283 6 4.380001 5.17999362945557 -1 1 1 1 0.01676088 0.01946558 0.0248736 1000 1000 1000 0.01676088 0.01946558 0.0248736 1000 1000 1000 0.02851 0.03192082 0.0301693 0.02621446 0.02490822 1000 0.02851 0.03192082 0.0301693 0.02621446 0.02490822 1000
lala 12 0.3 1 first 11 1 284 6 4.080001 0.23999810218811 1 1 1 0 0.01373923 0.01431604 0.01432621 1000 1000 1000 0.01373923 0.01431604 0.01432621 1000 1000 1000 0.01547473 0.01573638 0.01558243 0.01558755 0.01553921 1000 0.01547473 0.01573638 0.01558243 0.01558755 0.01553921 1000
lala 22 0.3 0 first 0 1 285 4 2.49 2.97999572753906 -1 0 -1 0 0.01646801 0.01659518 0.0171599 1000 1000 1000 0.01646801 0.01659518 0.0171599 1000 1000 1000 0.006525364 0.008530631 0.01713526 0.01816741 0.01262822 1000 0.006525364 0.008530631 0.01713526 0.01816741 0.01262822 1000
lala 23 0.15 0 second 0 1 286 4 2.64 1.11999726295471 -1 0 -1 1 0.0115546 0.01083682 0.01275696 0.01365404 0.01411023 1000 0.0115546 0.01083682 0.01275696 0.01365404 0.01411023 1000 0.002578721 0.005527243 0.005955266 0.00540344 0.005586893 1000 0.002578721 0.005527243 0.005955266 0.00540344 0.005586893 1000
lala 15 0.075 0 second 1 1 287 4 3.145 0.719997644424438 -1 1 -1 0 0.01403087 0.01118293 0.008916127 0.007624346 0.006466697 1000 0.01403087 0.01118293 0.008916127 0.007624346 0.006466697 1000 0.006079306 0.006118027 0.00697242 0.007273063 0.007032916 1000 0.006079306 0.006118027 0.00697242 0.007273063 0.007032916 1000
lala 12 0.3 0 first 4 1 288 6 5.46 0.899997472763062 -1 0 -1 0 0.00817619 0.008429357 0.009302449 1000 1000 1000 0.00817619 0.008429357 0.009302449 1000 1000 1000 0.03060061 0.02658251 0.02297314 0.02122063 0.01846985 1000 0.03060061 0.02658251 0.02297314 0.02122063 0.01846985 1000
lala 18 0.3 0 second 7 1 289 4 2.22 0.339998006820679 1 1 -1 1 -0.007717948 0.003648713 0.003830433 0.003998738 0.001479019 1000 -0.007717948 0.003648713 0.003830433 0.003998738 0.001479019 1000 0.008206255 0.007962201 0.006667647 0.007461005 0.008016057 1000 0.008206255 0.007962201 0.006667647 0.007461005 0.008016057 1000
lala 15 0.3 1 first 5 1 290 6 4.08 0.379997968673706 -1 1 1 1 0.007213493 0.007893735 0.008467679 1000 1000 1000 0.007213493 0.007893735 0.008467679 1000 1000 1000 0.008972484 0.008860318 0.008994757 0.00953934 0.01035002 1000 0.008972484 0.008860318 0.008994757 0.00953934 0.01035002 1000
lala 13 0.3 0 second 8 1 291 5 2.55 0.519997835159302 1 0 -1 0 0.01815565 0.02020578 0.02051271 0.017098 0.01653278 1000 0.01815565 0.02020578 0.02051271 0.017098 0.01653278 1000 0.01894602 0.01779039 0.01735414 0.0177642 0.01701236 1000 0.01894602 0.01779039 0.01735414 0.0177642 0.01701236 1000
lala 16 0.6 1 second 5 1 292 6 3.48 3.01999568939209 -1 1 1 0 0.01820953 0.01728633 0.01754854 0.0183329 0.01848778 1000 0.01820953 0.01728633 0.01754854 0.0183329 0.01848778 1000 0.02256702 0.02263065 0.02245716 0.02353039 0.02580545 1000 0.02256702 0.02263065 0.02245716 0.02353039 0.02580545 1000
lala 16 0.3 0 second 3 1 293 5 3.95 0.599997758865356 -1 1 -1 0 0.02151168 0.02138342 0.02023449 0.01941948 0.01985541 1000 0.02151168 0.02138342 0.02023449 0.01941948 0.01985541 1000 0.02036385 0.01998765 0.02027512 0.02042627 0.02004098 1000 0.02036385 0.01998765 0.02027512 0.02042627 0.02004098 1000
lala 17 0.3 1 first 12 1 294 4 2.64 1.79999685287476 0 0 1 0 0.02088399 0.02131828 0.02068345 1000 1000 1000 0.02088399 0.02131828 0.02068345 1000 1000 1000 0.02083778 0.01972481 0.02039901 0.02288741 0.02316259 1000 0.02083778 0.01972481 0.02039901 0.02288741 0.02316259 1000
lala 13 0.15 1 second 11 1 295 6 3.930001 1.27999711036682 1 1 1 1 0.004081303 0.00409026 0.003709519 0.003684648 0.004423914 1000 0.004081303 0.00409026 0.003709519 0.003684648 0.004423914 1000 0.003896924 0.004342264 0.004784224 0.005245097 0.005892717 1000 0.003896924 0.004342264 0.004784224 0.005245097 0.005892717 1000
lala 17 0.15 0 second 3 1 296 5 4.099999 0.979997396469116 -1 1 -1 1 0.01025121 0.01006362 0.01027923 0.01067127 0.01043634 1000 0.01025121 0.01006362 0.01027923 0.01067127 0.01043634 1000 0.01015794 0.009967363 0.009874837 0.009529612 0.009076511 1000 0.01015794 0.009967363 0.009874837 0.009529612 0.009076511 1000
lala 17 0.075 1 first 2 1 297 5 3.225 1.49999690055847 -1 0 1 0 0.01199072 0.01301588 0.01233552 1000 1000 1000 0.01199072 0.01301588 0.01233552 1000 1000 1000 0.01457448 0.01464626 0.01458033 0.01453096 0.01480777 1000 0.01457448 0.01464626 0.01458033 0.01453096 0.01480777 1000
lala 18 0.0375 0 second 2 1 298 5 3.1875 0.61999773979187 -1 0 -1 1 0.01566206 0.01604156 0.01741551 0.01685605 0.0160892 1000 0.01566206 0.01604156 0.01741551 0.01685605 0.0160892 1000 0.01510925 0.01441177 0.0150207 0.01515068 0.01430075 1000 0.01510925 0.01441177 0.0150207 0.01515068 0.01430075 1000
lala 14 0.6 1 first 10 1 299 6 3.96 1.79999685287476 1 0 1 1 0.01869256 0.01983681 0.01904932 1000 1000 1000 0.01869256 0.01983681 0.01904932 1000 1000 1000 0.01582926 0.020097 0.02267944 0.02127304 0.01886987 1000 0.01582926 0.020097 0.02267944 0.02127304 0.01886987 1000
lala 17 1.2 0 second 5 1 300 6 2.28 0.39999794960022 -1 1 -1 1 0.03874114 0.03397151 0.02317107 0.015027 0.019466 1000 0.03874114 0.03397151 0.02317107 0.015027 0.019466 1000 0.02482085 0.02623478 0.02254677 0.02299388 0.02251344 1000 0.02482085 0.02623478 0.02254677 0.02299388 0.02251344 1000
lala 16 0.0375 1 first 1 1 301 4 3.1825 0.459997892379761 -1 1 1 1 0.02131231 0.02151857 0.02437813 1000 1000 1000 0.02131231 0.02151857 0.02437813 1000 1000 1000 0.02072094 0.01802384 0.01736535 0.01667125 0.01866251 1000 0.02072094 0.01802384 0.01736535 0.01667125 0.01866251 1000
lala 21 0.15 0 first 15 1 302 5 3.3 2.159996509552 0 1 -1 1 0.0192888 0.02370591 0.03783549 1000 1000 1000 0.0192888 0.02370591 0.03783549 1000 1000 1000 0.09619959 0.09166783 0.08736228 0.08227761 0.07419826 1000 0.09619959 0.09166783 0.08736228 0.08227761 0.07419826 1000
lala 22 0.009375 1 second 17 1 303 6 4.426875 0.279998064041138 0 1 1 0 -0.0074103 -0.00462901 -0.003950724 -0.005634778 -0.006999884 1000 -0.0074103 -0.00462901 -0.003950724 -0.005634778 -0.006999884 1000 -0.002618588 -0.003353246 -0.00524797 -0.002242879 -0.0002554227 1000 -0.002618588 -0.003353246 -0.00524797 -0.002242879 -0.0002554227 1000
lala 13 0.3 1 first 4 1 304 6 5.76 0.01999831199646 -1 0 1 1 -0.001862842 -0.001879101 0.0003052955 1000 1000 1000 -0.001862842 -0.001879101 0.0003052955 1000 1000 1000 0.001658023 0.00360989 0.001927131 0.00163382 0.001335743 1000 0.001658023 0.00360989 0.001927131 0.00163382 0.001335743 1000
lala 15 0.3 0 first 10 1 305 6 3.66 2.31999635696411 1 0 -1 1 0.002164688 0.00508975 0.006334878 1000 1000 1000 0.002164688 0.00508975 0.006334878 1000 1000 1000 0.04238748 0.04825647 0.0550082 0.07917984 0.09369846 1000 0.04238748 0.04825647 0.0550082 0.07917984 0.09369846 1000
lala 18 0.01875 0 first 16 1 306 6 3.93 0.779997587203979 0 0 -1 0 0.004966088 0.007069704 0.01025429 1000 1000 1000 0.004966088 0.007069704 0.01025429 1000 1000 1000 0.01022542 0.0103706 0.01028312 0.01094515 0.01187109 1000 0.01022542 0.0103706 0.01028312 0.01094515 0.01187109 1000
lala 18 0.15 0 first 12 1 307 4 2.49 0.01999831199646 0 0 -1 0 0.01673977 0.01657974 0.01714892 1000 1000 1000 0.01673977 0.01657974 0.01714892 1000 1000 1000 0.02116138 0.021644 0.02188079 0.02243951 0.0225825 1000 0.02116138 0.021644 0.02188079 0.02243951 0.0225825 1000
lala 19 0.01875 1 second 16 1 308 6 3.94875 1.55999684333801 0 0 1 1 -0.01167941 0.003609139 0.008478411 0.00870315 0.007770069 1000 -0.01167941 0.003609139 0.008478411 0.00870315 0.007770069 1000 0.01488883 0.01528458 0.01554745 0.01639236 0.01978171 1000 0.01488883 0.01528458 0.01554745 0.01639236 0.01978171 1000
lala 23 0.009375 1 first 17 1 309 6 4.4175 0.499997854232788 0 1 1 1 0.01787844 0.01816324 0.01786964 1000 1000 1000 0.01787844 0.01816324 0.01786964 1000 1000 1000 0.023231 0.02310822 0.02437296 0.02421242 0.0250422 1000 0.023231 0.02310822 0.02437296 0.02421242 0.0250422 1000
lala 19 0.3 0 second 7 1 310 4 2.52 0.419997930526733 1 1 -1 1 -0.005612938 -0.00440542 -0.002447321 -0.0004243806 0.001328066 1000 -0.005612938 -0.00440542 -0.002447321 -0.0004243806 0.001328066 1000 0.005401668 0.005275561 0.003787654 0.0004858493 -0.003272163 1000 0.005401668 0.005275561 0.003787654 0.0004858493 -0.003272163 1000
lala 18 0.15 0 second 14 1 311 5 2.925 0.61999773979187 0 0 -1 0 -0.006775745 -0.01023026 -0.01573222 -0.01688261 -0.018061 1000 -0.006775745 -0.01023026 -0.01573222 -0.01688261 -0.018061 1000 -0.04121029 -0.04073063 -0.03843704 -0.03619441 -0.03572877 1000 -0.04121029 -0.04073063 -0.03843704 -0.03619441 -0.03572877 1000
lala 19 0.01875 1 first 2 1 312 5 3.20625 0.61999773979187 -1 0 1 0 -0.01463456 -0.00714338 -0.005237115 1000 1000 1000 -0.01463456 -0.00714338 -0.005237115 1000 1000 1000 -0.03965212 -0.04062546 -0.04163866 -0.04398891 -0.04624246 1000 -0.03965212 -0.04062546 -0.04163866 -0.04398891 -0.04624246 1000
lala 14 0.15 0 first 4 1 313 6 5.61 0.439997911453247 -1 0 -1 1 -0.01409926 -0.00803169 -0.005763838 1000 1000 1000 -0.01409926 -0.00803169 -0.005763838 1000 1000 1000 0.01587633 0.01243493 0.01538864 0.01581864 0.01457466 1000 0.01587633 0.01243493 0.01538864 0.01581864 0.01457466 1000
lala 18 0.15 1 second 3 1 314 5 4.25 0.179998159408569 -1 1 1 0 0.01624486 0.01935938 0.02128107 0.02394092 0.02476995 1000 0.01624486 0.01935938 0.02128107 0.02394092 0.02476995 1000 0.01400246 0.01393672 0.01370206 0.01227162 0.01521535 1000 0.01400246 0.01393672 0.01370206 0.01227162 0.01521535 1000
lala 22 0.075 0 second 15 1 315 5 3.375 0.959997415542603 0 1 -1 1 0.01346319 0.01321721 0.01367857 0.01429248 0.01349917 1000 0.01346319 0.01321721 0.01367857 0.01429248 0.01349917 1000 0.01384226 0.01732556 0.01956098 0.01980726 0.01937926 1000 0.01384226 0.01732556 0.01956098 0.01980726 0.01937926 1000
lala 17 0.01875 1 first 1 1 316 4 3.16375 1.01999735832214 -1 1 1 0 0.02028445 0.02077692 0.0214154 1000 1000 1000 0.02028445 0.02077692 0.0214154 1000 1000 1000 0.02094395 0.02120723 0.02212539 0.02401055 0.02499299 1000 0.02094395 0.02120723 0.02212539 0.02401055 0.02499299 1000
lala 20 0.3 0 second 7 1 317 4 2.82 0.579997777938843 1 1 -1 1 0.01244595 0.01243888 0.01591782 0.02012573 0.02160062 1000 0.01244595 0.01243888 0.01591782 0.02012573 0.02160062 1000 0.02240771 0.0226132 0.02304937 0.02461446 0.02594427 1000 0.02240771 0.0226132 0.02304937 0.02461446 0.02594427 1000
lala 14 0.3 0 first 8 1 318 5 2.85 0.479997873306274 1 0 -1 1 0.02470074 0.0266258 0.02716778 1000 1000 1000 0.02470074 0.0266258 0.02716778 1000 1000 1000 0.0329091 0.03235712 0.03091707 0.0304243 0.03030401 1000 0.0329091 0.03235712 0.03091707 0.0304243 0.03030401 1000
lala 18 0.075 0 second 13 1 319 4 2.995 1.5399968624115 0 1 -1 1 -0.02525793 -0.02737944 -0.02419489 -0.02440012 -0.02482351 1000 -0.02525793 -0.02737944 -0.02419489 -0.02440012 -0.02482351 1000 -0.01224308 -0.009862247 -0.00640225 -0.006036031 -0.006665004 1000 -0.01224308 -0.009862247 -0.00640225 -0.006036031 -0.006665004 1000
lala 15 0.15 0 second 6 1 320 4 3.09 0.959997415542603 1 0 -1 0 -0.01307089 -0.01334131 -0.0126376 -0.01106934 -0.01004073 1000 -0.01307089 -0.01334131 -0.0126376 -0.01106934 -0.01004073 1000 -0.02107955 -0.02143466 -0.02068947 -0.02056179 -0.02081821 1000 -0.02107955 -0.02143466 -0.02068947 -0.02056179 -0.02081821 1000
lala 14 0.15 0 first 11 1 321 6 3.780001 0.479997873306274 1 1 -1 0 -0.01817679 -0.001268106 0.008299455 1000 1000 1000 -0.01817679 -0.001268106 0.008299455 1000 1000 1000 -0.007164249 -0.006707407 -0.00613246 -0.007662094 -0.009579856 1000 -0.007164249 -0.006707407 -0.00613246 -0.007662094 -0.009579856 1000
lala 19 0.075 1 second 3 1 322 5 4.175 0.579997777938843 -1 1 1 1 -0.004617767 -0.004325018 -0.00363027 -0.002924072 -0.003169571 1000 -0.004617767 -0.004325018 -0.00363027 -0.002924072 -0.003169571 1000 0.007486382 0.008079069 0.01056229 0.01276851 0.01620539 1000 0.007486382 0.008079069 0.01056229 0.01276851 0.01620539 1000
lala 15 0.3 0 first 8 1 323 5 3.15 0.179998159408569 1 0 -1 1 0.01806046 0.02100149 0.03153125 1000 1000 1000 0.01806046 0.02100149 0.03153125 1000 1000 1000 0.03136609 0.03501168 0.03097973 0.02581423 0.01940757 1000 0.03136609 0.03501168 0.03097973 0.02581423 0.01940757 1000
lala 20 0.009375 0 first 16 1 324 6 3.939375 0.719997644424438 0 0 -1 0 0.01547524 0.01294754 0.005288434 1000 1000 1000 0.01547524 0.01294754 0.005288434 1000 1000 1000 0.005228902 0.008939679 0.01035652 0.009992811 0.0098587 1000 0.005228902 0.008939679 0.01035652 0.009992811 0.0098587 1000
lala 18 0.6 0 second 5 1 325 6 2.880001 0.459997892379761 -1 1 -1 0 0.01521716 0.01496876 0.01548627 0.01597766 0.01603988 1000 0.01521716 0.01496876 0.01548627 0.01597766 0.01603988 1000 0.01866399 0.0186832 0.01905303 0.01908163 0.01919833 1000 0.01866399 0.0186832 0.01905303 0.01908163 0.01919833 1000
lala 18 0.01875 0 first 1 1 326 4 3.145 0.659997701644897 -1 1 -1 0 0.02349123 0.02459528 0.02466024 1000 1000 1000 0.02349123 0.02459528 0.02466024 1000 1000 1000 0.03441573 0.03329739 0.02852716 0.02469264 0.02263737 1000 0.03441573 0.03329739 0.02852716 0.02469264 0.02263737 1000
lala 23 0.075 1 second 15 1 327 5 3.45 0.01999831199646 0 1 1 1 0.007245385 0.008542101 0.008936943 0.008902321 0.008641759 1000 0.007245385 0.008542101 0.008936943 0.008902321 0.008641759 1000 0.009083397 0.00945578 0.009574217 0.009574115 0.01042432 1000 0.009083397 0.00945578 0.009574217 0.009574115 0.01042432 1000
lala 19 0.075 1 first 14 1 328 5 3 0.319998025894165 0 0 1 0 0.01200757 0.01236816 0.01170099 1000 1000 1000 0.01200757 0.01236816 0.01170099 1000 1000 1000 0.01598869 0.01242753 0.009368486 0.01088441 0.01282957 1000 0.01598869 0.01242753 0.009368486 0.01088441 0.01282957 1000
lala 19 0.0375 1 first 13 1 329 4 3.0325 0.899997472763062 0 1 1 0 0.01080898 0.01042869 0.01146733 1000 1000 1000 0.01080898 0.01042869 0.01146733 1000 1000 1000 0.01003661 0.009516299 0.009628936 0.009049471 0.008817608 1000 0.01003661 0.009516299 0.009628936 0.009049471 0.008817608 1000
lala 21 0.0046875 1 second 16 1 330 6 3.944063 0.559997797012329 0 0 1 0 0.01011846 0.009984097 0.009758666 0.01062676 0.01187961 1000 0.01011846 0.009984097 0.009758666 0.01062676 0.01187961 1000 0.01246061 0.01230615 0.01248405 0.01252445 0.01253753 1000 0.01246061 0.01230615 0.01248405 0.01252445 0.01253753 1000
lala 20 0.075 0 first 3 1 331 5 4.1 0.419997930526733 -1 1 -1 0 0.01410951 0.01421026 0.01405219 1000 1000 1000 0.01410951 0.01421026 0.01405219 1000 1000 1000 0.01544976 0.01587039 0.01574228 0.01595602 0.01620264 1000 0.01544976 0.01587039 0.01574228 0.01595602 0.01620264 1000
lala 24 0.0375 1 second 15 1 332 5 3.4125 0.39999794960022 0 1 1 1 0.01782137 0.01837121 0.01848016 0.018652 0.01836758 1000 0.01782137 0.01837121 0.01848016 0.018652 0.01836758 1000 0.01906101 0.01962733 0.01988867 0.01993801 0.02051513 1000 0.01906101 0.01962733 0.01988867 0.01993801 0.02051513 1000
lala 19 0.009375 1 second 1 1 333 4 3.154375 2.01999664306641 -1 1 1 1 0.02143844 0.02139442 0.02180041 0.02223367 0.02269693 1000 0.02143844 0.02139442 0.02180041 0.02223367 0.02269693 1000 0.02436545 0.02316483 0.02074797 0.02070219 0.02254767 1000 0.02436545 0.02316483 0.02074797 0.02070219 0.02254767 1000
lala 19 0.6 0 first 5 1 334 6 3.48 0.379997968673706 -1 1 -1 0 0.02008034 0.02099965 0.01669747 1000 1000 1000 0.02008034 0.02099965 0.01669747 1000 1000 1000 0.02093777 0.01798498 0.01587353 0.01508136 0.0175669 1000 0.02093777 0.01798498 0.01587353 0.01508136 0.0175669 1000
lala 15 0.075 1 second 11 1 335 6 3.855001 0.61999773979187 1 1 1 1 0.02200904 0.01886758 0.01958144 0.01861474 0.01936526 1000 0.02200904 0.01886758 0.01958144 0.01861474 0.01936526 1000 0.05481355 0.05433821 0.05482763 0.05112781 0.047882 1000 0.05481355 0.05433821 0.05482763 0.05112781 0.047882 1000
