subject PestNr Step_Size_OnTrial Pest_Faster Pest_Interval Condition block trial velH velH_Pest Reaction_Time velH_Subject Start_Above Response_MotionEstimation RightOrLeftxRotations_first0 xRotations_first1 xRotations_first2 xRotations_first3 xRotations_first4 xRotations_first5 yRotations_first0 yRotations_first1 yRotations_first2 yRotations_first3 yRotations_first4 yRotations_first5 xRotations_second0 xRotations_second1 xRotations_second2 xRotations_second3 xRotations_second4 xRotations_second5 yRotations_second0 yRotations_second1 yRotations_second2 yRotations_second3 yRotations_second4 yRotations_second5
lala 1 1.2 1 second 17 1 1 6 7.98 0.379997968673706 0 1 1 1 0.006133862 0.005958796 0.006648594 0.005604431 0.00388205 1000 0.006133862 0.005958796 0.006648594 0.005604431 0.00388205 1000 0.0002187941 -0.001015311 -0.001693209 -0.002124124 -0.003153994 1000 0.0002187941 -0.001015311 -0.001693209 -0.002124124 -0.003153994 1000
lala 2 1.2 1 second 17 1 2 6 6.780001 0.379997968673706 0 1 1 1 -0.0023295 -0.00258122 -0.002557283 -0.002455614 -0.002094621 1000 -0.0023295 -0.00258122 -0.002557283 -0.002455614 -0.002094621 1000 3.315145E-05 0.0007161134 0.001162068 0.001081647 0.0005576669 1000 3.315145E-05 0.0007161134 0.001162068 0.001081647 0.0005576669 1000
lala 1 1.2 1 first 2 1 3 5 3.3 0.599997758865356 -1 0 1 1 0.001579885 0.001012037 0.001078439 1000 1000 1000 0.001579885 0.001012037 0.001078439 1000 1000 1000 0.00238771 0.003036863 0.004195701 0.004497585 0.004625031 1000 0.00238771 0.003036863 0.004195701 0.004497585 0.004625031 1000
lala 1 1.2 1 first 16 1 4 6 3.96 0.559997797012329 0 0 1 0 0.007201452 0.007184199 0.007223502 1000 1000 1000 0.007201452 0.007184199 0.007223502 1000 1000 1000 0.00820163 0.008356676 0.008152722 0.00844984 0.00866071 1000 0.00820163 0.008356676 0.008152722 0.00844984 0.00866071 1000
lala 1 1.2 1 second 10 1 5 6 3.96 0.599997758865356 1 0 1 1 0.007039217 0.007095845 0.00721578 0.00688978 0.00716346 1000 0.007039217 0.007095845 0.00721578 0.00688978 0.00716346 1000 0.007610407 0.008171886 0.008230322 0.008013043 0.007913139 1000 0.007610407 0.008171886 0.008230322 0.008013043 0.007913139 1000
lala 1 1.2 1 first 12 1 6 4 2.64 0.39999794960022 0 0 1 0 0.009184407 0.00902024 0.009605424 1000 1000 1000 0.009184407 0.00902024 0.009605424 1000 1000 1000 0.01082694 0.01176423 0.01124515 0.01076107 0.01161083 1000 0.01082694 0.01176423 0.01124515 0.01076107 0.01161083 1000
lala 2 1.2 0 second 12 1 7 4 1.44 0.319998025894165 0 0 -1 1 0.01228086 0.01290495 0.01280029 0.01269165 0.01311571 1000 0.01228086 0.01290495 0.01280029 0.01269165 0.01311571 1000 0.0141228 0.01423066 0.01401541 0.01391638 0.0139347 1000 0.0141228 0.01423066 0.01401541 0.01391638 0.0139347 1000
lala 1 1.2 1 second 15 1 8 5 6.65 0.339998006820679 0 1 1 1 0.01234509 0.01214402 0.01169364 0.01162543 0.01115414 1000 0.01234509 0.01214402 0.01169364 0.01162543 0.01115414 1000 0.01113551 0.0113081 0.01176648 0.01161586 0.01151598 1000 0.01113551 0.0113081 0.01176648 0.01161586 0.01151598 1000
lala 2 1.2 1 second 15 1 9 5 5.45 0.279998064041138 0 1 1 0 0.0107913 0.009837955 0.00818382 0.006053932 0.006285659 1000 0.0107913 0.009837955 0.00818382 0.006053932 0.006285659 1000 -0.01179908 -0.01260084 -0.01504946 -0.01740947 -0.01883305 1000 -0.01179908 -0.01260084 -0.01504946 -0.01740947 -0.01883305 1000
lala 1 1.2 1 first 7 1 10 4 5.32 0.539997816085815 1 1 1 0 -0.01675471 -0.01239248 -0.0107084 1000 1000 1000 -0.01675471 -0.01239248 -0.0107084 1000 1000 1000 -0.00722919 -0.006822851 -0.006707555 -0.00638504 -0.006036452 1000 -0.00722919 -0.006822851 -0.006707555 -0.00638504 -0.006036452 1000
lala 2 1.2 0 first 2 1 11 5 2.1 1.49999690055847 -1 0 -1 0 -0.00705053 -0.00707903 -0.007159189 1000 1000 1000 -0.00705053 -0.00707903 -0.007159189 1000 1000 1000 -0.006791231 -0.006656414 -0.006825838 -0.00682532 -0.006960424 1000 -0.006791231 -0.006656414 -0.006825838 -0.00682532 -0.006960424 1000
lala 1 1.2 1 second 8 1 12 5 3.3 0.459997892379761 1 0 1 0 -0.006918535 -0.007773907 -0.007560574 -0.008108047 -0.008139083 1000 -0.006918535 -0.007773907 -0.007560574 -0.008108047 -0.008139083 1000 -0.009215144 -0.009107323 -0.009221011 -0.008761452 -0.008833811 1000 -0.009215144 -0.009107323 -0.009221011 -0.008761452 -0.008833811 1000
lala 1 1.2 1 first 1 1 13 4 5.32 0.219998121261597 -1 1 1 1 -0.009008195 -0.008663549 -0.008707201 1000 1000 1000 -0.009008195 -0.008663549 -0.008707201 1000 1000 1000 -0.0112252 -0.01067685 -0.01082633 -0.01076735 -0.010668 1000 -0.0112252 -0.01067685 -0.01082633 -0.01076735 -0.010668 1000
lala 2 1.2 1 second 7 1 14 4 4.12 0.419997930526733 1 1 1 0 -0.01164037 -0.0119611 -0.01264926 -0.01248271 -0.01203545 1000 -0.01164037 -0.0119611 -0.01264926 -0.01248271 -0.01203545 1000 -0.009946734 -0.009844979 -0.009870554 -0.01019734 -0.01018938 1000 -0.009946734 -0.009844979 -0.009870554 -0.01019734 -0.01018938 1000
lala 2 1.2 1 first 1 1 15 4 4.12 0.01999831199646 -1 1 1 1 -0.01476589 -0.0148246 -0.01507444 1000 1000 1000 -0.01476589 -0.0148246 -0.01507444 1000 1000 1000 -0.01412442 -0.0131525 -0.01290705 -0.01322585 -0.01280973 1000 -0.01412442 -0.0131525 -0.01290705 -0.01322585 -0.01280973 1000
lala 2 1.2 1 first 8 1 16 5 2.1 1.05999732017517 1 0 1 1 -0.01209623 -0.0123705 -0.0127326 1000 1000 1000 -0.01209623 -0.0123705 -0.0127326 1000 1000 1000 -0.0118478 -0.0122612 -0.01150314 -0.01230073 -0.01231662 1000 -0.0118478 -0.0122612 -0.01150314 -0.01230073 -0.01231662 1000
lala 1 1.2 1 first 0 1 17 4 2.64 0.61999773979187 -1 0 1 1 -0.01202003 -0.01161661 -0.01228762 1000 1000 1000 -0.01202003 -0.01161661 -0.01228762 1000 1000 1000 -0.01412262 -0.0142375 -0.014896 -0.01467975 -0.01438655 1000 -0.01412262 -0.0142375 -0.014896 -0.01467975 -0.01438655 1000
lala 3 1.2 1 first 7 1 18 4 2.92 0.559997797012329 1 1 1 1 -0.01398549 -0.01413949 -0.01489764 1000 1000 1000 -0.01398549 -0.01413949 -0.01489764 1000 1000 1000 -0.01507489 -0.01527445 -0.01495786 -0.01502533 -0.01561873 1000 -0.01507489 -0.01527445 -0.01495786 -0.01502533 -0.01561873 1000
lala 2 1.2 0 second 10 1 19 6 2.76 0.339998006820679 1 0 -1 0 -0.01509135 -0.01498913 -0.0151253 -0.01550766 -0.01556709 1000 -0.01509135 -0.01498913 -0.0151253 -0.01550766 -0.01556709 1000 -0.01573984 -0.01565711 -0.01574169 -0.01547307 -0.01551862 1000 -0.01573984 -0.01565711 -0.01574169 -0.01547307 -0.01551862 1000
lala 1 1.2 1 second 5 1 20 6 7.98 16.8602499961853 -1 1 1 1 -0.01554586 -0.01570953 -0.01563567 -0.01557037 -0.01589043 1000 -0.01554586 -0.01570953 -0.01563567 -0.01557037 -0.01589043 1000 -0.01500875 -0.01525922 -0.01546599 -0.01524351 -0.0151514 1000 -0.01500875 -0.01525922 -0.01546599 -0.01524351 -0.0151514 1000
lala 3 1.2 1 second 2 1 21 5 3.3 0.699997663497925 -1 0 1 0 -0.009677382 -0.009074965 -0.009571184 -0.009052853 -0.0101097 1000 -0.009677382 -0.009074965 -0.009571184 -0.009052853 -0.0101097 1000 -0.01193751 -0.01451454 -0.01753419 -0.02101901 -0.02206297 1000 -0.01193751 -0.01451454 -0.01753419 -0.02101901 -0.02206297 1000
lala 4 1.2 1 second 7 1 22 4 1.72 0.39999794960022 1 1 1 0 -0.01338889 -0.01272893 -0.01241582 -0.0120045 -0.01262462 1000 -0.01338889 -0.01272893 -0.01241582 -0.0120045 -0.01262462 1000 -0.005271649 -0.006440635 -0.007692838 -0.009003201 -0.0092133 1000 -0.005271649 -0.006440635 -0.007692838 -0.009003201 -0.0092133 1000
lala 2 1.2 1 first 5 1 23 6 6.780001 0.259998083114624 -1 1 1 1 -0.01790955 -0.01496412 -0.01423502 1000 1000 1000 -0.01790955 -0.01496412 -0.01423502 1000 1000 1000 -0.01159771 -0.01139949 -0.01095076 -0.01056596 -0.01105189 1000 -0.01159771 -0.01139949 -0.01095076 -0.01056596 -0.01105189 1000
lala 3 1.2 1 second 15 1 24 5 4.25 0.279998064041138 0 1 1 0 -0.008399941 -0.0077556 -0.00828996 -0.008518612 -0.008954303 1000 -0.008399941 -0.0077556 -0.00828996 -0.008518612 -0.008954303 1000 -0.006942782 -0.007197434 -0.006349294 -0.00665066 -0.006839913 1000 -0.006942782 -0.007197434 -0.006349294 -0.00665066 -0.006839913 1000
lala 3 1.2 1 first 17 1 25 6 5.580001 0.939997434616089 0 1 1 1 -0.009678245 -0.009508994 -0.009670325 1000 1000 1000 -0.009678245 -0.009508994 -0.009670325 1000 1000 1000 -0.01454955 -0.01499663 -0.01488164 -0.01455728 -0.0144234 1000 -0.01454955 -0.01499663 -0.01488164 -0.01455728 -0.0144234 1000
lala 3 1.2 1 second 5 1 26 6 5.580001 0.39999794960022 -1 1 1 0 -0.01338377 -0.01299718 -0.01295352 -0.01350594 -0.01288181 1000 -0.01338377 -0.01299718 -0.01295352 -0.01350594 -0.01288181 1000 -0.01464872 -0.01458409 -0.01476485 -0.01456571 -0.01465957 1000 -0.01464872 -0.01458409 -0.01476485 -0.01456571 -0.01465957 1000
lala 4 1.2 1 first 17 1 27 6 4.380001 0.23999810218811 0 1 1 0 -0.01519509 -0.01545041 -0.01552458 1000 1000 1000 -0.01519509 -0.01545041 -0.01552458 1000 1000 1000 -0.01595356 -0.01562271 -0.01570222 -0.01578525 -0.01528252 1000 -0.01595356 -0.01562271 -0.01570222 -0.01578525 -0.01528252 1000
lala 5 1.2 1 second 17 1 28 6 3.180001 0.559997797012329 0 1 1 1 -0.01500557 -0.01499908 -0.01505247 -0.01467006 -0.01436006 1000 -0.01500557 -0.01499908 -0.01505247 -0.01467006 -0.01436006 1000 -0.01577581 -0.01629237 -0.01625853 -0.01623943 -0.01653957 1000 -0.01577581 -0.01629237 -0.01625853 -0.01623943 -0.01653957 1000
lala 1 1.2 1 first 13 1 29 4 5.32 0.499997854232788 0 1 1 1 -0.01434628 -0.01407551 -0.01474523 1000 1000 1000 -0.01434628 -0.01407551 -0.01474523 1000 1000 1000 -0.01618963 -0.01635348 -0.01658916 -0.01687266 -0.01775221 1000 -0.01618963 -0.01635348 -0.01658916 -0.01687266 -0.01775221 1000
lala 1 1.2 0 first 6 1 30 4 2.64 0.899997472763062 1 0 -1 0 -0.01774449 -0.01808436 -0.01813776 1000 1000 1000 -0.01774449 -0.01808436 -0.01813776 1000 1000 1000 -0.0186924 -0.01834647 -0.0186279 -0.01879685 -0.01895801 1000 -0.0186924 -0.01834647 -0.0186279 -0.01879685 -0.01895801 1000
lala 4 1.2 1 second 15 1 31 5 3.05 0.539997816085815 0 1 1 1 -0.02025452 -0.02055654 -0.02062894 -0.0202755 -0.02056413 1000 -0.02025452 -0.02055654 -0.02062894 -0.0202755 -0.02056413 1000 -0.02084341 -0.02106569 -0.02124112 -0.02161426 -0.02164811 1000 -0.02084341 -0.02106569 -0.02124112 -0.02161426 -0.02164811 1000
lala 1 1.2 1 first 3 1 32 5 6.65 0.359997987747192 -1 1 1 1 -0.02241398 -0.02245613 -0.02269174 1000 1000 1000 -0.02241398 -0.02245613 -0.02269174 1000 1000 1000 -0.02637933 -0.02663002 -0.02602337 -0.02610935 -0.0263739 1000 -0.02637933 -0.02663002 -0.02602337 -0.02610935 -0.0263739 1000
lala 3 1.2 1 second 8 1 33 5 1.65 0.679997682571411 1 0 1 0 -0.01436923 -0.01450442 -0.01402766 -0.01405759 -0.01399289 1000 -0.01436923 -0.01450442 -0.01402766 -0.01405759 -0.01399289 1000 -0.01482897 -0.01429875 -0.01464184 -0.0152013 -0.01461201 1000 -0.01482897 -0.01429875 -0.01464184 -0.0152013 -0.01461201 1000
lala 4 1.2 1 second 2 1 34 5 2.1 0.419997930526733 -1 0 1 1 -0.01447129 -0.01437804 -0.01398264 -0.01400373 -0.01440696 1000 -0.01447129 -0.01437804 -0.01398264 -0.01400373 -0.01440696 1000 -0.01507672 -0.01562554 -0.01593882 -0.01641951 -0.01637832 1000 -0.01507672 -0.01562554 -0.01593882 -0.01641951 -0.01637832 1000
lala 3 1.2 1 second 12 1 35 4 2.64 0.539997816085815 0 0 1 1 -0.01327936 -0.01364455 -0.01366834 -0.01297012 -0.01306192 1000 -0.01327936 -0.01364455 -0.01366834 -0.01297012 -0.01306192 1000 -0.01395071 -0.01387293 -0.01382681 -0.01391346 -0.01380639 1000 -0.01395071 -0.01387293 -0.01382681 -0.01391346 -0.01380639 1000
lala 5 1.2 0 first 2 1 36 5 1.65 1.63999700546265 -1 0 -1 0 -0.01586578 -0.01509326 -0.01516152 1000 1000 1000 -0.01586578 -0.01509326 -0.01516152 1000 1000 1000 -0.01557857 -0.01551655 -0.01505145 -0.01510254 -0.01500759 1000 -0.01557857 -0.01551655 -0.01505145 -0.01510254 -0.01500759 1000
lala 3 1.2 1 second 1 1 37 4 2.92 0.519997835159302 -1 1 1 1 -0.01712767 -0.01678272 -0.0165567 -0.01687345 -0.01670531 1000 -0.01712767 -0.01678272 -0.0165567 -0.01687345 -0.01670531 1000 -0.01583011 -0.01552486 -0.01590193 -0.01620764 -0.01622376 1000 -0.01583011 -0.01552486 -0.01590193 -0.01620764 -0.01622376 1000
lala 6 1.2 0 second 17 1 38 6 1.980001 0.639997720718384 0 1 -1 1 -0.01616777 -0.01623467 -0.01632062 -0.01645065 -0.01635518 1000 -0.01616777 -0.01623467 -0.01632062 -0.01645065 -0.01635518 1000 -0.01593268 -0.01590399 -0.01650554 -0.01671113 -0.01614371 1000 -0.01593268 -0.01590399 -0.01650554 -0.01671113 -0.01614371 1000
lala 1 1.2 1 first 11 1 39 6 7.98 0.339998006820679 1 1 1 0 -0.01617429 -0.01604316 -0.01631205 1000 1000 1000 -0.01617429 -0.01604316 -0.01631205 1000 1000 1000 -0.01576399 -0.01541996 -0.01548525 -0.01575188 -0.01526928 1000 -0.01576399 -0.01541996 -0.01548525 -0.01575188 -0.01526928 1000
lala 5 1.2 1 second 7 1 40 4 1.32 0.979997396469116 1 1 1 1 -0.01490166 -0.01463195 -0.01494733 -0.01499525 -0.0147969 1000 -0.01490166 -0.01463195 -0.01494733 -0.01499525 -0.0147969 1000 -0.01429972 -0.01456611 -0.01466497 -0.01474832 -0.01479482 1000 -0.01429972 -0.01456611 -0.01466497 -0.01474832 -0.01479482 1000
lala 2 1.2 1 second 6 1 41 4 3.84 0.299998044967651 1 0 1 1 -0.01480217 -0.01478325 -0.01501433 -0.01524544 -0.01566477 1000 -0.01480217 -0.01478325 -0.01501433 -0.01524544 -0.01566477 1000 -0.01640313 -0.01645717 -0.01633902 -0.01656557 -0.01706843 1000 -0.01640313 -0.01645717 -0.01633902 -0.01656557 -0.01706843 1000
lala 4 1.2 1 first 5 1 42 6 4.380001 0.359997987747192 -1 1 1 1 -0.01868109 -0.01798278 -0.01737088 1000 1000 1000 -0.01868109 -0.01798278 -0.01737088 1000 1000 1000 -0.01699198 -0.01675881 -0.01666925 -0.01663113 -0.01665587 1000 -0.01699198 -0.01675881 -0.01666925 -0.01663113 -0.01665587 1000
lala 3 1.2 1 second 10 1 43 6 3.96 0.219998121261597 1 0 1 1 -0.01881189 -0.01788316 -0.01742852 -0.01729056 -0.01734575 1000 -0.01881189 -0.01788316 -0.01742852 -0.01729056 -0.01734575 1000 -0.01689342 -0.0166639 -0.01682166 -0.01659014 -0.01630487 1000 -0.01689342 -0.0166639 -0.01682166 -0.01659014 -0.01630487 1000
lala 5 1.2 1 first 15 1 44 5 1.85 1.81999683380127 0 1 1 0 -0.01674904 -0.01684698 -0.01697579 1000 1000 1000 -0.01674904 -0.01684698 -0.01697579 1000 1000 1000 -0.01591589 -0.01560468 -0.0156154 -0.01551957 -0.01564481 1000 -0.01591589 -0.01560468 -0.0156154 -0.01551957 -0.01564481 1000
lala 4 1.2 0 first 8 1 45 5 1.65 0.859997510910034 1 0 -1 1 -0.01594447 -0.01568705 -0.01590915 1000 1000 1000 -0.01594447 -0.01568705 -0.01590915 1000 1000 1000 -0.0181457 -0.01846673 -0.01851476 -0.01782139 -0.01733677 1000 -0.0181457 -0.01846673 -0.01851476 -0.01782139 -0.01733677 1000
lala 2 1.2 1 first 11 1 46 6 6.780001 0.819997549057007 1 1 1 0 -0.01807821 -0.01885197 -0.02107752 1000 1000 1000 -0.01807821 -0.01885197 -0.02107752 1000 1000 1000 -0.02790307 -0.02712025 -0.02579687 -0.02485818 -0.02576631 1000 -0.02790307 -0.02712025 -0.02579687 -0.02485818 -0.02576631 1000
lala 6 1.2 0 second 7 1 47 4 1.32 0.479997873306274 1 1 -1 1 -0.0112122 -0.01064384 -0.01035223 -0.01023014 -0.009979524 1000 -0.0112122 -0.01064384 -0.01035223 -0.01023014 -0.009979524 1000 -0.009653885 -0.0094917 -0.009715967 -0.01003371 -0.009601339 1000 -0.009653885 -0.0094917 -0.009715967 -0.01003371 -0.009601339 1000
lala 3 1.2 1 first 11 1 48 6 5.580001 0.379997968673706 1 1 1 1 -0.009129231 -0.009504327 -0.009657543 1000 1000 1000 -0.009129231 -0.009504327 -0.009657543 1000 1000 1000 -0.007231019 -0.007382328 -0.007260255 -0.00734255 -0.006924901 1000 -0.007231019 -0.007382328 -0.007260255 -0.00734255 -0.006924901 1000
lala 2 1.2 1 first 16 1 49 6 2.76 0.679997682571411 0 0 1 0 -0.006259523 -0.00614999 -0.006613706 1000 1000 1000 -0.006259523 -0.00614999 -0.006613706 1000 1000 1000 -0.00648312 -0.006762994 -0.006920131 -0.006364677 -0.006352159 1000 -0.00648312 -0.006762994 -0.006920131 -0.006364677 -0.006352159 1000
lala 7 1.2 0 first 17 1 50 6 3.180001 0.659997701644897 0 1 -1 1 -0.01780747 -0.009372312 -0.003667109 -0.0009937446 -0.0003059284 -0.0002200184 -0.01780747 -0.009372312 -0.003667109 -0.0009937446 -0.0003059284 -0.0002200184 0.003150719 0.003013279 0.003082438 0.003510336 0.004024718 1000 0.003150719 0.003013279 0.003082438 0.003510336 0.004024718 1000
lala 8 1.2 1 first 17 1 51 6 4.380001 2.17999649047852 0 1 1 1 0.005734442 0.006045805 0.006415388 1000 1000 1000 0.005734442 0.006045805 0.006415388 1000 1000 1000 0.00691912 0.006941758 0.006871442 0.006839045 0.00678778 1000 0.00691912 0.006941758 0.006871442 0.006839045 0.00678778 1000
lala 1 1.2 1 second 9 1 52 5 6.65 0.839997529983521 1 1 1 0 0.009206593 0.008981719 0.008499064 0.008263654 0.007770058 1000 0.009206593 0.008981719 0.008499064 0.008263654 0.007770058 1000 0.0005836186 0.0006260902 0.0005555671 0.001568514 0.001396711 1000 0.0005836186 0.0006260902 0.0005555671 0.001568514 0.001396711 1000
lala 4 1.2 1 second 1 1 53 4 1.72 0.699997663497925 -1 1 1 1 0.001424484 0.001745052 0.00216057 0.001817805 0.001398833 1000 0.001424484 0.001745052 0.00216057 0.001817805 0.001398833 1000 0.0006731806 0.0002631645 0.000778879 0.0004406277 -0.0001893517 1000 0.0006731806 0.0002631645 0.000778879 0.0004406277 -0.0001893517 1000
lala 3 1.2 0 second 6 1 54 4 2.64 0.39999794960022 1 0 -1 0 2.78623E-06 -0.0003195372 -0.0003342418 -0.0002261692 -0.000650141 1000 2.78623E-06 -0.0003195372 -0.0003342418 -0.0002261692 -0.000650141 1000 -0.0009319982 -0.001546897 -0.001706518 -0.001759841 -0.002192139 1000 -0.0009319982 -0.001546897 -0.001706518 -0.001759841 -0.002192139 1000
lala 2 1.2 1 first 3 1 55 5 5.45 1.51999688148499 -1 1 1 1 -0.002096495 -0.002596193 -0.002308386 1000 1000 1000 -0.002096495 -0.002596193 -0.002308386 1000 1000 1000 -0.002484824 -0.002624403 -0.002737604 -0.002418356 -0.002724039 1000 -0.002484824 -0.002624403 -0.002737604 -0.002418356 -0.002724039 1000
lala 3 1.2 0 first 16 1 56 6 1.98 0.339998006820679 0 0 -1 0 -0.002005934 -0.001622151 -0.001757945 1000 1000 1000 -0.002005934 -0.001622151 -0.001757945 1000 1000 1000 -0.002242011 -0.001684726 -0.001895137 -0.001922374 -0.001072855 1000 -0.002242011 -0.001684726 -0.001895137 -0.001922374 -0.001072855 1000
lala 5 1.2 1 second 8 1 57 5 2.85 0.339998006820679 1 0 1 0 -0.0001773685 -0.0006967579 -0.0009149375 -0.0007649518 -0.0005012907 1000 -0.0001773685 -0.0006967579 -0.0009149375 -0.0007649518 -0.0005012907 1000 -0.0005553529 -0.0007123162 -0.0006398411 -0.001018849 -0.00153523 1000 -0.0005553529 -0.0007123162 -0.0006398411 -0.001018849 -0.00153523 1000
lala 1 1.2 0 first 4 1 58 6 3.96 0.819997549057007 -1 0 -1 0 -0.001549191 -0.001523725 -0.001078531 1000 1000 1000 -0.001549191 -0.001523725 -0.001078531 1000 1000 1000 -0.0008889968 -0.00155385 -0.001269742 -0.0007738074 -0.0006577896 1000 -0.0008889968 -0.00155385 -0.001269742 -0.0007738074 -0.0006577896 1000
lala 5 1.2 1 second 1 1 59 4 1.32 0.339998006820679 -1 1 1 0 -0.002543735 -0.002182125 -0.002095797 -0.001915042 -0.001455653 1000 -0.002543735 -0.002182125 -0.002095797 -0.001915042 -0.001455653 1000 -0.0004383493 -0.0006069891 -0.0002921196 5.323162E-05 -4.996402E-05 1000 -0.0004383493 -0.0006069891 -0.0002921196 5.323162E-05 -4.996402E-05 1000
lala 2 1.2 1 first 9 1 60 5 5.45 1.99999666213989 1 1 1 0 0.0006916475 0.0006373969 0.0005074902 1000 1000 1000 0.0006916475 0.0006373969 0.0005074902 1000 1000 1000 0.0006133734 0.0008439349 0.0009958108 0.001256891 0.00131792 1000 0.0006133734 0.0008439349 0.0009958108 0.001256891 0.00131792 1000
lala 6 1.2 0 first 15 1 61 5 1.65 0.499997854232788 0 1 -1 1 0.01115345 0.01194979 0.01150139 1000 1000 1000 0.01115345 0.01194979 0.01150139 1000 1000 1000 0.003650856 0.003707505 0.003667672 0.003400001 0.003505089 1000 0.003650856 0.003707505 0.003667672 0.003400001 0.003505089 1000
lala 3 1.2 1 second 9 1 62 5 4.25 0.199998140335083 1 1 1 0 0.006008771 0.007593547 0.008515635 0.007586559 0.006856911 1000 0.006008771 0.007593547 0.008515635 0.007586559 0.006856911 1000 0.005814905 0.005579473 0.006131932 0.006135041 0.006497603 1000 0.005814905 0.005579473 0.006131932 0.006135041 0.006497603 1000
lala 4 1.2 1 first 10 1 63 6 2.76 2.77999591827393 1 0 1 1 0.008052305 0.007873659 0.007972382 1000 1000 1000 0.008052305 0.007873659 0.007972382 1000 1000 1000 0.008500223 0.008316298 0.008082722 0.007847616 0.008173398 1000 0.008500223 0.008316298 0.008082722 0.007847616 0.008173398 1000
lala 4 1.2 1 first 11 1 64 6 4.380001 0.39999794960022 1 1 1 0 0.0100061 0.009549219 0.008544335 1000 1000 1000 0.0100061 0.009549219 0.008544335 1000 1000 1000 0.005013744 0.005036344 0.005087142 0.005311759 0.005080381 1000 0.005013744 0.005036344 0.005087142 0.005311759 0.005080381 1000
lala 4 1.2 1 first 16 1 65 6 3.18 0.199998140335083 0 0 1 1 0.00257177 0.003193887 0.003380678 1000 1000 1000 0.00257177 0.003193887 0.003380678 1000 1000 1000 0.002676563 0.003176152 0.004008799 0.003788896 0.003697753 1000 0.002676563 0.003176152 0.004008799 0.003788896 0.003697753 1000
lala 2 1.2 1 first 0 1 66 4 1.44 0.739997625350952 -1 0 1 0 0.003537239 0.002899827 0.002235843 1000 1000 1000 0.003537239 0.002899827 0.002235843 1000 1000 1000 -0.004032242 -0.004493731 -0.004939127 -0.005319542 -0.005465293 1000 -0.004032242 -0.004493731 -0.004939127 -0.005319542 -0.005465293 1000
lala 7 1.2 1 first 7 1 67 4 2.52 2.159996509552 1 1 1 1 -0.00625485 -0.006609487 -0.006876663 1000 1000 1000 -0.00625485 -0.006609487 -0.006876663 1000 1000 1000 -0.008217427 -0.008503614 -0.008747871 -0.009104212 -0.009517989 1000 -0.008217427 -0.008503614 -0.008747871 -0.009104212 -0.009517989 1000
lala 5 1.2 1 first 10 1 68 6 1.98 0.61999773979187 1 0 1 0 -0.01453971 -0.01520288 -0.01523149 1000 1000 1000 -0.01453971 -0.01520288 -0.01523149 1000 1000 1000 -0.01751772 -0.01720683 -0.01684459 -0.01710649 -0.01727222 1000 -0.01751772 -0.01720683 -0.01684459 -0.01710649 -0.01727222 1000
lala 3 1.2 1 second 0 1 69 4 1.32 0.259998083114624 -1 0 1 0 -0.01784454 -0.01851649 -0.01875244 -0.01898191 -0.01885858 1000 -0.01784454 -0.01851649 -0.01875244 -0.01898191 -0.01885858 1000 -0.01885127 -0.01850436 -0.01861395 -0.01793794 -0.01784339 1000 -0.01885127 -0.01850436 -0.01861395 -0.01793794 -0.01784339 1000
lala 6 1.2 0 first 8 1 70 5 1.65 0.259998083114624 1 0 -1 1 -0.01816533 -0.01842522 -0.01903288 1000 1000 1000 -0.01816533 -0.01842522 -0.01903288 1000 1000 1000 -0.02091593 -0.02076069 -0.02070792 -0.02037287 -0.01975827 1000 -0.02091593 -0.02076069 -0.02070792 -0.02037287 -0.01975827 1000
lala 5 1.2 0 first 5 1 71 6 3.180001 0.599997758865356 -1 1 -1 0 -0.02103016 -0.02120196 -0.02108649 1000 1000 1000 -0.02103016 -0.02120196 -0.02108649 1000 1000 1000 -0.02150584 -0.02158114 -0.02131624 -0.02138967 -0.02199188 1000 -0.02150584 -0.02158114 -0.02131624 -0.02138967 -0.02199188 1000
lala 4 1.2 0 second 0 1 72 4 1.32 0.479997873306274 -1 0 -1 0 -0.02103708 -0.02182436 -0.02223919 -0.0218389 -0.02197398 1000 -0.02103708 -0.02182436 -0.02223919 -0.0218389 -0.02197398 1000 -0.02215384 -0.02248138 -0.02251144 -0.02258403 -0.02239836 1000 -0.02215384 -0.02248138 -0.02251144 -0.02258403 -0.02239836 1000
lala 7 1.2 1 first 8 1 73 5 2.85 1.11999726295471 1 0 1 1 -0.0211799 -0.0207223 -0.02057649 1000 1000 1000 -0.0211799 -0.0207223 -0.02057649 1000 1000 1000 -0.02110385 -0.02155285 -0.02127033 -0.02153102 -0.02212953 1000 -0.02110385 -0.02155285 -0.02127033 -0.02153102 -0.02212953 1000
lala 1 1.2 1 second 14 1 74 5 3.3 0.759997606277466 0 0 1 0 -0.02266203 -0.02210921 -0.02209891 -0.02223294 -0.02213607 1000 -0.02266203 -0.02210921 -0.02209891 -0.02223294 -0.02213607 1000 -0.02287126 -0.02243546 -0.02224787 -0.02265156 -0.02241179 1000 -0.02287126 -0.02243546 -0.02224787 -0.02265156 -0.02241179 1000
lala 6 1.2 0 second 1 1 75 4 1.32 0.499997854232788 -1 1 -1 1 -0.02091906 -0.02128833 -0.02128954 -0.02141839 -0.02129502 1000 -0.02091906 -0.02128833 -0.02128954 -0.02141839 -0.02129502 1000 -0.02206301 -0.02224836 -0.02264986 -0.02230876 -0.02247831 1000 -0.02206301 -0.02224836 -0.02264986 -0.02230876 -0.02247831 1000
lala 2 1.2 0 second 14 1 76 5 2.1 0.359997987747192 0 0 -1 0 -0.02039687 -0.02013467 -0.02036104 -0.02068927 -0.02076408 1000 -0.02039687 -0.02013467 -0.02036104 -0.02068927 -0.02076408 1000 -0.02227057 -0.02231717 -0.02267132 -0.02350942 -0.02317788 1000 -0.02227057 -0.02231717 -0.02267132 -0.02350942 -0.02317788 1000
lala 6 1.2 1 second 5 1 77 6 4.380001 0.439997911453247 -1 1 1 0 -0.02083537 -0.02068889 -0.02101037 -0.02095746 -0.02063908 1000 -0.02083537 -0.02068889 -0.02101037 -0.02095746 -0.02063908 1000 -0.02125604 -0.02137543 -0.02206092 -0.02248272 -0.02280602 1000 -0.02125604 -0.02137543 -0.02206092 -0.02248272 -0.02280602 1000
lala 6 1.2 1 first 2 1 78 5 2.85 0.779997587203979 -1 0 1 1 -0.02173441 -0.02193949 -0.02164257 1000 1000 1000 -0.02173441 -0.02193949 -0.02164257 1000 1000 1000 -0.02254306 -0.02288041 -0.02326448 -0.02291258 -0.02321943 1000 -0.02254306 -0.02288041 -0.02326448 -0.02291258 -0.02321943 1000
lala 6 1.2 1 first 10 1 79 6 1.98 2.7399959564209 1 0 1 1 -0.02177416 -0.0216941 -0.02109163 1000 1000 1000 -0.02177416 -0.0216941 -0.02109163 1000 1000 1000 -0.02035839 -0.02074237 -0.02029212 -0.02009344 -0.02020996 1000 -0.02035839 -0.02074237 -0.02029212 -0.02009344 -0.02020996 1000
lala 5 1.2 1 second 16 1 80 6 1.98 0.499997854232788 0 0 1 0 -0.01633445 -0.01629297 -0.01573424 -0.01592669 -0.01619001 1000 -0.01633445 -0.01629297 -0.01573424 -0.01592669 -0.01619001 1000 -0.01701273 -0.01742117 -0.01730731 -0.01674911 -0.01578042 1000 -0.01701273 -0.01742117 -0.01730731 -0.01674911 -0.01578042 1000
lala 7 1.2 1 second 15 1 81 5 2.85 0.319998025894165 0 1 1 1 -0.01487545 -0.01497615 -0.01511064 -0.01500996 -0.01529664 1000 -0.01487545 -0.01497615 -0.01511064 -0.01500996 -0.01529664 1000 -0.01646914 -0.01641819 -0.01582494 -0.01513258 -0.01514577 1000 -0.01646914 -0.01641819 -0.01582494 -0.01513258 -0.01514577 1000
lala 3 1.2 1 first 14 1 82 5 3.3 1.73999691009521 0 0 1 0 -0.01418549 -0.01408067 -0.01394594 1000 1000 1000 -0.01418549 -0.01408067 -0.01394594 1000 1000 1000 -0.01304162 -0.0134626 -0.01374821 -0.01348706 -0.01325019 1000 -0.01304162 -0.0134626 -0.01374821 -0.01348706 -0.01325019 1000
lala 8 1.2 0 first 8 1 83 5 1.65 1.23999714851379 1 0 -1 0 -0.01234196 -0.01227579 -0.01213161 1000 1000 1000 -0.01234196 -0.01227579 -0.01213161 1000 1000 1000 -0.01500472 -0.0145536 -0.01413489 -0.01360527 -0.01353761 1000 -0.01500472 -0.0145536 -0.01413489 -0.01360527 -0.01353761 1000
lala 9 1.2 1 first 17 1 84 6 3.180001 1.11999726295471 0 1 1 0 -0.01171188 -0.01098545 -0.01113656 1000 1000 1000 -0.01171188 -0.01098545 -0.01113656 1000 1000 1000 -0.01347063 -0.01359396 -0.01260567 -0.0119999 -0.01174531 1000 -0.01347063 -0.01359396 -0.01260567 -0.0119999 -0.01174531 1000
lala 7 1.2 1 second 5 1 85 6 3.180001 1.59999680519104 -1 1 1 0 -0.01080316 -0.01075332 -0.01193675 -0.01126922 -0.007820913 1000 -0.01080316 -0.01075332 -0.01193675 -0.01126922 -0.007820913 1000 0.03316255 0.03932627 0.04485331 0.04634025 0.0431115 1000 0.03316255 0.03932627 0.04485331 0.04634025 0.0431115 1000
lala 2 1.2 1 second 13 1 86 4 4.12 0.01999831199646 0 1 1 0 -0.001520138 -0.003075699 -0.003444474 -0.004860253 -0.006169751 1000 -0.001520138 -0.003075699 -0.003444474 -0.004860253 -0.006169751 1000 -0.008870299 -0.009991782 -0.01318959 -0.01452787 -0.0122431 1000 -0.008870299 -0.009991782 -0.01318959 -0.01452787 -0.0122431 1000
lala 4 1.2 1 first 6 1 87 4 3.84 2.23999643325806 1 0 1 1 -0.007736637 -0.007358965 -0.006290176 1000 1000 1000 -0.007736637 -0.007358965 -0.006290176 1000 1000 1000 -0.007124645 -0.006822368 -0.006695898 -0.006104592 -0.006893061 1000 -0.007124645 -0.006822368 -0.006695898 -0.006104592 -0.006893061 1000
lala 5 1.2 1 second 6 1 88 4 2.64 0.259998083114624 1 0 1 0 -0.009225344 -0.01031499 -0.01097905 -0.01166994 -0.01133195 1000 -0.009225344 -0.01031499 -0.01097905 -0.01166994 -0.01133195 1000 -0.01145714 -0.01137127 -0.01127726 -0.01087147 -0.01087735 1000 -0.01145714 -0.01137127 -0.01127726 -0.01087147 -0.01087735 1000
lala 7 1.2 1 second 1 1 89 4 2.52 0.23999810218811 -1 1 1 1 -0.00944163 -0.009486431 -0.009456167 -0.009498506 -0.009196366 1000 -0.00944163 -0.009486431 -0.009456167 -0.009498506 -0.009196366 1000 -0.008589959 -0.008381214 -0.008710913 -0.008664591 -0.008268132 1000 -0.008589959 -0.008381214 -0.008710913 -0.008664591 -0.008268132 1000
lala 7 1.2 1 first 2 1 90 5 1.65 1.11999726295471 -1 0 1 0 -0.01096828 -0.01044591 -0.01025684 1000 1000 1000 -0.01096828 -0.01044591 -0.01025684 1000 1000 1000 -0.008891334 -0.0085998 -0.008975547 -0.009174405 -0.009181893 1000 -0.008891334 -0.0085998 -0.008975547 -0.009174405 -0.009181893 1000
lala 3 1.2 1 second 13 1 91 4 2.92 0.379997968673706 0 1 1 1 -0.01287766 -0.01365406 -0.01371156 -0.01323684 -0.01347252 1000 -0.01287766 -0.01365406 -0.01371156 -0.01323684 -0.01347252 1000 -0.01236008 -0.0122797 -0.01202355 -0.01193021 -0.012048 1000 -0.01236008 -0.0122797 -0.01202355 -0.01193021 -0.012048 1000
lala 8 1.2 1 second 15 1 92 5 1.65 0.23999810218811 0 1 1 1 -0.01212127 -0.01145007 -0.01128327 -0.01136407 -0.01141822 1000 -0.01212127 -0.01145007 -0.01128327 -0.01136407 -0.01141822 1000 -0.01113654 -0.01100398 -0.01074319 -0.01102222 -0.01109332 1000 -0.01113654 -0.01100398 -0.01074319 -0.01102222 -0.01109332 1000
lala 8 1.2 0 second 2 1 93 5 1.65 0.319998025894165 -1 0 -1 1 -0.0117844 -0.01250152 -0.01280051 -0.01304962 -0.01276491 1000 -0.0117844 -0.01250152 -0.01280051 -0.01304962 -0.01276491 1000 -0.01151978 -0.01097271 -0.01110595 -0.01143266 -0.0108696 1000 -0.01151978 -0.01097271 -0.01110595 -0.01143266 -0.0108696 1000
lala 4 1.2 1 second 9 1 94 5 3.05 0.299998044967651 1 1 1 0 -0.01097314 -0.0113491 -0.01125921 -0.0115986 -0.01222698 1000 -0.01097314 -0.0113491 -0.01125921 -0.0115986 -0.01222698 1000 -0.01051738 -0.01053384 -0.01063201 -0.01021746 -0.009927298 1000 -0.01051738 -0.01053384 -0.01063201 -0.01021746 -0.009927298 1000
lala 8 1.2 1 first 7 1 95 4 1.32 0.859997510910034 1 1 1 1 -0.01020854 -0.009933739 -0.009590682 1000 1000 1000 -0.01020854 -0.009933739 -0.009590682 1000 1000 1000 -0.01232141 -0.01161126 -0.01130301 -0.01128526 -0.01110685 1000 -0.01232141 -0.01161126 -0.01130301 -0.01128526 -0.01110685 1000
lala 2 1.2 1 second 4 1 96 6 5.16 0.539997816085815 -1 0 1 0 -0.0108633 -0.01089778 -0.01130369 -0.01168109 -0.0113796 1000 -0.0108633 -0.01089778 -0.01130369 -0.01168109 -0.0113796 1000 -0.01052371 -0.0098426 -0.0107915 -0.01139007 -0.01156624 1000 -0.01052371 -0.0098426 -0.0107915 -0.01139007 -0.01156624 1000
lala 8 1.2 0 first 1 1 97 4 1.32 0.459997892379761 -1 1 -1 1 -0.01176706 -0.01143089 -0.0116505 1000 1000 1000 -0.01176706 -0.01143089 -0.0116505 1000 1000 1000 -0.0114652 -0.01165603 -0.01198298 -0.01194136 -0.01143383 1000 -0.0114652 -0.01165603 -0.01198298 -0.01194136 -0.01143383 1000
lala 5 1.2 0 first 11 1 98 6 3.180001 1.79999685287476 1 1 -1 1 -0.01146062 -0.01107979 -0.01112242 1000 1000 1000 -0.01146062 -0.01107979 -0.01112242 1000 1000 1000 -0.0127964 -0.01306801 -0.01319428 -0.01370703 -0.01455908 1000 -0.0127964 -0.01306801 -0.01319428 -0.01370703 -0.01455908 1000
lala 9 1.2 1 second 8 1 99 5 2.85 1.11999726295471 1 0 1 1 -0.01403901 -0.01402891 -0.01337985 -0.01372789 -0.01397166 1000 -0.01403901 -0.01402891 -0.01337985 -0.01372789 -0.01397166 1000 -0.01485652 -0.01454897 -0.01455334 -0.01419207 -0.01380913 1000 -0.01485652 -0.01454897 -0.01455334 -0.01419207 -0.01380913 1000
lala 9 1.2 0 first 15 1 100 5 1.65 0.819997549057007 0 1 -1 1 -0.01342728 0.0003155008 0.009681014 0.01336914 0.01337104 0.01151654 -0.01342728 0.0003155008 0.009681014 0.01336914 0.01337104 0.01151654 -0.01123029 -0.01197397 -0.0122363 -0.01411243 -0.01614553 1000 -0.01123029 -0.01197397 -0.0122363 -0.01411243 -0.01614553 1000
lala 4 1.2 1 first 12 1 101 4 1.44 0.339998006820679 0 0 1 1 -0.01913201 -0.0199229 -0.01935613 1000 1000 1000 -0.01913201 -0.0199229 -0.01935613 1000 1000 1000 -0.02392244 -0.02408375 -0.02414791 -0.02384106 -0.02428451 1000 -0.02392244 -0.02408375 -0.02414791 -0.02384106 -0.02428451 1000
lala 3 1.2 1 first 3 1 102 5 4.25 0.959997415542603 -1 1 1 0 -0.02504844 -0.02478745 -0.02467037 1000 1000 1000 -0.02504844 -0.02478745 -0.02467037 1000 1000 1000 -0.01055603 -0.009768608 -0.009369242 -0.008487799 -0.008137362 1000 -0.01055603 -0.009768608 -0.009369242 -0.008487799 -0.008137362 1000
lala 10 1.2 1 second 17 1 103 6 1.980001 0.339998006820679 0 1 1 1 -0.006501569 -0.006610519 -0.00687948 -0.00698959 -0.006891716 1000 -0.006501569 -0.006610519 -0.00687948 -0.00698959 -0.006891716 1000 -0.009675219 -0.009602571 -0.009514653 -0.009070057 -0.009322199 1000 -0.009675219 -0.009602571 -0.009514653 -0.009070057 -0.009322199 1000
lala 11 2.4 1 first 17 1 104 6 1.98 0.599997758865356 0 1 1 1 -0.008855105 -0.009181765 -0.009131818 1000 1000 1000 -0.008855105 -0.009181765 -0.009131818 1000 1000 1000 -0.01156258 -0.01192663 -0.01151866 -0.01149362 -0.01102326 1000 -0.01156258 -0.01192663 -0.01151866 -0.01149362 -0.01102326 1000
lala 6 1.2 1 second 11 1 105 6 4.380001 0.299998044967651 1 1 1 0 -0.010879 -0.01095545 -0.01098134 -0.01096006 -0.01118675 1000 -0.010879 -0.01095545 -0.01098134 -0.01096006 -0.01118675 1000 -0.01101644 -0.0120737 -0.01301224 -0.01303303 -0.01346084 1000 -0.01101644 -0.0120737 -0.01301224 -0.01303303 -0.01346084 1000
lala 9 1.2 1 second 7 1 106 4 1.32 0.659997701644897 1 1 1 1 -0.0129592 -0.01303522 -0.0128366 -0.0121687 -0.01203765 1000 -0.0129592 -0.01303522 -0.0128366 -0.0121687 -0.01203765 1000 -0.01151795 -0.01182227 -0.0120885 -0.01212461 -0.012282 1000 -0.01151795 -0.01182227 -0.0120885 -0.01212461 -0.012282 1000
lala 9 1.2 1 second 1 1 107 4 2.52 0.359997987747192 -1 1 1 1 -0.01243713 -0.01248069 -0.01235571 -0.01211267 -0.01214245 1000 -0.01243713 -0.01248069 -0.01235571 -0.01211267 -0.01214245 1000 -0.01177138 -0.01212966 -0.01174904 -0.01148288 -0.01179542 1000 -0.01177138 -0.01212966 -0.01174904 -0.01148288 -0.01179542 1000
lala 7 1.2 1 first 10 1 108 6 1.98 1.7199969291687 1 0 1 1 -0.01265656 -0.01303162 -0.01314212 1000 1000 1000 -0.01265656 -0.01303162 -0.01314212 1000 1000 1000 -0.01331956 -0.01367314 -0.01364155 -0.01394183 -0.01411113 1000 -0.01331956 -0.01367314 -0.01364155 -0.01394183 -0.01411113 1000
lala 5 1.2 0 first 12 1 109 4 1.32 0.839997529983521 0 0 -1 1 -0.01528873 -0.01482174 -0.01498694 1000 1000 1000 -0.01528873 -0.01482174 -0.01498694 1000 1000 1000 -0.01317718 -0.01305884 -0.01290737 -0.01292473 -0.01303537 1000 -0.01317718 -0.01305884 -0.01290737 -0.01292473 -0.01303537 1000
lala 10 2.4 1 second 7 1 110 4 1.32 0.139998197555542 1 1 1 1 -0.01445179 -0.01434541 -0.01410384 -0.01351601 -0.01343428 1000 -0.01445179 -0.01434541 -0.01410384 -0.01351601 -0.01343428 1000 -0.01196264 -0.01226375 -0.01175012 -0.01153951 -0.01054859 1000 -0.01196264 -0.01226375 -0.01175012 -0.01153951 -0.01054859 1000
lala 10 0.6 1 first 15 1 111 5 2.25 1.11999726295471 0 1 1 0 -0.006331956 -0.00658749 -0.006366725 1000 1000 1000 -0.006331956 -0.00658749 -0.006366725 1000 1000 1000 -0.006181461 -0.007172758 -0.007155727 -0.006961344 -0.006540406 1000 -0.006181461 -0.007172758 -0.007155727 -0.006961344 -0.006540406 1000
lala 12 4.8 1 second 17 1 112 6 1.98 0.219998121261597 0 1 1 1 -0.007348932 -0.007684104 -0.007873333 -0.008387371 -0.009127513 1000 -0.007348932 -0.007684104 -0.007873333 -0.008387371 -0.009127513 1000 -0.008715591 -0.008553132 -0.007994032 -0.008010533 -0.007898534 1000 -0.008715591 -0.008553132 -0.007994032 -0.008010533 -0.007898534 1000
lala 9 1.2 1 first 2 1 113 5 2.85 0.759997606277466 -1 0 1 0 -0.006604919 -0.006493982 -0.006197742 1000 1000 1000 -0.006604919 -0.006493982 -0.006197742 1000 1000 1000 -0.007436849 -0.007153031 -0.007372908 -0.007612523 -0.007926335 1000 -0.007436849 -0.007153031 -0.007372908 -0.007612523 -0.007926335 1000
lala 6 1.2 1 second 6 1 114 4 1.44 0.459997892379761 1 0 1 1 -0.006182422 -0.006052288 -0.006150308 -0.006376494 -0.005387306 1000 -0.006182422 -0.006052288 -0.006150308 -0.006376494 -0.005387306 1000 -0.007407549 -0.006847048 -0.006868389 -0.00727063 -0.007771583 1000 -0.007407549 -0.006847048 -0.006868389 -0.00727063 -0.007771583 1000
lala 5 1.2 1 first 0 1 115 4 2.52 0.359997987747192 -1 0 1 1 -0.00742805 -0.007588545 -0.00736144 1000 1000 1000 -0.00742805 -0.007588545 -0.00736144 1000 1000 1000 -0.005636281 -0.005749576 -0.005767458 -0.006064189 -0.006483272 1000 -0.005636281 -0.005749576 -0.005767458 -0.006064189 -0.006483272 1000
lala 4 1.2 1 second 3 1 116 5 3.05 0.299998044967651 -1 1 1 0 -0.008428211 -0.008311703 -0.007660073 -0.007364095 -0.007365837 1000 -0.008428211 -0.008311703 -0.007660073 -0.007364095 -0.007365837 1000 -0.00615499 -0.005641997 -0.005523669 -0.00564997 -0.005827169 1000 -0.00615499 -0.005641997 -0.005523669 -0.00564997 -0.005827169 1000
lala 10 0.6 1 first 8 1 117 5 2.25 0.01999831199646 1 0 1 0 -0.006038982 -0.006223473 -0.006328974 1000 1000 1000 -0.006038982 -0.006223473 -0.006328974 1000 1000 1000 -0.006223058 -0.005958431 -0.005585255 -0.005767998 -0.005331205 1000 -0.006223058 -0.005958431 -0.005585255 -0.005767998 -0.005331205 1000
lala 10 0.6 1 first 1 1 118 4 1.92 0.319998025894165 -1 1 1 1 -0.005171788 -0.005249633 -0.00545222 1000 1000 1000 -0.005171788 -0.005249633 -0.00545222 1000 1000 1000 -0.008123931 -0.007920261 -0.008446501 -0.008756666 -0.008676157 1000 -0.008123931 -0.007920261 -0.008446501 -0.008756666 -0.008676157 1000
lala 10 0.6 1 first 2 1 119 5 2.25 1.73999691009521 -1 0 1 1 -0.006930344 -0.006404385 -0.006413152 1000 1000 1000 -0.006930344 -0.006404385 -0.006413152 1000 1000 1000 0.006586359 0.02314201 0.03064496 0.0363577 0.04324826 1000 0.006586359 0.02314201 0.03064496 0.0363577 0.04324826 1000
lala 8 1.2 0 first 5 1 120 6 1.980001 0.519997835159302 -1 1 -1 1 -0.01852187 -0.01865293 -0.01839348 1000 1000 1000 -0.01852187 -0.01865293 -0.01839348 1000 1000 1000 -0.02248587 -0.02291462 -0.02274117 -0.02309336 -0.02253678 1000 -0.02248587 -0.02291462 -0.02274117 -0.02309336 -0.02253678 1000
lala 6 1.2 0 first 16 1 121 6 1.98 1.15999722480774 0 0 -1 0 -0.02333413 -0.02440139 -0.02601663 1000 1000 1000 -0.02333413 -0.02440139 -0.02601663 1000 1000 1000 -0.02672593 -0.0264377 -0.0262573 -0.02619508 -0.02567415 1000 -0.02672593 -0.0264377 -0.0262573 -0.02619508 -0.02567415 1000
lala 4 1.2 1 first 13 1 122 4 1.72 0.579997777938843 0 1 1 1 -0.02194013 -0.02187586 -0.02171624 1000 1000 1000 -0.02194013 -0.02187586 -0.02171624 1000 1000 1000 -0.02131809 -0.02145932 -0.02162099 -0.02187403 -0.02185687 1000 -0.02131809 -0.02145932 -0.02162099 -0.02187403 -0.02185687 1000
lala 7 1.2 1 second 16 1 123 6 3.18 0.61999773979187 0 0 1 0 -0.02204692 -0.02240797 -0.02250071 -0.02240285 -0.02199519 1000 -0.02204692 -0.02240797 -0.02250071 -0.02240285 -0.02199519 1000 -0.01995977 -0.01847986 -0.01662041 -0.01451528 -0.01276021 1000 -0.01995977 -0.01847986 -0.01662041 -0.01451528 -0.01276021 1000
lala 11 0.6 1 first 2 1 124 5 1.65 0.659997701644897 -1 0 1 0 -0.01777934 -0.01790351 -0.01856215 1000 1000 1000 -0.01777934 -0.01790351 -0.01856215 1000 1000 1000 -0.02362092 -0.01446161 -0.009344012 -0.007076782 -0.007142286 1000 -0.02362092 -0.01446161 -0.009344012 -0.007076782 -0.007142286 1000
lala 6 1.2 1 first 0 1 125 4 1.32 1.13999724388123 -1 0 1 1 -0.006397703 -0.005974416 -0.005573778 1000 1000 1000 -0.006397703 -0.005974416 -0.005573778 1000 1000 1000 -0.005171307 -0.004504057 -0.0043403 -0.004497349 -0.004659024 1000 -0.005171307 -0.004504057 -0.0043403 -0.004497349 -0.004659024 1000
lala 13 9.6 1 second 17 1 126 6 1.98 2.19999647140503 0 1 1 1 -0.007287478 -0.008158132 -0.008270076 -0.009186342 -0.008844932 1000 -0.007287478 -0.008158132 -0.008270076 -0.009186342 -0.008844932 1000 0.01230269 0.01257987 0.01078509 0.006822974 0.001894524 1000 0.01230269 0.01257987 0.01078509 0.006822974 0.001894524 1000
lala 14 19.2 1 second 17 1 127 6 1.98 0.759997606277466 0 1 1 1 -0.01471618 -0.01408895 -0.01402173 -0.01338754 -0.0139337 1000 -0.01471618 -0.01408895 -0.01402173 -0.01338754 -0.0139337 1000 -0.01683341 -0.01674313 -0.01714567 -0.0171802 -0.01714321 1000 -0.01683341 -0.01674313 -0.01714567 -0.0171802 -0.01714321 1000
lala 15 38.4 1 second 17 1 128 6 1.98 0.23999810218811 0 1 1 0 -0.02287709 -0.02313492 -0.02340211 -0.02359314 -0.02372283 1000 -0.02287709 -0.02313492 -0.02340211 -0.02359314 -0.02372283 1000 -0.02736766 -0.02812314 -0.0284302 -0.02793952 -0.02762491 1000 -0.02736766 -0.02812314 -0.0284302 -0.02793952 -0.02762491 1000
lala 7 1.2 1 first 11 1 129 6 3.180001 1.95999670028687 1 1 1 0 -0.01943032 -0.01384963 -0.01034199 1000 1000 1000 -0.01943032 -0.01384963 -0.01034199 1000 1000 1000 -0.009970115 -0.01086719 -0.01092957 -0.01110806 -0.01160155 1000 -0.009970115 -0.01086719 -0.01092957 -0.01110806 -0.01160155 1000
lala 7 1.2 1 second 6 1 130 4 1.32 0.39999794960022 1 0 1 1 -0.01259468 -0.01330293 -0.01341091 -0.01369834 -0.01409831 1000 -0.01259468 -0.01330293 -0.01341091 -0.01369834 -0.01409831 1000 -0.01660987 -0.01814916 -0.01793899 -0.01829366 -0.01801848 1000 -0.01660987 -0.01814916 -0.01793899 -0.01829366 -0.01801848 1000
lala 8 1.2 1 first 11 1 131 6 1.980001 0.319998025894165 1 1 1 0 -0.01679574 -0.01701863 -0.01623245 1000 1000 1000 -0.01679574 -0.01701863 -0.01623245 1000 1000 1000 -0.01414617 -0.01447858 -0.01438404 -0.01474476 -0.01442723 1000 -0.01414617 -0.01447858 -0.01438404 -0.01474476 -0.01442723 1000
lala 16 76.8 1 first 17 1 132 6 1.98 1.41999697685242 0 1 1 0 -0.01189729 -0.01160142 -0.01112518 1000 1000 1000 -0.01189729 -0.01160142 -0.01112518 1000 1000 1000 -0.00945655 -0.00979143 -0.009942549 -0.009904413 -0.009710843 1000 -0.00945655 -0.00979143 -0.009942549 -0.009904413 -0.009710843 1000
lala 7 1.2 1 second 0 1 133 4 1.32 0.839997529983521 -1 0 1 1 -0.004349538 -0.004479663 -0.004188617 -0.00430373 -0.004299857 1000 -0.004349538 -0.004479663 -0.004188617 -0.00430373 -0.004299857 1000 -0.006173622 -0.008332706 -0.01011858 -0.01107829 -0.01201441 1000 -0.006173622 -0.008332706 -0.01011858 -0.01107829 -0.01201441 1000
lala 17 153.6 1 second 17 1 134 6 1.98 0.319998025894165 0 1 1 1 -0.007798767 -0.007668738 -0.006819514 -0.006649646 -0.007249348 1000 -0.007798767 -0.007668738 -0.006819514 -0.006649646 -0.007249348 1000 -0.009090311 -0.009447562 -0.00958962 -0.009719407 -0.009673484 1000 -0.009090311 -0.009447562 -0.00958962 -0.009719407 -0.009673484 1000
lala 9 1.2 1 second 11 1 135 6 1.98 0.359997987747192 1 1 1 1 -0.008377319 -0.008440826 -0.008565191 -0.008369248 -0.007556634 1000 -0.008377319 -0.008440826 -0.008565191 -0.008369248 -0.007556634 1000 -0.008051258 -0.007587383 -0.007495041 -0.007249382 -0.007228089 1000 -0.008051258 -0.007587383 -0.007495041 -0.007249382 -0.007228089 1000
lala 3 1.2 1 second 4 1 136 6 3.96 0.459997892379761 -1 0 1 1 -0.008240148 -0.008865714 -0.008271993 -0.007290482 -0.007027621 1000 -0.008240148 -0.008865714 -0.008271993 -0.007290482 -0.007027621 1000 -0.006445815 -0.006316232 -0.006461246 -0.006334163 -0.005907392 1000 -0.006445815 -0.006316232 -0.006461246 -0.006334163 -0.005907392 1000
lala 5 1.2 1 second 9 1 137 5 1.85 0.01999831199646 1 1 1 0 -0.007062786 -0.007407135 -0.007518554 -0.006904425 -0.006494022 1000 -0.007062786 -0.007407135 -0.007518554 -0.006904425 -0.006494022 1000 -0.0046644 -0.004854207 -0.004125722 -0.00408632 -0.004419051 1000 -0.0046644 -0.004854207 -0.004125722 -0.00408632 -0.004419051 1000
lala 11 0.6 1 first 1 1 138 4 1.32 1.19999718666077 -1 1 1 1 -0.004746848 -0.004722179 -0.004285678 1000 1000 1000 -0.004746848 -0.004722179 -0.004285678 1000 1000 1000 -0.004141807 -0.004555388 -0.003878111 -0.003872095 -0.003929513 1000 -0.004141807 -0.004555388 -0.003878111 -0.003872095 -0.003929513 1000
lala 5 1.2 1 second 13 1 139 4 1.32 0.419997930526733 0 1 1 0 -0.004640871 -0.005356527 -0.004633386 -0.003665866 -0.003116651 1000 -0.004640871 -0.005356527 -0.004633386 -0.003665866 -0.003116651 1000 -0.001301919 -0.001336957 -0.001020286 -0.0004180572 -0.000490977 1000 -0.001301919 -0.001336957 -0.001020286 -0.0004180572 -0.000490977 1000
lala 12 0.6 1 second 2 1 140 5 1.65 0.599997758865356 -1 0 1 1 0.003702591 0.003589997 0.003373903 0.003723758 0.003342276 1000 0.003702591 0.003589997 0.003373903 0.003723758 0.003342276 1000 0.004338767 0.005162891 0.005557748 0.005503191 0.005621247 1000 0.004338767 0.005162891 0.005557748 0.005503191 0.005621247 1000
lala 4 1.2 1 second 4 1 141 6 2.76 0.39999794960022 -1 0 1 1 0.007937381 0.007939808 0.007872466 0.008024166 0.007731061 1000 0.007937381 0.007939808 0.007872466 0.008024166 0.007731061 1000 0.0080439 0.009106534 0.009673156 0.009367689 0.009768232 1000 0.0080439 0.009106534 0.009673156 0.009367689 0.009768232 1000
lala 6 1.2 1 first 9 1 142 5 1.65 3.29999542236328 1 1 1 0 0.0109708 0.01118382 0.0115006 1000 1000 1000 0.0109708 0.01118382 0.0115006 1000 1000 1000 0.01203759 0.01263698 0.01274973 0.0125823 0.01249041 1000 0.01203759 0.01263698 0.01274973 0.0125823 0.01249041 1000
lala 6 1.2 1 first 12 1 143 4 2.52 1.03999733924866 0 0 1 1 0.01182275 0.0123789 0.01300862 1000 1000 1000 0.01182275 0.0123789 0.01300862 1000 1000 1000 0.01519551 0.01581121 0.01604748 0.01587716 0.01564334 1000 0.01519551 0.01581121 0.01604748 0.01587716 0.01564334 1000
lala 8 1.2 1 first 10 1 144 6 1.98 2.35999631881714 1 0 1 1 0.01187609 0.01184539 0.01189011 1000 1000 1000 0.01187609 0.01184539 0.01189011 1000 1000 1000 0.01477427 0.0150614 0.01516392 0.01555956 0.0155907 1000 0.01477427 0.0150614 0.01516392 0.01555956 0.0155907 1000
lala 11 0.6 0 first 8 1 145 5 1.65 2.2999963760376 1 0 -1 0 0.01829024 0.01833964 0.01833178 1000 1000 1000 0.01829024 0.01833964 0.01833178 1000 1000 1000 0.05551558 0.03657553 0.01778917 0.01022254 -0.005506037 1000 0.05551558 0.03657553 0.01778917 0.01022254 -0.005506037 1000
lala 18 307.2 1 first 17 1 146 6 1.98 0.519997835159302 0 1 1 1 0.01473753 0.01440277 0.007826494 1000 1000 1000 0.01473753 0.01440277 0.007826494 1000 1000 1000 -0.01842507 -0.01743537 -0.01288326 -0.01157097 -0.01031545 1000 -0.01842507 -0.01743537 -0.01288326 -0.01157097 -0.01031545 1000
lala 4 1.2 1 second 14 1 147 5 2.1 0.439997911453247 0 0 1 1 -0.01198941 -0.01164717 -0.01149194 -0.01121045 -0.011337 1000 -0.01198941 -0.01164717 -0.01149194 -0.01121045 -0.011337 1000 -0.00846643 -0.008271523 -0.007443098 -0.007314489 -0.006984442 1000 -0.00846643 -0.008271523 -0.007443098 -0.007314489 -0.006984442 1000
lala 5 1.2 1 first 4 1 148 6 1.98 2.11999654769897 -1 0 1 0 -0.005447985 -0.005089855 -0.004917767 1000 1000 1000 -0.005447985 -0.005089855 -0.004917767 1000 1000 1000 -0.002776423 -0.002802235 -0.002697795 -0.002216558 -0.002332772 1000 -0.002776423 -0.002802235 -0.002697795 -0.002216558 -0.002332772 1000
lala 8 1.2 1 second 0 1 149 4 1.32 0.419997930526733 -1 0 1 1 0.001319781 0.001014474 0.001118812 0.0007430642 0.0004417004 1000 0.001319781 0.001014474 0.001118812 0.0007430642 0.0004417004 1000 0.00165114 0.002446989 0.002492112 0.002561851 0.002544796 1000 0.00165114 0.002446989 0.002492112 0.002561851 0.002544796 1000
lala 9 1.2 0 first 5 1 150 6 3.180001 1.83999681472778 -1 1 -1 1 0.00540547 0.01082633 0.008925017 0.006460053 0.004042685 0.003762682 0.00540547 0.01082633 0.008925017 0.006460053 0.004042685 0.003762682 -0.006486374 -0.009756882 -0.01358649 -0.01440945 -0.01450596 1000 -0.006486374 -0.009756882 -0.01358649 -0.01440945 -0.01450596 1000
lala 11 0.3 1 first 15 1 151 5 1.95 1.65999698638916 0 1 1 0 -0.01563808 -0.0166691 -0.01672051 1000 1000 1000 -0.01563808 -0.0166691 -0.01672051 1000 1000 1000 -0.02354337 -0.02015682 -0.01734173 -0.0164148 -0.01581584 1000 -0.02354337 -0.02015682 -0.01734173 -0.0164148 -0.01581584 1000
lala 7 1.2 0 first 9 1 152 5 1.65 0.659997701644897 1 1 -1 0 -0.01585095 -0.01719928 -0.0194051 1000 1000 1000 -0.01585095 -0.01719928 -0.0194051 1000 1000 1000 -0.02028815 -0.02149672 -0.0215644 -0.02061778 -0.01898844 1000 -0.02028815 -0.02149672 -0.0215644 -0.02061778 -0.01898844 1000
lala 9 1.2 0 first 0 1 153 4 1.32 0.859997510910034 -1 0 -1 0 -0.01555537 -0.01577781 -0.01594209 1000 1000 1000 -0.01555537 -0.01577781 -0.01594209 1000 1000 1000 -0.01384782 -0.01362662 -0.01359766 -0.01393698 -0.01398818 1000 -0.01384782 -0.01362662 -0.01359766 -0.01393698 -0.01398818 1000
lala 6 1.2 0 first 4 1 154 6 1.98 0.719997644424438 -1 0 -1 0 -0.01261939 -0.01201942 -0.01189897 1000 1000 1000 -0.01261939 -0.01201942 -0.01189897 1000 1000 1000 -0.01101182 -0.01055527 -0.01043249 -0.009852945 -0.009477267 1000 -0.01101182 -0.01055527 -0.01043249 -0.009852945 -0.009477267 1000
lala 8 1.2 1 first 9 1 155 5 2.85 0.639997720718384 1 1 1 0 -0.008211511 -0.008588705 -0.009152981 1000 1000 1000 -0.008211511 -0.008588705 -0.009152981 1000 1000 1000 -0.008245318 -0.00853533 -0.008109913 -0.007530368 -0.007090705 1000 -0.008245318 -0.00853533 -0.008109913 -0.007530368 -0.007090705 1000
lala 7 1.2 1 second 12 1 156 4 1.32 0.359997987747192 0 0 1 0 -0.004798125 -0.004941225 -0.005561071 -0.005690941 -0.005858421 1000 -0.004798125 -0.004941225 -0.005561071 -0.005690941 -0.005858421 1000 -0.004261599 -0.00396604 -0.003278772 -0.002945929 -0.003359908 1000 -0.004261599 -0.00396604 -0.003278772 -0.002945929 -0.003359908 1000
lala 8 1.2 1 first 6 1 157 4 1.32 0.899997472763062 1 0 1 1 -0.004590457 -0.00408424 -0.003804994 1000 1000 1000 -0.004590457 -0.00408424 -0.003804994 1000 1000 1000 -0.002054677 -0.001492042 -0.0009186323 -0.0006979861 -0.0006065182 1000 -0.002054677 -0.001492042 -0.0009186323 -0.0006979861 -0.0006065182 1000
lala 5 1.2 1 first 14 1 158 5 1.65 0.599997758865356 0 0 1 1 -0.004990404 -0.00412304 -0.003761341 1000 1000 1000 -0.004990404 -0.00412304 -0.003761341 1000 1000 1000 -0.0164619 -0.01563233 -0.01430685 -0.01450964 -0.01235951 1000 -0.0164619 -0.01563233 -0.01430685 -0.01450964 -0.01235951 1000
lala 10 1.2 1 first 5 1 159 6 4.380001 0.299998044967651 -1 1 1 0 0.004792758 0.00183911 -0.0009602903 1000 1000 1000 0.004792758 0.00183911 -0.0009602903 1000 1000 1000 -0.01421638 -0.01152568 -0.008160903 -0.005244506 -0.003775323 1000 -0.01421638 -0.01152568 -0.008160903 -0.005244506 -0.003775323 1000
lala 9 1.2 1 second 10 1 160 6 1.98 0.499997854232788 1 0 1 1 0.005158336 0.006466631 0.007288161 0.005910399 0.004718992 1000 0.005158336 0.006466631 0.007288161 0.005910399 0.004718992 1000 0.0009857795 0.001924764 0.001465291 0.003188713 0.003288528 1000 0.0009857795 0.001924764 0.001465291 0.003188713 0.003288528 1000
lala 5 1.2 1 second 3 1 161 5 1.85 3.43999528884888 -1 1 1 0 -0.007483787 -0.008134232 -0.0104411 -0.0105977 -0.008837252 1000 -0.007483787 -0.008134232 -0.0104411 -0.0105977 -0.008837252 1000 0.01122213 0.01841953 0.0199403 0.0186707 0.01382264 1000 0.01122213 0.01841953 0.0199403 0.0186707 0.01382264 1000
lala 12 0.6 0 first 1 1 162 4 1.32 0.0399982929229736 -1 1 -1 0 -0.01408072 -0.01492567 -0.01489444 1000 1000 1000 -0.01408072 -0.01492567 -0.01489444 1000 1000 1000 -0.02107399 -0.02063652 -0.01996029 -0.0195948 -0.01864052 1000 -0.02107399 -0.02063652 -0.01996029 -0.0195948 -0.01864052 1000
lala 19 614.4 0 second 17 1 163 6 1.98 0.359997987747192 0 1 -1 1 -0.01390213 -0.01359104 -0.01307803 -0.01317086 -0.01240575 1000 -0.01390213 -0.01359104 -0.01307803 -0.01317086 -0.01240575 1000 -0.006515585 -0.006748037 -0.007014627 -0.007288449 -0.007123259 1000 -0.006515585 -0.006748037 -0.007014627 -0.007288449 -0.007123259 1000
lala 7 1.2 0 second 4 1 164 6 3.18 0.219998121261597 -1 0 -1 0 -0.004466632 -0.004232371 -0.004150996 -0.003621113 -0.003177235 1000 -0.004466632 -0.004232371 -0.004150996 -0.003621113 -0.003177235 1000 -0.001355518 -0.0008468545 -0.001014278 -0.001179536 -0.001220796 1000 -0.001355518 -0.0008468545 -0.001014278 -0.001179536 -0.001220796 1000
lala 13 0.3 0 first 1 1 165 4 1.62 1.65999698638916 -1 1 -1 1 -0.001611673 -0.001444872 -0.001366998 1000 1000 1000 -0.001611673 -0.001444872 -0.001366998 1000 1000 1000 -0.002731109 -0.002119365 -0.002289328 -0.003301696 -0.00332606 1000 -0.002731109 -0.002119365 -0.002289328 -0.003301696 -0.00332606 1000
lala 20 307.2 1 first 17 1 166 6 18 0.319998025894165 0 1 1 1 -0.0002522435 5.313511E-05 0.0001490353 1000 1000 1000 -0.0002522435 5.313511E-05 0.0001490353 1000 1000 1000 0.002961161 0.002826169 0.002795619 0.002656711 0.002303557 1000 0.002961161 0.002826169 0.002795619 0.002656711 0.002303557 1000
lala 21 153.6 1 first 17 1 167 6 1.98 0.39999794960022 0 1 1 1 -6.816581E-05 7.020421E-06 -0.0005153888 1000 1000 1000 -6.816581E-05 7.020421E-06 -0.0005153888 1000 1000 1000 -0.02580459 -0.02266886 -0.02144696 -0.02080788 -0.02030121 1000 -0.02580459 -0.02266886 -0.02144696 -0.02080788 -0.02030121 1000
lala 6 1.2 0 second 3 1 168 5 1.65 0.299998044967651 -1 1 -1 0 -0.02426565 -0.02373461 -0.02254782 -0.02192004 -0.02148893 1000 -0.02426565 -0.02373461 -0.02254782 -0.02192004 -0.02148893 1000 -0.02317424 -0.02199204 -0.02157513 -0.02052418 -0.02067322 1000 -0.02317424 -0.02199204 -0.02157513 -0.02052418 -0.02067322 1000
lala 14 0.3 0 second 1 1 169 4 1.92 0.01999831199646 -1 1 -1 0 -0.01707442 -0.01703623 -0.01679416 -0.01704793 -0.01689753 1000 -0.01707442 -0.01703623 -0.01679416 -0.01704793 -0.01689753 1000 -0.01542736 -0.01499557 -0.01484203 -0.01393492 -0.01361213 1000 -0.01542736 -0.01499557 -0.01484203 -0.01393492 -0.01361213 1000
lala 10 2.4 1 first 11 1 170 6 1.98 0.259998083114624 1 1 1 0 -0.01305312 -0.01257185 -0.0119322 1000 1000 1000 -0.01305312 -0.01257185 -0.0119322 1000 1000 1000 -0.01108184 -0.01124945 -0.01095324 -0.01057779 -0.01055227 1000 -0.01108184 -0.01124945 -0.01095324 -0.01057779 -0.01055227 1000
lala 15 0.3 0 second 1 1 171 4 2.22 0.499997854232788 -1 1 -1 1 -0.009050293 -0.008742459 -0.008561297 -0.008244704 -0.007900496 1000 -0.009050293 -0.008742459 -0.008561297 -0.008244704 -0.007900496 1000 -0.005936392 -0.005518172 -0.005191164 -0.004967352 -0.004093201 1000 -0.005936392 -0.005518172 -0.005191164 -0.004967352 -0.004093201 1000
lala 8 1.2 1 first 4 1 172 6 4.38 0.0399982929229736 -1 0 1 0 -0.00271116 -0.002767453 -0.003235508 1000 1000 1000 -0.00271116 -0.002767453 -0.003235508 1000 1000 1000 -0.004475607 -0.004634901 -0.005075944 -0.005166312 -0.005397548 1000 -0.004475607 -0.004634901 -0.005075944 -0.005166312 -0.005397548 1000
lala 9 1.2 0 second 4 1 173 6 3.18 0.299998044967651 -1 0 -1 1 -0.004326839 -0.005035771 -0.004884051 -0.004526756 -0.004250668 1000 -0.004326839 -0.005035771 -0.004884051 -0.004526756 -0.004250668 1000 -0.003266973 -0.003021694 -0.003092587 -0.003733558 -0.003852325 1000 -0.003266973 -0.003021694 -0.003092587 -0.003733558 -0.003852325 1000
lala 22 153.6 1 second 17 1 174 6 1.98 0.439997911453247 0 1 1 1 -0.007474064 -0.007812811 -0.00778098 -0.007362911 -0.007273063 1000 -0.007474064 -0.007812811 -0.00778098 -0.007362911 -0.007273063 1000 -0.007537358 -0.007454229 -0.007325257 -0.007441144 -0.007261317 1000 -0.007537358 -0.007454229 -0.007325257 -0.007441144 -0.007261317 1000
lala 8 1.2 1 first 16 1 175 6 1.98 0.439997911453247 0 0 1 1 -0.007931236 -0.007977631 -0.007882286 1000 1000 1000 -0.007931236 -0.007977631 -0.007882286 1000 1000 1000 -0.005081899 -0.005212182 -0.005380836 -0.005308238 -0.005100803 1000 -0.005081899 -0.005212182 -0.005380836 -0.005308238 -0.005100803 1000
lala 11 4.8 1 second 11 1 176 6 1.98 0.519997835159302 1 1 1 0 -0.008496738 -0.008196679 -0.008406949 -0.008890599 -0.009376413 1000 -0.008496738 -0.008196679 -0.008406949 -0.008890599 -0.009376413 1000 -0.008822307 -0.009091198 -0.008862256 -0.008641961 -0.008281917 1000 -0.008822307 -0.009091198 -0.008862256 -0.008641961 -0.008281917 1000
lala 16 0.6 1 second 1 1 177 4 2.82 0.839997529983521 -1 1 1 1 -0.007739386 -0.00776484 -0.008040955 -0.008439946 -0.007996176 1000 -0.007739386 -0.00776484 -0.008040955 -0.008439946 -0.007996176 1000 -0.007013295 -0.006873267 -0.006743986 -0.006628866 -0.006654962 1000 -0.007013295 -0.006873267 -0.006743986 -0.006628866 -0.006654962 1000
lala 9 1.2 1 second 9 1 178 5 1.65 0.559997797012329 1 1 1 1 -0.003584587 -0.004279239 -0.004989387 -0.005460223 -0.005513467 1000 -0.003584587 -0.004279239 -0.004989387 -0.005460223 -0.005513467 1000 -0.009299999 -0.009010751 -0.008734754 -0.009408424 -0.01029836 1000 -0.009299999 -0.009010751 -0.008734754 -0.009408424 -0.01029836 1000
lala 10 0.6 1 first 0 1 179 4 1.92 1.31999707221985 -1 0 1 1 -0.0007779865 -0.001475378 -0.003012904 1000 1000 1000 -0.0007779865 -0.001475378 -0.003012904 1000 1000 1000 -0.01396016 -0.01510394 -0.01672718 -0.01821399 -0.01861767 1000 -0.01396016 -0.01510394 -0.01672718 -0.01821399 -0.01861767 1000
lala 23 153.6 1 first 17 1 180 6 1.98 0.439997911453247 0 1 1 0 -0.02309979 -0.0235763 -0.02391693 1000 1000 1000 -0.02309979 -0.0235763 -0.02391693 1000 1000 1000 -0.02799058 -0.02829228 -0.0288214 -0.02860279 -0.02845125 1000 -0.02799058 -0.02829228 -0.0288214 -0.02860279 -0.02845125 1000
lala 12 0.3 1 first 15 1 181 5 1.65 0.39999794960022 0 1 1 1 -0.02304008 -0.02069941 -0.0180933 1000 1000 1000 -0.02304008 -0.02069941 -0.0180933 1000 1000 1000 0.01036348 0.00739349 -0.001183971 -0.001008928 0.001443492 1000 0.01036348 0.00739349 -0.001183971 -0.001008928 0.001443492 1000
lala 12 0.3 1 first 8 1 182 5 1.95 2.13999652862549 1 0 1 0 -0.02012194 -0.01792848 -0.01468142 1000 1000 1000 -0.02012194 -0.01792848 -0.01468142 1000 1000 1000 -0.007817155 -0.008875857 -0.008306817 -0.008993698 -0.008994359 1000 -0.007817155 -0.008875857 -0.008306817 -0.008993698 -0.008994359 1000
lala 6 1.2 1 second 14 1 183 5 1.65 0.339998006820679 0 0 1 0 -0.01861791 -0.01865993 -0.01877605 -0.0189096 -0.01896737 1000 -0.01861791 -0.01865993 -0.01877605 -0.0189096 -0.01896737 1000 -0.02148976 -0.02147125 -0.02158708 -0.021791 -0.02169386 1000 -0.02148976 -0.02147125 -0.02158708 -0.021791 -0.02169386 1000
lala 10 1.2 1 first 9 1 184 5 1.65 0.859997510910034 1 1 1 1 -0.02193463 -0.02213145 -0.02229998 1000 1000 1000 -0.02193463 -0.02213145 -0.02229998 1000 1000 1000 -0.02597666 -0.02540038 -0.02407938 -0.02333835 -0.0228031 1000 -0.02597666 -0.02540038 -0.02407938 -0.02333835 -0.0228031 1000
lala 8 1.2 1 second 12 1 185 4 1.32 1.31999707221985 0 0 1 1 -0.02392423 -0.02415325 -0.02450028 -0.02458492 -0.02423732 1000 -0.02392423 -0.02415325 -0.02450028 -0.02458492 -0.02423732 1000 -0.0237272 -0.0240508 -0.02453112 -0.02446612 -0.02369815 1000 -0.0237272 -0.0240508 -0.02453112 -0.02446612 -0.02369815 1000
lala 13 1.2 1 first 2 1 186 5 1.65 3.33999538421631 -1 0 1 1 -0.02240109 -0.02279405 -0.02294478 1000 1000 1000 -0.02240109 -0.02279405 -0.02294478 1000 1000 1000 -0.02432477 -0.02402402 -0.02398346 -0.02374271 -0.02380193 1000 -0.02432477 -0.02402402 -0.02398346 -0.02374271 -0.02380193 1000
lala 11 0.6 0 first 5 1 187 6 3.780001 0.61999773979187 -1 1 -1 0 -0.02340234 -0.0235753 -0.02319949 1000 1000 1000 -0.02340234 -0.0235753 -0.02319949 1000 1000 1000 -0.0238465 -0.02403558 -0.02396941 -0.02353718 -0.02347301 1000 -0.0238465 -0.02403558 -0.02396941 -0.02353718 -0.02347301 1000
lala 6 1.2 1 first 13 1 188 4 1.32 0.599997758865356 0 1 1 1 -0.02213641 -0.02205759 -0.02175464 1000 1000 1000 -0.02213641 -0.02205759 -0.02175464 1000 1000 1000 -0.02163543 -0.02193106 -0.02204093 -0.02150262 -0.02102192 1000 -0.02163543 -0.02193106 -0.02204093 -0.02150262 -0.02102192 1000
lala 7 1.2 1 first 3 1 189 5 2.85 0.39999794960022 -1 1 1 1 -0.02026359 -0.02055543 -0.02076153 1000 1000 1000 -0.02026359 -0.02055543 -0.02076153 1000 1000 1000 -0.02316851 -0.02268812 -0.02207633 -0.02162787 -0.02136207 1000 -0.02316851 -0.02268812 -0.02207633 -0.02162787 -0.02136207 1000
lala 11 0.3 1 first 0 1 190 4 1.62 1.99999666213989 -1 0 1 1 -0.02139069 -0.02173727 -0.0221115 1000 1000 1000 -0.02139069 -0.02173727 -0.0221115 1000 1000 1000 -0.02246365 -0.02244806 -0.02260574 -0.02249629 -0.02218486 1000 -0.02246365 -0.02244806 -0.02260574 -0.02249629 -0.02218486 1000
lala 13 0.15 1 second 8 1 191 5 1.8 0.439997911453247 1 0 1 0 -0.02040937 -0.02054616 -0.02063432 -0.02111964 -0.02181958 1000 -0.02040937 -0.02054616 -0.02063432 -0.02111964 -0.02181958 1000 -0.02179047 -0.02129577 -0.02156163 -0.02178065 -0.02169862 1000 -0.02179047 -0.02129577 -0.02156163 -0.02178065 -0.02169862 1000
lala 8 1.2 1 first 3 1 192 5 1.65 0.579997777938843 -1 1 1 0 -0.0224764 -0.02312358 -0.02344982 1000 1000 1000 -0.0224764 -0.02312358 -0.02344982 1000 1000 1000 -0.02443265 -0.02403089 -0.02393216 -0.02368345 -0.02256796 1000 -0.02443265 -0.02403089 -0.02393216 -0.02368345 -0.02256796 1000
lala 13 0.3 1 second 15 1 193 5 1.65 0.339998006820679 0 1 1 1 -0.02038289 -0.02028635 -0.02043462 -0.01973629 -0.0194266 1000 -0.02038289 -0.02028635 -0.02043462 -0.01973629 -0.0194266 1000 -0.02001767 -0.02003085 -0.01994477 -0.02028647 -0.02074673 1000 -0.02001767 -0.02003085 -0.01994477 -0.02028647 -0.02074673 1000
lala 10 0.6 1 first 4 1 194 6 3.78 0.499997854232788 -1 0 1 0 -0.02036867 -0.02003744 -0.01997182 1000 1000 1000 -0.02036867 -0.02003744 -0.01997182 1000 1000 1000 -0.01868856 -0.01845657 -0.01827023 -0.01806553 -0.01803916 1000 -0.01868856 -0.01845657 -0.01827023 -0.01806553 -0.01803916 1000
lala 17 0.3 0 first 1 1 195 4 2.52 0.559997797012329 -1 1 -1 0 -0.01980457 -0.01955056 -0.0195008 1000 1000 1000 -0.01980457 -0.01955056 -0.0195008 1000 1000 1000 -0.01798098 -0.01787324 -0.01809548 -0.01818204 -0.01763481 1000 -0.01798098 -0.01787324 -0.01809548 -0.01818204 -0.01763481 1000
lala 24 307.2 0 first 17 1 196 6 1.98 0.359997987747192 0 1 -1 0 -0.01827454 -0.01861962 -0.01895891 1000 1000 1000 -0.01827454 -0.01861962 -0.01895891 1000 1000 1000 -0.01757768 -0.01762405 -0.01761999 -0.01743296 -0.01771648 1000 -0.01757768 -0.01762405 -0.01761999 -0.01743296 -0.01771648 1000
lala 7 1.2 1 first 13 1 197 4 1.32 0.61999773979187 0 1 1 1 -0.01716213 -0.01803487 -0.01821417 1000 1000 1000 -0.01716213 -0.01803487 -0.01821417 1000 1000 1000 -0.01334379 -0.01325129 -0.01259511 -0.01267928 -0.01307042 1000 -0.01334379 -0.01325129 -0.01259511 -0.01267928 -0.01307042 1000
lala 12 0.3 1 first 5 1 198 6 4.080001 0.119998216629028 -1 1 1 1 -0.01442814 -0.01468768 -0.01385473 1000 1000 1000 -0.01442814 -0.01468768 -0.01385473 1000 1000 1000 -0.01618992 -0.01666938 -0.0169741 -0.01648504 -0.01675962 1000 -0.01618992 -0.01666938 -0.0169741 -0.01648504 -0.01675962 1000
lala 11 4.8 1 second 7 1 199 4 1.32 0.61999773979187 1 1 1 0 -0.01586353 -0.0157779 -0.01597426 -0.01605168 -0.01651461 1000 -0.01586353 -0.0157779 -0.01597426 -0.01605168 -0.01651461 1000 -0.01782007 -0.01823574 -0.01707661 -0.01630463 -0.01626723 1000 -0.01782007 -0.01823574 -0.01707661 -0.01630463 -0.01626723 1000
lala 14 0.6 1 first 15 1 200 5 1.65 1.57999682426453 0 1 1 0 -0.01633379 -0.009994255 -0.008194069 -0.00709005 -0.007529451 -0.00910304 -0.01633379 -0.009994255 -0.008194069 -0.00709005 -0.007529451 -0.00910304 -0.02723177 -0.02669547 -0.02616408 -0.02517138 -0.0235637 1000 -0.02723177 -0.02669547 -0.02616408 -0.02517138 -0.0235637 1000
lala 9 1.2 0 second 6 1 201 4 1.32 0.519997835159302 1 0 -1 0 -0.01084293 -0.01120279 -0.0108743 -0.009514675 -0.008503041 1000 -0.01084293 -0.01120279 -0.0108743 -0.009514675 -0.008503041 1000 -0.01031949 -0.009851062 -0.01283502 -0.0154328 -0.01487934 1000 -0.01031949 -0.009851062 -0.01283502 -0.0154328 -0.01487934 1000
lala 13 0.15 1 first 5 1 202 6 3.930001 1.49999690055847 -1 1 1 1 -0.00843334 -0.007911627 -0.007506792 1000 1000 1000 -0.00843334 -0.007911627 -0.007506792 1000 1000 1000 -0.004812309 -0.004522053 -0.004045031 -0.003831647 -0.003336273 1000 -0.004812309 -0.004522053 -0.004045031 -0.003831647 -0.003336273 1000
lala 9 1.2 1 first 12 1 203 4 1.32 0.579997777938843 0 0 1 1 -5.482152E-05 3.09656E-05 -7.147221E-06 1000 1000 1000 -5.482152E-05 3.09656E-05 -7.147221E-06 1000 1000 1000 -0.01357437 -0.01358411 -0.01391339 -0.01449964 -0.01500001 1000 -0.01357437 -0.01358411 -0.01391339 -0.01449964 -0.01500001 1000
lala 14 0.15 1 first 8 1 204 5 1.65 1.21999716758728 1 0 1 0 -0.0165895 -0.01151712 -0.005586055 1000 1000 1000 -0.0165895 -0.01151712 -0.005586055 1000 1000 1000 -0.01552765 -0.01628907 -0.01555577 -0.01436618 -0.01263929 1000 -0.01552765 -0.01628907 -0.01555577 -0.01436618 -0.01263929 1000
lala 8 1.2 1 first 13 1 205 4 1.32 0.419997930526733 0 1 1 1 -0.01012754 -0.01009546 -0.009877465 1000 1000 1000 -0.01012754 -0.01009546 -0.009877465 1000 1000 1000 -0.009992788 -0.009739903 -0.009105355 -0.01002938 -0.008935082 1000 -0.009992788 -0.009739903 -0.009105355 -0.01002938 -0.008935082 1000
lala 25 153.6 1 first 17 1 206 6 18 0.659997701644897 0 1 1 0 -0.01482559 -0.01419013 -0.01411044 1000 1000 1000 -0.01482559 -0.01419013 -0.01411044 1000 1000 1000 -0.03251372 -0.03534736 -0.03284258 -0.0304001 -0.02815004 1000 -0.03251372 -0.03534736 -0.03284258 -0.0304001 -0.02815004 1000
lala 10 2.4 1 first 12 1 207 4 1.32 4.09999465942383 0 0 1 0 -0.01187852 -0.01660464 -0.01969918 1000 1000 1000 -0.01187852 -0.01660464 -0.01969918 1000 1000 1000 -0.01499446 -0.01507166 -0.01611004 -0.01669375 -0.01703081 1000 -0.01499446 -0.01507166 -0.01611004 -0.01669375 -0.01703081 1000
lala 14 0.15 1 second 5 1 208 6 3.780001 1.49999690055847 -1 1 1 0 -0.01491354 -0.0151737 -0.01532486 -0.0149379 -0.01493221 1000 -0.01491354 -0.0151737 -0.01532486 -0.0149379 -0.01493221 1000 0.02176369 0.02701103 0.02924014 0.02921222 0.03565087 1000 0.02176369 0.02701103 0.02924014 0.02921222 0.03565087 1000
lala 11 0.3 0 second 4 1 209 6 3.48 0.259998083114624 -1 0 -1 0 0.01344176 0.007737468 0.004385468 0.00532224 0.006341126 1000 0.01344176 0.007737468 0.004385468 0.00532224 0.006341126 1000 0.0008399562 0.001558849 0.001389652 0.001162564 0.001858225 1000 0.0008399562 0.001558849 0.001389652 0.001162564 0.001858225 1000
lala 9 1.2 0 second 3 1 210 5 1.65 0.719997644424438 -1 1 -1 1 -0.00294789 -0.004357236 -0.004409228 -0.004751659 -0.004942009 1000 -0.00294789 -0.004357236 -0.004409228 -0.004751659 -0.004942009 1000 -0.005881729 -0.004155052 -0.003630699 -0.002995835 -0.002984791 1000 -0.005881729 -0.004155052 -0.003630699 -0.002995835 -0.002984791 1000
lala 10 0.6 1 first 6 1 211 4 1.92 0.759997606277466 1 0 1 0 -0.002005009 -0.002592452 -0.002567474 1000 1000 1000 -0.002005009 -0.002592452 -0.002567474 1000 1000 1000 -0.002630798 -0.002916348 -0.002472013 -0.002577239 -0.002907535 1000 -0.002630798 -0.002916348 -0.002472013 -0.002577239 -0.002907535 1000
lala 7 1.2 1 second 14 1 212 5 1.65 0.459997892379761 0 0 1 0 -0.002806463 -0.002459415 -0.002277886 -0.00230305 -0.002005337 1000 -0.002806463 -0.002459415 -0.002277886 -0.00230305 -0.002005337 1000 -0.002617654 -0.00232093 -0.002401864 -0.002380928 -0.002298934 1000 -0.002617654 -0.00232093 -0.002401864 -0.002380928 -0.002298934 1000
lala 12 9.6 1 first 11 1 213 6 1.98 2.23999643325806 1 1 1 0 -0.002736219 -0.002161907 -0.00207274 1000 1000 1000 -0.002736219 -0.002161907 -0.00207274 1000 1000 1000 -0.00133225 -0.001245945 -0.001348151 -0.001434182 -0.001553786 1000 -0.00133225 -0.001245945 -0.001348151 -0.001434182 -0.001553786 1000
lala 11 2.4 1 first 9 1 214 5 1.65 1.07999730110168 1 1 1 1 -0.0008764642 -0.00116987 -0.0009068759 1000 1000 1000 -0.0008764642 -0.00116987 -0.0009068759 1000 1000 1000 -0.0009574649 -0.001645689 -0.00267094 -0.003803156 -0.0035523 1000 -0.0009574649 -0.001645689 -0.00267094 -0.003803156 -0.0035523 1000
lala 13 19.2 1 second 11 1 215 6 1.98 2.31999635696411 1 1 1 0 -0.00162663 -0.001725534 -0.001872126 -0.001056544 -0.0007620652 1000 -0.00162663 -0.001725534 -0.001872126 -0.001056544 -0.0007620652 1000 -0.002368144 -0.002698845 -0.003040552 -0.003142926 -0.002626345 1000 -0.002368144 -0.002698845 -0.003040552 -0.003142926 -0.002626345 1000
lala 18 0.15 1 first 1 1 216 4 2.67 0.879997491836548 -1 1 1 1 0.0001629888 0.0003542803 0.0004380113 1000 1000 1000 0.0001629888 0.0003542803 0.0004380113 1000 1000 1000 0.001544635 0.00182627 0.002250683 0.001917707 0.001710035 1000 0.001544635 0.00182627 0.002250683 0.001917707 0.001710035 1000
lala 15 1.2 1 first 15 1 217 5 1.65 0.859997510910034 0 1 1 0 0.0003932763 -0.0005235465 -0.0007931632 1000 1000 1000 0.0003932763 -0.0005235465 -0.0007931632 1000 1000 1000 0.001200808 0.001542776 0.002094734 0.002170294 0.002465049 1000 0.001200808 0.001542776 0.002094734 0.002170294 0.002465049 1000
lala 9 1.2 1 second 13 1 218 4 1.32 0.459997892379761 0 1 1 0 0.002857106 0.002616969 0.002914679 0.003542343 0.003672034 1000 0.002857106 0.002616969 0.002914679 0.003542343 0.003672034 1000 0.003537324 0.004469184 0.004973566 0.005067532 0.005296704 1000 0.003537324 0.004469184 0.004973566 0.005067532 0.005296704 1000
lala 19 0.075 1 first 1 1 219 4 2.595 0.879997491836548 -1 1 1 1 0.006390917 0.006421152 0.006659372 1000 1000 1000 0.006390917 0.006421152 0.006659372 1000 1000 1000 0.004169018 0.003702692 0.003892843 0.003588767 0.003265841 1000 0.004169018 0.003702692 0.003892843 0.003588767 0.003265841 1000
lala 9 1.2 1 second 16 1 220 6 1.98 0.299998044967651 0 0 1 1 0.006086866 0.007170914 0.007168189 0.006313679 0.005880048 1000 0.006086866 0.007170914 0.007168189 0.006313679 0.005880048 1000 0.00324983 0.002161486 0.002072297 0.002607679 0.003064278 1000 0.00324983 0.002161486 0.002072297 0.002607679 0.003064278 1000
lala 12 0.15 1 second 4 1 221 6 3.63 0.759997606277466 -1 0 1 1 0.003459051 0.003555494 0.003653232 0.00393011 0.00356766 1000 0.003459051 0.003555494 0.003653232 0.00393011 0.00356766 1000 0.003778622 0.003289361 0.002722146 0.002868182 0.002969727 1000 0.003778622 0.003289361 0.002722146 0.002868182 0.002969727 1000
lala 16 2.4 1 first 15 1 222 5 1.65 0.519997835159302 0 1 1 0 0.004584977 0.00489772 0.00490264 1000 1000 1000 0.004584977 0.00489772 0.00490264 1000 1000 1000 -0.06255748 -0.05596601 -0.04805024 -0.0372456 -0.02581137 1000 -0.06255748 -0.05596601 -0.04805024 -0.0372456 -0.02581137 1000
lala 15 0.15 1 second 8 1 223 5 1.65 0.379997968673706 1 0 1 1 -0.02374155 -0.02354662 -0.02334955 -0.02358631 -0.02286901 1000 -0.02374155 -0.02354662 -0.02334955 -0.02358631 -0.02286901 1000 -0.02233042 -0.02205267 -0.02178112 -0.02177635 -0.02128089 1000 -0.02233042 -0.02205267 -0.02178112 -0.02177635 -0.02128089 1000
lala 10 0.6 1 second 3 1 224 5 2.25 0.459997892379761 -1 1 1 0 -0.02422076 -0.02352478 -0.02276983 -0.02262042 -0.02269577 1000 -0.02422076 -0.02352478 -0.02276983 -0.02262042 -0.02269577 1000 -0.02139041 -0.02121655 -0.02100236 -0.02066242 -0.01973517 1000 -0.02139041 -0.02121655 -0.02100236 -0.02066242 -0.01973517 1000
lala 17 4.8 1 second 15 1 225 5 1.65 1.0999972820282 0 1 1 1 -0.01768762 -0.01654626 -0.01501046 -0.01352124 -0.01356568 1000 -0.01768762 -0.01654626 -0.01501046 -0.01352124 -0.01356568 1000 -0.019046 -0.01904406 -0.01976342 -0.02052219 -0.02169226 1000 -0.019046 -0.01904406 -0.01976342 -0.02052219 -0.02169226 1000
lala 10 2.4 0 first 10 1 226 6 1.98 0.879997491836548 1 0 -1 1 -0.02422799 -0.02409258 -0.0238341 1000 1000 1000 -0.02422799 -0.02409258 -0.0238341 1000 1000 1000 -0.02285366 -0.02285041 -0.02270526 -0.02211375 -0.02182487 1000 -0.02285366 -0.02285041 -0.02270526 -0.02211375 -0.02182487 1000
lala 11 1.2 0 first 10 1 227 6 3.18 0.0399982929229736 1 0 -1 0 -0.0235574 -0.02365956 -0.02349704 1000 1000 1000 -0.0235574 -0.02365956 -0.02349704 1000 1000 1000 -0.02221004 -0.0222651 -0.02216861 -0.02207685 -0.02228072 1000 -0.02221004 -0.0222651 -0.02216861 -0.02207685 -0.02228072 1000
lala 12 0.3 1 first 0 1 228 4 1.32 0.679997682571411 -1 0 1 1 -0.02344915 -0.02338242 -0.02366276 1000 1000 1000 -0.02344915 -0.02338242 -0.02366276 1000 1000 1000 -0.02479701 -0.02493875 -0.02480373 -0.02486132 -0.02510205 1000 -0.02479701 -0.02493875 -0.02480373 -0.02486132 -0.02510205 1000
lala 11 0.3 1 second 6 1 229 4 1.62 2.95999574661255 1 0 1 0 -0.02519643 -0.02557762 -0.02544769 -0.02489502 -0.02510255 1000 -0.02519643 -0.02557762 -0.02544769 -0.02489502 -0.02510255 1000 -0.02671747 -0.02640329 -0.02653217 -0.0269301 -0.02721385 1000 -0.02671747 -0.02640329 -0.02653217 -0.0269301 -0.02721385 1000
lala 8 1.2 1 second 14 1 230 5 1.65 1.17999720573425 0 0 1 1 0.02666658 0.03438767 0.03949976 0.03844662 0.03395786 1000 0.02666658 0.03438767 0.03949976 0.03844662 0.03395786 1000 -0.00409113 -0.002022173 0.001790023 0.005641265 0.004872343 1000 -0.00409113 -0.002022173 0.001790023 0.005641265 0.004872343 1000
lala 16 0.3 0 second 8 1 231 5 1.65 3.41999530792236 1 0 -1 0 -0.01031714 -0.01326031 -0.01656107 -0.0194942 -0.02056206 1000 -0.01031714 -0.01326031 -0.01656107 -0.0194942 -0.02056206 1000 -0.01051962 -0.0105145 -0.007266895 -0.006248205 -0.005123605 1000 -0.01051962 -0.0105145 -0.007266895 -0.006248205 -0.005123605 1000
lala 12 0.3 0 first 6 1 232 4 1.32 1.37999701499939 1 0 -1 0 -0.008169762 -0.007578373 -0.007354453 1000 1000 1000 -0.008169762 -0.007578373 -0.007354453 1000 1000 1000 -0.006817121 -0.007223405 -0.007217627 -0.00734028 -0.00784157 1000 -0.006817121 -0.007223405 -0.007217627 -0.00734028 -0.00784157 1000
lala 13 0.3 1 first 0 1 233 4 1.32 1.7199969291687 -1 0 1 1 -0.005833166 -0.005576878 -0.005344132 1000 1000 1000 -0.005833166 -0.005576878 -0.005344132 1000 1000 1000 -0.006011129 -0.005840327 -0.00579601 -0.006192956 -0.006822039 1000 -0.006011129 -0.005840327 -0.00579601 -0.006192956 -0.006822039 1000
lala 26 76.8 1 second 17 1 234 6 1.98 1.21999716758728 0 1 1 1 -0.003702845 -0.004077753 -0.004457751 -0.004120715 -0.004335805 1000 -0.003702845 -0.004077753 -0.004457751 -0.004120715 -0.004335805 1000 -0.008668548 -0.007689318 -0.006973255 -0.006692561 -0.006234028 1000 -0.008668548 -0.007689318 -0.006973255 -0.006692561 -0.006234028 1000
lala 12 4.8 1 first 9 1 235 5 1.65 1.01999735832214 1 1 1 1 -0.003456195 -0.003774159 -0.003916077 1000 1000 1000 -0.003456195 -0.003774159 -0.003916077 1000 1000 1000 -0.006366335 -0.009281086 -0.01085282 -0.00917543 -0.007984206 1000 -0.006366335 -0.009281086 -0.01085282 -0.00917543 -0.007984206 1000
lala 14 0.6 1 first 0 1 236 4 1.32 0.579997777938843 -1 0 1 1 -0.0001849473 0.0004740238 -0.0003473046 1000 1000 1000 -0.0001849473 0.0004740238 -0.0003473046 1000 1000 1000 0.001814112 0.0023728 0.001980144 0.001732465 0.0006423991 1000 0.001814112 0.0023728 0.001980144 0.001732465 0.0006423991 1000
lala 10 2.4 1 first 16 1 237 6 1.98 2.05999660491943 0 0 1 1 0.002951717 0.001603365 0.001711193 1000 1000 1000 0.002951717 0.001603365 0.001711193 1000 1000 1000 0.004115515 0.003697858 0.004361642 0.004499154 0.004401078 1000 0.004115515 0.003697858 0.004361642 0.004499154 0.004401078 1000
lala 14 38.4 1 first 11 1 238 6 1.98 1.03999733924866 1 1 1 1 0.007750212 0.007425797 0.007012664 1000 1000 1000 0.007750212 0.007425797 0.007012664 1000 1000 1000 0.004752346 0.005577427 0.005219684 0.004730029 0.004695165 1000 0.004752346 0.005577427 0.005219684 0.004730029 0.004695165 1000
lala 10 2.4 1 second 13 1 239 4 1.32 0.01999831199646 0 1 1 1 0.006588435 0.006553054 0.006100005 0.006454934 0.00709653 1000 0.006588435 0.006553054 0.006100005 0.006454934 0.00709653 1000 0.006333828 0.00610363 0.005765956 0.005212692 0.005097082 1000 0.006333828 0.00610363 0.005765956 0.005212692 0.005097082 1000
lala 12 1.2 1 second 10 1 240 6 4.38 0.99999737739563 1 0 1 0 -0.06908146 -0.06235992 -0.0538377 -0.0439605 -0.0401623 1000 -0.06908146 -0.06235992 -0.0538377 -0.0439605 -0.0401623 1000 -0.03883829 -0.03851607 -0.03824103 -0.03823375 -0.03880149 1000 -0.03883829 -0.03851607 -0.03824103 -0.03823375 -0.03880149 1000
lala 11 4.8 0 first 12 1 241 4 1.32 0.259998083114624 0 0 -1 1 -0.01970256 -0.01578532 -0.01126693 1000 1000 1000 -0.01970256 -0.01578532 -0.01126693 1000 1000 1000 0.007511923 0.006719363 0.005969649 0.006352727 0.006410542 1000 0.007511923 0.006719363 0.005969649 0.006352727 0.006410542 1000
lala 15 0.15 1 first 5 1 242 6 3.630001 1.61999702453613 -1 1 1 0 0.00694934 0.007386084 0.007338648 1000 1000 1000 0.00694934 0.007386084 0.007338648 1000 1000 1000 0.008605993 0.008898226 0.008863544 0.009058122 0.009537742 1000 0.008605993 0.008898226 0.008863544 0.009058122 0.009537742 1000
lala 16 0.3 1 second 5 1 243 6 3.330001 0.0599982738494873 -1 1 1 1 0.01184651 0.01094077 0.01072139 0.01000113 0.009019258 1000 0.01184651 0.01094077 0.01072139 0.01000113 0.009019258 1000 -3.261981E-05 -0.0004068679 -0.0001293486 -0.001087487 -0.002911344 1000 -3.261981E-05 -0.0004068679 -0.0001293486 -0.001087487 -0.002911344 1000
lala 11 4.8 1 first 16 1 244 6 1.98 0.01999831199646 0 0 1 0 -0.00475167 -0.004579625 -0.004556117 1000 1000 1000 -0.00475167 -0.004579625 -0.004556117 1000 1000 1000 -0.001632831 -0.00168431 -0.00194882 -0.001890165 -0.00153083 1000 -0.001632831 -0.00168431 -0.00194882 -0.001890165 -0.00153083 1000
lala 20 0.075 1 first 1 1 245 4 2.52 1.31999707221985 -1 1 1 1 -0.0003406683 -0.0008888048 -0.0004826863 1000 1000 1000 -0.0003406683 -0.0008888048 -0.0004826863 1000 1000 1000 -0.0009755052 -0.00120551 -0.001180101 -0.001773587 -0.001117598 1000 -0.0009755052 -0.00120551 -0.001180101 -0.001773587 -0.001117598 1000
lala 13 9.6 1 second 9 1 246 5 1.65 0.379997968673706 1 1 1 1 0.0009675091 0.0007593082 0.001057285 0.0007187988 0.0009493668 1000 0.0009675091 0.0007593082 0.001057285 0.0007187988 0.0009493668 1000 0.0002119065 -0.0005690361 0.0001984591 -0.0006520103 -0.00101028 1000 0.0002119065 -0.0005690361 0.0001984591 -0.0006520103 -0.00101028 1000
lala 13 0.075 1 second 4 1 247 6 3.555 1.51999688148499 -1 0 1 0 0.0003724456 0.0003213061 -7.986778E-05 -0.0005096263 0.0003064683 1000 0.0003724456 0.0003213061 -7.986778E-05 -0.0005096263 0.0003064683 1000 0.0004516536 0.0002150857 -0.0005961629 -0.005976159 -0.01779395 1000 0.0004516536 0.0002150857 -0.0005961629 -0.005976159 -0.01779395 1000
lala 17 0.15 1 first 8 1 248 5 1.8 1.75999689102173 1 0 1 1 0.006415286 0.008855226 0.01259324 1000 1000 1000 0.006415286 0.008855226 0.01259324 1000 1000 1000 0.00489672 -0.004137322 -0.02199443 -0.02571538 -0.02868858 1000 0.00489672 -0.004137322 -0.02199443 -0.02571538 -0.02868858 1000
lala 18 9.6 1 first 15 1 249 5 1.65 0.499997854232788 0 1 1 1 0.005042923 0.003642341 0.002257718 1000 1000 1000 0.005042923 0.003642341 0.002257718 1000 1000 1000 0.005206474 0.003305045 0.001707322 0.0002543596 8.895976E-05 1000 0.005206474 0.003305045 0.001707322 0.0002543596 8.895976E-05 1000
lala 9 1.2 0 second 14 1 250 5 1.65 4.55999422073364 0 0 -1 1 -0.01262022 -0.01279076 -0.01401315 -0.01364906 -0.01370856 1000 -0.01262022 -0.01279076 -0.01401315 -0.01364906 -0.01370856 1000 -0.02606074 -0.02588134 -0.02496579 -0.02403645 -0.02292408 1000 -0.02606074 -0.02588134 -0.02496579 -0.02403645 -0.02292408 1000
lala 15 76.8 1 second 11 1 251 6 1.98 0.359997987747192 1 1 1 1 -0.007110939 -0.008062318 -0.009085859 -0.008622811 -0.00848846 1000 -0.007110939 -0.008062318 -0.009085859 -0.008622811 -0.00848846 1000 -0.01271113 -0.01320385 -0.01395955 -0.01472075 -0.01502787 1000 -0.01271113 -0.01320385 -0.01395955 -0.01472075 -0.01502787 1000
lala 15 1.2 1 first 0 1 252 4 1.32 0.579997777938843 -1 0 1 0 -0.01824373 -0.01853594 -0.0189568 1000 1000 1000 -0.01824373 -0.01853594 -0.0189568 1000 1000 1000 -0.03216637 -0.03160378 -0.02968774 -0.02818132 -0.02682003 1000 -0.03216637 -0.03160378 -0.02968774 -0.02818132 -0.02682003 1000
lala 27 76.8 1 second 17 1 253 6 1.98 0.259998083114624 0 1 1 1 -0.02227348 -0.02205262 -0.02198651 -0.0216609 -0.02137347 1000 -0.02227348 -0.02205262 -0.02198651 -0.0216609 -0.02137347 1000 -0.02116377 -0.02145027 -0.02140003 -0.02149316 -0.02126304 1000 -0.02116377 -0.02145027 -0.02140003 -0.02149316 -0.02126304 1000
lala 11 4.8 1 first 13 1 254 4 1.32 0.159998178482056 0 1 1 1 -0.01911447 -0.01842675 -0.01809685 1000 1000 1000 -0.01911447 -0.01842675 -0.01809685 1000 1000 1000 -0.01381851 -0.01366685 -0.01356479 -0.01338825 -0.0138498 1000 -0.01381851 -0.01366685 -0.01356479 -0.01338825 -0.0138498 1000
lala 12 9.6 1 second 7 1 255 4 1.32 0.359997987747192 1 1 1 0 -0.01340377 -0.0134272 -0.01370715 -0.01385769 -0.01401129 1000 -0.01340377 -0.0134272 -0.01370715 -0.01385769 -0.01401129 1000 -0.01249112 -0.01243034 -0.01214202 -0.01210459 -0.01223639 1000 -0.01249112 -0.01243034 -0.01214202 -0.01210459 -0.01223639 1000
lala 12 9.6 1 second 13 1 256 4 1.32 0.159998178482056 0 1 1 1 -0.01101787 -0.01059393 -0.01035665 -0.01009768 -0.01028391 1000 -0.01101787 -0.01059393 -0.01035665 -0.01009768 -0.01028391 1000 -0.008517481 -0.008199815 -0.005945675 -0.005460006 -0.00668967 1000 -0.008517481 -0.008199815 -0.005945675 -0.005460006 -0.00668967 1000
lala 13 0.6 1 first 10 1 257 6 3.78 0.01999831199646 1 0 1 0 -0.007247307 -0.008373714 -0.008004847 1000 1000 1000 -0.007247307 -0.008373714 -0.008004847 1000 1000 1000 -0.007769012 -0.008364952 -0.008275359 -0.008289248 -0.008412169 1000 -0.007769012 -0.008364952 -0.008275359 -0.008289248 -0.008412169 1000
lala 13 19.2 0 second 7 1 258 4 1.32 3.25999546051025 1 1 -1 0 -0.009108935 -0.009426101 -0.008666419 -0.008932856 -0.008821269 1000 -0.009108935 -0.009426101 -0.008666419 -0.008932856 -0.008821269 1000 -0.009710976 -0.009864463 -0.009647291 -0.009858393 -0.009958335 1000 -0.009710976 -0.009864463 -0.009647291 -0.009858393 -0.009958335 1000
lala 17 0.6 1 second 5 1 259 6 2.730001 0.419997930526733 -1 1 1 1 -0.006901994 -0.007049984 -0.006760441 -0.006790599 -0.007112384 1000 -0.006901994 -0.007049984 -0.006760441 -0.006790599 -0.007112384 1000 -0.00635974 -0.005902064 -0.005365232 -0.005501691 -0.005581015 1000 -0.00635974 -0.005902064 -0.005365232 -0.005501691 -0.005581015 1000
lala 14 2.4 1 second 2 1 260 5 1.65 0.159998178482056 -1 0 1 1 -0.005190559 -0.004329941 -0.004200887 -0.003641519 -0.003459848 1000 -0.005190559 -0.004329941 -0.004200887 -0.003641519 -0.003459848 1000 -0.002024005 -0.001562492 -0.001419806 -0.001013166 6.368362E-05 1000 -0.002024005 -0.001562492 -0.001419806 -0.001013166 6.368362E-05 1000
lala 18 1.2 1 first 5 1 261 6 1.98 0.839997529983521 -1 1 1 1 0.000256587 0.0003439046 0.001016133 1000 1000 1000 0.000256587 0.0003439046 0.001016133 1000 1000 1000 -0.02466092 -0.0273116 -0.02534981 -0.02258002 -0.01989094 1000 -0.02466092 -0.0273116 -0.02534981 -0.02258002 -0.01989094 1000
lala 18 0.075 1 first 8 1 262 5 1.725 2.33999633789063 1 0 1 0 -0.0157418 -0.01380347 -0.01112208 1000 1000 1000 -0.0157418 -0.01380347 -0.01112208 1000 1000 1000 -0.01012819 -0.00975553 -0.01014861 -0.01007695 -0.009706371 1000 -0.01012819 -0.00975553 -0.01014861 -0.01007695 -0.009706371 1000
lala 13 19.2 1 first 13 1 263 4 1.32 2.05999660491943 0 1 1 0 -0.009170983 -0.009217257 -0.009475213 1000 1000 1000 -0.009170983 -0.009217257 -0.009475213 1000 1000 1000 -0.009605714 -0.008563415 -0.008296699 -0.007870155 -0.008240728 1000 -0.009605714 -0.008563415 -0.008296699 -0.007870155 -0.008240728 1000
lala 28 76.8 1 first 17 1 264 6 1.98 0.859997510910034 0 1 1 1 -0.005413438 -0.005991983 -0.00575316 1000 1000 1000 -0.005413438 -0.005991983 -0.00575316 1000 1000 1000 -0.002591981 -0.002280015 -0.002717908 -0.002793779 -0.00274736 1000 -0.002591981 -0.002280015 -0.002717908 -0.002793779 -0.00274736 1000
lala 14 0.6 0 first 10 1 265 6 3.18 2.21999645233154 1 0 -1 1 -0.003320217 -0.003272369 -0.003280793 1000 1000 1000 -0.003320217 -0.003272369 -0.003280793 1000 1000 1000 0.001487078 0.001981484 0.001522884 0.001073312 0.001671266 1000 0.001487078 0.001981484 0.001522884 0.001073312 0.001671266 1000
lala 19 2.4 0 first 5 1 266 6 1.98 1.45999693870544 -1 1 -1 0 0.00249538 0.003162433 0.007116169 1000 1000 1000 0.00249538 0.003162433 0.007116169 1000 1000 1000 -0.04238867 -0.05468426 -0.0580362 -0.06056732 -0.06630531 1000 -0.04238867 -0.05468426 -0.0580362 -0.06056732 -0.06630531 1000
lala 11 0.3 1 first 3 1 267 5 1.95 0.979997396469116 -1 1 1 1 -0.01908678 -0.01798625 -0.01802815 1000 1000 1000 -0.01908678 -0.01798625 -0.01802815 1000 1000 1000 -0.03001758 -0.02810016 -0.02651192 -0.02576389 -0.02466521 1000 -0.03001758 -0.02810016 -0.02651192 -0.02576389 -0.02466521 1000
lala 15 0.3 0 first 10 1 268 6 3.48 2.23999643325806 1 0 -1 1 -0.02273493 -0.02247354 -0.02223555 1000 1000 1000 -0.02273493 -0.02247354 -0.02223555 1000 1000 1000 -0.02054925 -0.02043419 -0.02008577 -0.0202089 -0.02065647 1000 -0.02054925 -0.02043419 -0.02008577 -0.0202089 -0.02065647 1000
lala 12 2.4 1 first 12 1 269 4 3.72 2.03999662399292 0 0 1 1 0.00913528 0.02871358 0.03196688 1000 1000 1000 0.00913528 0.02871358 0.03196688 1000 1000 1000 0.03247965 0.03205567 0.0306379 0.02942307 0.02963336 1000 0.03247965 0.03205567 0.0306379 0.02942307 0.02963336 1000
lala 19 19.2 1 second 15 1 270 5 1.65 0.39999794960022 0 1 1 0 -0.01317605 -0.01896803 -0.02004797 -0.01800743 -0.01375369 1000 -0.01317605 -0.01896803 -0.02004797 -0.01800743 -0.01375369 1000 -0.01256355 -0.01309418 -0.01363855 -0.01335301 -0.0123877 1000 -0.01256355 -0.01309418 -0.01363855 -0.01335301 -0.0123877 1000
lala 20 38.4 1 first 15 1 271 5 1.65 0.39999794960022 0 1 1 0 -0.01164162 -0.01052501 -0.0101978 1000 1000 1000 -0.01164162 -0.01052501 -0.0101978 1000 1000 1000 -0.004673245 -0.004682591 -0.003649601 -0.003240682 -0.002440565 1000 -0.004673245 -0.004682591 -0.003649601 -0.003240682 -0.002440565 1000
lala 10 0.6 1 second 14 1 272 5 2.25 0.519997835159302 0 0 1 0 0.0009999458 0.001681358 0.00203314 0.002335659 0.002521795 1000 0.0009999458 0.001681358 0.00203314 0.002335659 0.002521795 1000 0.004719371 0.005084359 0.004757199 0.005221861 0.005520056 1000 0.004719371 0.005084359 0.004757199 0.005221861 0.005520056 1000
lala 21 0.075 1 first 1 1 273 4 2.445 2.87999582290649 -1 1 1 0 0.007390516 0.007675228 0.007693162 1000 1000 1000 0.007390516 0.007675228 0.007693162 1000 1000 1000 0.005986435 0.005393638 0.005888176 0.006229804 0.006578245 1000 0.005986435 0.005393638 0.005888176 0.006229804 0.006578245 1000
lala 16 2.4 1 first 0 1 274 4 1.32 2.01999664306641 -1 0 1 0 -0.01935123 -0.02137918 -0.02464378 1000 1000 1000 -0.01935123 -0.02137918 -0.02464378 1000 1000 1000 -0.01795989 -0.01689024 -0.0147418 -0.01480936 -0.01629982 1000 -0.01795989 -0.01689024 -0.0147418 -0.01480936 -0.01629982 1000
lala 16 153.6 1 first 11 1 275 6 1.98 1.69999694824219 1 1 1 1 -0.01329537 -0.01314912 -0.01330277 1000 1000 1000 -0.01329537 -0.01314912 -0.01330277 1000 1000 1000 -0.01715576 -0.01655106 -0.01581723 -0.01535298 -0.01497057 1000 -0.01715576 -0.01655106 -0.01581723 -0.01535298 -0.01497057 1000
lala 12 0.3 1 second 3 1 276 5 1.65 0.23999810218811 -1 1 1 0 -0.01474597 -0.01541232 -0.01577483 -0.01612063 -0.01617409 1000 -0.01474597 -0.01541232 -0.01577483 -0.01612063 -0.01617409 1000 -0.01174265 -0.01116037 -0.01072578 -0.01038243 -0.01002917 1000 -0.01174265 -0.01116037 -0.01072578 -0.01038243 -0.01002917 1000
lala 22 0.15 1 second 1 1 277 4 2.295 1.67999696731567 -1 1 1 0 -0.008289177 -0.008402918 -0.008388197 -0.008572912 -0.008775651 1000 -0.008289177 -0.008402918 -0.008388197 -0.008572912 -0.008775651 1000 -0.007292107 -0.005531874 -0.004840454 -0.004611093 -0.004715297 1000 -0.007292107 -0.005531874 -0.004840454 -0.004611093 -0.004715297 1000
lala 20 1.2 1 first 5 1 278 6 3.18 0.599997758865356 -1 1 1 0 -0.00151333 -0.002154796 -0.002563717 1000 1000 1000 -0.00151333 -0.002154796 -0.002563717 1000 1000 1000 0.001373545 0.001653142 0.002453358 0.002749328 0.003330703 1000 0.001373545 0.001653142 0.002453358 0.002749328 0.003330703 1000
lala 11 0.3 1 first 14 1 279 5 1.95 0.939997434616089 0 0 1 1 0.009424258 0.009092298 0.008760938 1000 1000 1000 0.009424258 0.009092298 0.008760938 1000 1000 1000 0.003309209 0.003787496 0.004429096 0.00483682 0.005503344 1000 0.003309209 0.003787496 0.004429096 0.00483682 0.005503344 1000
lala 13 0.3 1 second 3 1 280 5 1.65 1.37999701499939 -1 1 1 1 0.01357234 0.01392896 0.01446853 0.0147678 0.01412823 1000 0.01357234 0.01392896 0.01446853 0.0147678 0.01412823 1000 0.0101555 0.01065813 0.01124095 0.01192774 0.01252585 1000 0.0101555 0.01065813 0.01124095 0.01192774 0.01252585 1000
lala 21 0.6 1 second 5 1 281 6 2.58 0.659997701644897 -1 1 1 1 0.01605726 0.01542885 0.01454237 0.01441243 0.01407409 1000 0.01605726 0.01542885 0.01454237 0.01441243 0.01407409 1000 0.01591068 0.01718972 0.01881908 0.0198593 0.02147321 1000 0.01591068 0.01718972 0.01881908 0.0198593 0.02147321 1000
lala 13 1.2 1 second 12 1 282 4 2.52 0.01999831199646 0 0 1 0 0.02079834 0.02030556 0.02021065 0.01974822 0.01944123 1000 0.02079834 0.02030556 0.02021065 0.01974822 0.01944123 1000 0.01731352 0.01749566 0.01728098 0.01628616 0.01545767 1000 0.01731352 0.01749566 0.01728098 0.01628616 0.01545767 1000
lala 14 38.4 1 second 13 1 283 4 1.32 0.01999831199646 0 1 1 0 0.02132664 0.02174149 0.0221078 0.02240499 0.0228897 1000 0.02132664 0.02174149 0.0221078 0.02240499 0.0228897 1000 0.02604925 0.02624107 0.0263332 0.02596638 0.02572911 1000 0.02604925 0.02624107 0.0263332 0.02596638 0.02572911 1000
lala 16 0.3 1 second 10 1 284 6 3.78 0.599997758865356 1 0 1 1 0.0193811 0.0183582 0.01790101 0.01807608 0.01856498 1000 0.0193811 0.0183582 0.01790101 0.01807608 0.01856498 1000 0.02200984 0.02293858 0.02275834 0.0208051 0.01962852 1000 0.02200984 0.02293858 0.02275834 0.0208051 0.01962852 1000
lala 15 4.8 1 second 2 1 285 5 1.65 1.03999733924866 -1 0 1 1 0.02133645 0.02136843 0.02112205 0.02059233 0.02004769 1000 0.02133645 0.02136843 0.02112205 0.02059233 0.02004769 1000 0.02148575 0.02216315 0.02204773 0.02214867 0.02302853 1000 0.02148575 0.02216315 0.02204773 0.02214867 0.02302853 1000
lala 22 0.6 1 second 5 1 286 6 1.98 1.0999972820282 -1 1 1 0 0.0276817 0.02804499 0.02842478 0.02878281 0.02875791 1000 0.0276817 0.02804499 0.02842478 0.02878281 0.02875791 1000 0.02852866 0.02801513 0.02785257 0.0275414 0.02714116 1000 0.02852866 0.02801513 0.02785257 0.0275414 0.02714116 1000
lala 13 0.15 1 second 6 1 287 4 1.47 4.09999465942383 1 0 1 0 0.0275676 0.02811855 0.02879598 0.02891147 0.02873053 1000 0.0275676 0.02811855 0.02879598 0.02891147 0.02873053 1000 0.02726058 0.02725216 0.02711246 0.02677552 0.0262741 1000 0.02726058 0.02725216 0.02711246 0.02677552 0.0262741 1000
lala 17 0.15 1 first 10 1 288 6 3.63 0.259998083114624 1 0 1 0 -0.02141244 -0.01246659 -0.005161518 1000 1000 1000 -0.02141244 -0.01246659 -0.005161518 1000 1000 1000 -0.01084044 -0.01409806 -0.01493825 -0.01585535 -0.01600747 1000 -0.01084044 -0.01409806 -0.01493825 -0.01585535 -0.01600747 1000
lala 17 4.8 1 second 0 1 289 4 1.32 1.7199969291687 -1 0 1 0 -0.01667834 -0.01732692 -0.01701885 -0.01796442 -0.01765267 1000 -0.01667834 -0.01732692 -0.01701885 -0.01796442 -0.01765267 1000 -0.03159469 -0.02948876 -0.02690542 -0.02466263 -0.02268644 1000 -0.03159469 -0.02948876 -0.02690542 -0.02466263 -0.02268644 1000
lala 12 9.6 1 first 16 1 290 6 1.98 1.93999671936035 0 0 1 0 -0.0228689 -0.02297635 -0.02314777 1000 1000 1000 -0.0228689 -0.02297635 -0.02314777 1000 1000 1000 -0.02233064 -0.02242238 -0.02198909 -0.02217386 -0.02236276 1000 -0.02233064 -0.02242238 -0.02198909 -0.02217386 -0.02236276 1000
lala 14 0.075 1 second 4 1 291 6 3.48 1.93999671936035 -1 0 1 1 -0.02385376 -0.02413188 -0.02475586 -0.02457603 -0.02451748 1000 -0.02385376 -0.02413188 -0.02475586 -0.02457603 -0.02451748 1000 -0.02427997 -0.02458932 -0.02494693 -0.02477513 -0.02517487 1000 -0.02427997 -0.02458932 -0.02494693 -0.02477513 -0.02517487 1000
lala 29 153.6 1 first 17 1 292 6 1.98 1.43999695777893 0 1 1 0 -0.02352927 -0.02383226 -0.02443015 1000 1000 1000 -0.02352927 -0.02383226 -0.02443015 1000 1000 1000 -0.02297601 -0.02333312 -0.02458264 -0.02482903 -0.02517629 1000 -0.02297601 -0.02333312 -0.02458264 -0.02482903 -0.02517629 1000
lala 18 0.15 1 second 10 1 293 6 3.48 0.259998083114624 1 0 1 1 0.02641575 0.02866819 0.02859847 0.02958231 0.03407098 1000 0.02641575 0.02866819 0.02859847 0.02958231 0.03407098 1000 0.02625079 0.02638422 0.02455765 0.02442985 0.02155283 1000 0.02625079 0.02638422 0.02455765 0.02442985 0.02155283 1000
lala 19 0.075 1 first 8 1 294 5 1.65 1.13999724388123 1 0 1 0 0.01697582 0.01573876 0.01574028 1000 1000 1000 0.01697582 0.01573876 0.01574028 1000 1000 1000 0.01965393 0.02008991 0.0212549 0.0215625 0.02203452 1000 0.01965393 0.02008991 0.0212549 0.0215625 0.02203452 1000
lala 15 76.8 1 second 13 1 295 4 1.32 0.01999831199646 0 1 1 0 0.02094485 0.02097012 0.02131854 0.02196543 0.02270634 1000 0.02094485 0.02097012 0.02131854 0.02196543 0.02270634 1000 0.02557928 0.02642754 0.02682198 0.02706276 0.02695857 1000 0.02557928 0.02642754 0.02682198 0.02706276 0.02695857 1000
lala 14 9.6 1 second 7 1 296 4 10.92 0.0999982357025146 1 1 1 1 0.02190347 0.02121191 0.02102216 0.02132193 0.02201996 1000 0.02190347 0.02121191 0.02102216 0.02132193 0.02201996 1000 0.0249285 0.02562087 0.02633916 0.027407 0.02838978 1000 0.0249285 0.02562087 0.02633916 0.027407 0.02838978 1000
lala 23 0.6 0 second 5 1 297 6 1.98 0.419997930526733 -1 1 -1 1 0.01914765 0.01856513 0.01748863 0.01642994 0.0157986 1000 0.01914765 0.01856513 0.01748863 0.01642994 0.0157986 1000 0.01459307 0.01440407 0.01497702 0.01561035 0.01575879 1000 0.01459307 0.01440407 0.01497702 0.01561035 0.01575879 1000
lala 16 153.6 0 second 13 1 298 4 1.32 0.459997892379761 0 1 -1 1 0.0188367 0.01919028 0.01905082 0.01916781 0.01880865 1000 0.0188367 0.01919028 0.01905082 0.01916781 0.01880865 1000 0.01499835 0.01452787 0.01398287 0.0135361 0.01362912 1000 0.01499835 0.01452787 0.01398287 0.0135361 0.01362912 1000
lala 16 9.6 0 first 2 1 299 5 1.65 1.95999670028687 -1 0 -1 1 0.01844339 0.01862531 0.01936417 1000 1000 1000 0.01844339 0.01862531 0.01936417 1000 1000 1000 -0.005402013 -0.01643027 -0.02412267 -0.03077432 -0.03252157 1000 -0.005402013 -0.01643027 -0.02412267 -0.03077432 -0.03252157 1000
lala 14 19.2 1 second 9 1 300 5 1.65 0.919997453689575 1 1 1 1 -0.01566744 -0.01561837 -0.0168222 -0.01764255 -0.01788918 1000 -0.01566744 -0.01561837 -0.0168222 -0.01764255 -0.01788918 1000 -0.02061914 -0.01629676 -0.01449282 -0.0138521 -0.01315855 1000 -0.02061914 -0.01629676 -0.01449282 -0.0138521 -0.01315855 1000
lala 24 0.3 1 first 5 1 301 6 2.28 1.73999691009521 -1 1 1 0 -0.01487789 -0.01228963 -0.01385917 1000 1000 1000 -0.01487789 -0.01228963 -0.01385917 1000 1000 1000 -0.009574301 -0.01664967 -0.02276436 -0.02377397 -0.01893667 1000 -0.009574301 -0.01664967 -0.02276436 -0.02377397 -0.01893667 1000
lala 17 76.8 1 second 13 1 302 4 12 0.339998006820679 0 1 1 0 -0.006896946 -0.007967129 -0.0104947 -0.01604469 -0.01854439 1000 -0.006896946 -0.007967129 -0.0104947 -0.01604469 -0.01854439 1000 -0.02049575 -0.0213851 -0.01864135 -0.01922143 -0.01749296 1000 -0.02049575 -0.0213851 -0.01864135 -0.01922143 -0.01749296 1000
lala 15 4.8 1 first 7 1 303 4 6.12 2.47999620437622 1 1 1 1 -0.01437233 -0.01436258 -0.01450921 1000 1000 1000 -0.01437233 -0.01436258 -0.01450921 1000 1000 1000 -0.02048912 -0.01993907 -0.01945306 -0.01873064 -0.01796639 1000 -0.02048912 -0.01993907 -0.01945306 -0.01873064 -0.01796639 1000
lala 15 38.4 0 first 9 1 304 5 1.65 0.299998044967651 1 1 -1 0 -0.02325448 -0.02415916 -0.02484172 1000 1000 1000 -0.02325448 -0.02415916 -0.02484172 1000 1000 1000 -0.01686264 -0.01631495 -0.01597563 -0.01590234 -0.01578639 1000 -0.01686264 -0.01631495 -0.01597563 -0.01590234 -0.01578639 1000
lala 14 1.2 1 first 12 1 305 4 1.32 0.199998140335083 0 0 1 0 -0.02142344 -0.02225451 -0.02263202 1000 1000 1000 -0.02142344 -0.02225451 -0.02263202 1000 1000 1000 -0.01876276 -0.01787055 -0.01753983 -0.01710217 -0.01642345 1000 -0.01876276 -0.01787055 -0.01753983 -0.01710217 -0.01642345 1000
lala 12 0.3 1 first 14 1 306 5 1.65 0.879997491836548 0 0 1 1 -0.0152985 -0.01594758 -0.01598399 1000 1000 1000 -0.0152985 -0.01594758 -0.01598399 1000 1000 1000 -0.016959 -0.01603585 -0.0152614 -0.01391916 -0.01333044 1000 -0.016959 -0.01603585 -0.0152614 -0.01391916 -0.01333044 1000
lala 20 0.075 1 first 8 1 307 5 1.65 1.33999705314636 1 0 1 1 -0.01272282 -0.01296099 -0.01334227 1000 1000 1000 -0.01272282 -0.01296099 -0.01334227 1000 1000 1000 -0.0157908 -0.01533355 -0.01428197 -0.01308962 -0.01243202 1000 -0.0157908 -0.01533355 -0.01428197 -0.01308962 -0.01243202 1000
lala 16 4.8 1 first 7 1 308 4 1.32 0.01999831199646 1 1 1 0 -0.01125348 -0.01266347 -0.0137001 1000 1000 1000 -0.01125348 -0.01266347 -0.0137001 1000 1000 1000 -0.004331829 -0.003687448 -0.002971789 -0.002671319 -0.002370062 1000 -0.004331829 -0.003687448 -0.002971789 -0.002671319 -0.002370062 1000
lala 21 0.15 0 second 8 1 309 5 1.65 0.459997892379761 1 0 -1 0 -0.001324371 -0.001596566 -0.001568524 -0.001796021 -0.002276726 1000 -0.001324371 -0.001596566 -0.001568524 -0.001796021 -0.002276726 1000 -0.003297586 -0.002487089 -0.001685654 -0.0001997881 0.0008552591 1000 -0.003297586 -0.002487089 -0.001685654 -0.0001997881 0.0008552591 1000
lala 18 38.4 1 first 13 1 310 4 1.32 0.879997491836548 0 1 1 0 0.004029839 0.004495584 0.004348849 1000 1000 1000 0.004029839 0.004495584 0.004348849 1000 1000 1000 -0.004317206 -0.005127732 -0.005009657 -0.003800978 -0.002269856 1000 -0.004317206 -0.005127732 -0.005009657 -0.003800978 -0.002269856 1000
lala 13 19.2 0 first 16 1 311 6 1.98 0.319998025894165 0 0 -1 1 0.004544486 0.004222826 0.003767311 1000 1000 1000 0.004544486 0.004222826 0.003767311 1000 1000 1000 -0.003007076 -0.001988705 0.002053178 0.004388068 0.003883677 1000 -0.003007076 -0.001988705 0.002053178 0.004388068 0.003883677 1000
lala 22 0.075 0 first 8 1 312 5 1.725 0.939997434616089 1 0 -1 1 -0.007409148 -0.007949111 -0.007859674 1000 1000 1000 -0.007409148 -0.007949111 -0.007859674 1000 1000 1000 -0.01308609 -0.009185897 -0.00699459 -0.00957413 -0.01099425 1000 -0.01308609 -0.009185897 -0.00699459 -0.00957413 -0.01099425 1000
lala 14 0.075 0 first 6 1 313 4 1.395 0.439997911453247 1 0 -1 0 -0.02062061 -0.01998409 -0.02010776 1000 1000 1000 -0.02062061 -0.01998409 -0.02010776 1000 1000 1000 -0.01237767 -0.01151264 -0.01031099 -0.009647721 -0.009261919 1000 -0.01237767 -0.01151264 -0.01031099 -0.009647721 -0.009261919 1000
lala 19 38.4 0 second 13 1 314 4 1.32 1.5399968624115 0 1 -1 0 -0.01340759 -0.01399048 -0.0139354 -0.01342167 -0.01314665 1000 -0.01340759 -0.01399048 -0.0139354 -0.01342167 -0.01314665 1000 -0.01208135 -0.01340542 -0.0133117 -0.01359121 -0.01394352 1000 -0.01208135 -0.01340542 -0.0133117 -0.01359121 -0.01394352 1000
lala 14 9.6 0 second 16 1 315 6 11.58 0.699997663497925 0 0 -1 0 -0.01501298 -0.0150525 -0.01433119 -0.01387771 -0.01345066 1000 -0.01501298 -0.0150525 -0.01433119 -0.01387771 -0.01345066 1000 -0.01018556 -0.0106458 -0.01031037 -0.009963749 -0.009952862 1000 -0.01018556 -0.0106458 -0.01031037 -0.009963749 -0.009952862 1000
lala 16 19.2 0 second 9 1 316 5 15 2.19999647140503 1 1 -1 0 -0.009915224 -0.009915664 -0.0101979 -0.01035395 -0.01021514 1000 -0.009915224 -0.009915664 -0.0101979 -0.01035395 -0.01021514 1000 -0.007002318 -0.006682244 -0.006282597 -0.005457653 -0.005516618 1000 -0.007002318 -0.006682244 -0.006282597 -0.005457653 -0.005516618 1000
lala 20 19.2 1 first 13 1 317 4 12 0.599997758865356 0 1 1 0 -0.0008230167 -0.0008663973 -0.000654496 1000 1000 1000 -0.0008230167 -0.0008663973 -0.000654496 1000 1000 1000 -0.008293354 -0.007425995 -0.007087547 -0.00579498 -0.004703828 1000 -0.008293354 -0.007425995 -0.007087547 -0.00579498 -0.004703828 1000
lala 30 307.2 1 first 17 1 318 6 1.98 1.07999730110168 0 1 1 0 -0.01665475 -0.01615328 -0.01530901 1000 1000 1000 -0.01665475 -0.01615328 -0.01530901 1000 1000 1000 -0.02171332 -0.02180513 -0.02073742 -0.0194749 -0.01855235 1000 -0.02171332 -0.02180513 -0.02073742 -0.0194749 -0.01855235 1000
lala 19 0.15 1 first 10 1 319 6 3.33 1.43999695777893 1 0 1 1 -0.01311905 -0.01327328 -0.01352283 1000 1000 1000 -0.01311905 -0.01327328 -0.01352283 1000 1000 1000 -0.01662267 -0.01576679 -0.01522636 -0.01416558 -0.01340214 1000 -0.01662267 -0.01576679 -0.01522636 -0.01416558 -0.01340214 1000
lala 21 76.8 1 second 15 1 320 5 1.65 3.09999561309814 0 1 1 0 -0.01376058 -0.0133131 -0.01262726 -0.01239004 -0.01216134 1000 -0.01376058 -0.0133131 -0.01262726 -0.01239004 -0.01216134 1000 -0.005942513 -0.004669875 -0.004734787 -0.004561666 -0.004224496 1000 -0.005942513 -0.004669875 -0.004734787 -0.004561666 -0.004224496 1000
lala 22 153.6 1 first 15 1 321 5 1.65 0.599997758865356 0 1 1 0 0.00411717 0.00384411 0.003492288 1000 1000 1000 0.00411717 0.00384411 0.003492288 1000 1000 1000 -0.003685365 -0.002566158 -0.001776484 -0.0005742571 -5.930304E-05 1000 -0.003685365 -0.002566158 -0.001776484 -0.0005742571 -5.930304E-05 1000
