subject PestNr Step_Size_OnTrial Pest_Faster Pest_Interval Condition block trial velH velH_Pest Reaction_Time velH_Subject Start_Above Response_MotionEstimation RightOrLeftxRotations_first0 xRotations_first1 xRotations_first2 xRotations_first3 xRotations_first4 xRotations_first5 yRotations_first0 yRotations_first1 yRotations_first2 yRotations_first3 yRotations_first4 yRotations_first5 xRotations_second0 xRotations_second1 xRotations_second2 xRotations_second3 xRotations_second4 xRotations_second5 yRotations_second0 yRotations_second1 yRotations_second2 yRotations_second3 yRotations_second4 yRotations_second5
lala 1 1.2 1 second 15 1 1 5 6.65 1.33999705314636 0 1 1 0 0.00745974 0.006699756 0.006388342 0.006628284 0.005878783 1000 0.00745974 0.006699756 0.006388342 0.006628284 0.005878783 1000 0.002824174 0.002754925 0.002663143 0.002820679 0.003020907 1000 0.002824174 0.002754925 0.002663143 0.002820679 0.003020907 1000
lala 1 1.2 0 second 9 1 2 5 6.65 1.59999680519104 1 1 -1 1 -0.003024223 -0.001576751 -0.001653663 -0.002386014 -0.002658967 1000 -0.003024223 -0.001576751 -0.001653663 -0.002386014 -0.002658967 1000 -0.002190239 -0.002020305 -0.001838068 -0.001851549 -0.001639554 1000 -0.002190239 -0.002020305 -0.001838068 -0.001851549 -0.001639554 1000
lala 1 1.2 1 second 3 1 3 5 6.65 0.599997758865356 -1 1 1 1 0.003629363 0.005715419 0.01321898 0.01468738 0.01262654 1000 0.003629363 0.005715419 0.01321898 0.01468738 0.01262654 1000 -9.847583E-05 0.0007909519 0.002140156 0.002397734 0.001087571 1000 -9.847583E-05 0.0007909519 0.002140156 0.002397734 0.001087571 1000
lala 1 1.2 0 second 10 1 4 6 3.96 0.539997816085815 1 0 -1 0 0.01549274 0.01544735 0.01381105 0.01459712 0.01497042 1000 0.01549274 0.01544735 0.01381105 0.01459712 0.01497042 1000 0.01784772 0.01805096 0.01830167 0.01785529 0.01847942 1000 0.01784772 0.01805096 0.01830167 0.01785529 0.01847942 1000
lala 1 1.2 1 second 17 1 5 6 7.98 0.359997987747192 0 1 1 0 0.01518305 0.01489334 0.01499312 0.01532574 0.01610856 1000 0.01518305 0.01489334 0.01499312 0.01532574 0.01610856 1000 0.01488578 0.01393794 0.01363459 0.01412023 0.01429566 1000 0.01488578 0.01393794 0.01363459 0.01412023 0.01429566 1000
lala 1 1.2 0 second 6 1 6 4 2.64 0.299998044967651 1 0 -1 1 0.01281129 0.01210637 0.0120438 0.01178344 0.01211831 1000 0.01281129 0.01210637 0.0120438 0.01178344 0.01211831 1000 0.01343814 0.01371751 0.01398971 0.01361409 0.01347628 1000 0.01343814 0.01371751 0.01398971 0.01361409 0.01347628 1000
lala 1 1.2 1 first 8 1 7 5 3.3 0.839997529983521 1 0 1 1 0.0135968 0.0134807 0.01333609 1000 1000 1000 0.0135968 0.0134807 0.01333609 1000 1000 1000 0.01310932 0.01319662 0.01312649 0.01284924 0.01333557 1000 0.01310932 0.01319662 0.01312649 0.01284924 0.01333557 1000
lala 1 1.2 1 second 4 1 8 6 3.96 0.659997701644897 -1 0 1 1 0.01412 0.009662964 0.00743932 0.01142176 0.008805223 1000 0.01412 0.009662964 0.00743932 0.01142176 0.008805223 1000 -0.01952108 -0.02062184 -0.02002878 -0.01914138 -0.01772042 1000 -0.01952108 -0.02062184 -0.02002878 -0.01914138 -0.01772042 1000
lala 2 1.2 0 second 4 1 9 6 2.76 0.419997930526733 -1 0 -1 0 0.0008724468 0.005641731 0.007008043 0.008122675 0.009135851 1000 0.0008724468 0.005641731 0.007008043 0.008122675 0.009135851 1000 0.01257019 0.01159884 0.0124721 0.01253312 0.01235498 1000 0.01257019 0.01159884 0.0124721 0.01253312 0.01235498 1000
lala 1 1.2 1 first 0 1 10 4 2.64 1.17999720573425 -1 0 1 0 0.00630739 0.002399915 -0.000343181 1000 1000 1000 0.00630739 0.002399915 -0.000343181 1000 1000 1000 -0.003158121 -0.003935626 -0.003970351 -0.003964542 -0.003899209 1000 -0.003158121 -0.003935626 -0.003970351 -0.003964542 -0.003899209 1000
lala 2 1.2 1 first 17 1 11 6 6.780001 0.599997758865356 0 1 1 1 -0.001312512 -0.001449901 -0.001847002 1000 1000 1000 -0.001312512 -0.001449901 -0.001847002 1000 1000 1000 -0.002974619 -0.002955034 -0.003207974 -0.003569966 -0.003907157 1000 -0.002974619 -0.002955034 -0.003207974 -0.003569966 -0.003907157 1000
lala 1 1.2 0 first 2 1 12 5 3.3 1.75999689102173 -1 0 -1 1 -0.006357558 -0.006043007 -0.006146966 1000 1000 1000 -0.006357558 -0.006043007 -0.006146966 1000 1000 1000 -0.007246259 -0.009854012 -0.01020421 -0.0098799 -0.01023413 1000 -0.007246259 -0.009854012 -0.01020421 -0.0098799 -0.01023413 1000
lala 2 1.2 1 second 15 1 13 5 5.45 0.319998025894165 0 1 1 0 -0.008740877 -0.009147032 -0.009224902 -0.009639191 -0.009270373 1000 -0.008740877 -0.009147032 -0.009224902 -0.009639191 -0.009270373 1000 -0.008540126 -0.00895634 -0.008800754 -0.008550302 -0.008175059 1000 -0.008540126 -0.00895634 -0.008800754 -0.008550302 -0.008175059 1000
lala 1 1.2 1 first 5 1 14 6 7.98 1.07999730110168 -1 1 1 1 -0.01218612 -0.01167227 -0.01214417 1000 1000 1000 -0.01218612 -0.01167227 -0.01214417 1000 1000 1000 -0.01256985 -0.0127684 -0.0126373 -0.0127097 -0.01191917 1000 -0.01256985 -0.0127684 -0.0126373 -0.0127097 -0.01191917 1000
lala 1 1.2 1 second 1 1 15 4 5.32 0.61999773979187 -1 1 1 0 -0.01179421 -0.01187651 -0.01198521 -0.01193141 -0.01147226 1000 -0.01179421 -0.01187651 -0.01198521 -0.01193141 -0.01147226 1000 -0.01042165 -0.01087008 -0.0112458 -0.01096065 -0.01000292 1000 -0.01042165 -0.01087008 -0.0112458 -0.01096065 -0.01000292 1000
lala 1 1.2 1 first 13 1 16 4 5.32 0.319998025894165 0 1 1 0 -0.01453043 -0.01463173 -0.0134586 1000 1000 1000 -0.01453043 -0.01463173 -0.0134586 1000 1000 1000 -0.02136198 -0.0190826 -0.01746791 -0.01584553 -0.0146219 1000 -0.02136198 -0.0190826 -0.01746791 -0.01584553 -0.0146219 1000
lala 2 1.2 0 second 8 1 17 5 2.1 0.0999982357025146 1 0 -1 1 -0.008695762 -0.01006424 -0.00620753 -0.00438532 -0.0009930712 1000 -0.008695762 -0.01006424 -0.00620753 -0.00438532 -0.0009930712 1000 -0.007585031 -0.008939657 -0.009388948 -0.009071172 -0.009287546 1000 -0.007585031 -0.008939657 -0.009388948 -0.009071172 -0.009287546 1000
lala 1 1.2 0 first 16 1 18 6 3.96 0.419997930526733 0 0 -1 1 -0.014873 -0.01827965 -0.01855046 1000 1000 1000 -0.014873 -0.01827965 -0.01855046 1000 1000 1000 -0.02202643 -0.02215288 -0.02180656 -0.02190714 -0.02197729 1000 -0.02202643 -0.02215288 -0.02180656 -0.02190714 -0.02197729 1000
lala 1 1.2 1 second 11 1 19 6 7.98 0.279998064041138 1 1 1 1 -0.01044253 -0.002592029 4.719092E-05 0.0009718731 0.005138755 1000 -0.01044253 -0.002592029 4.719092E-05 0.0009718731 0.005138755 1000 0.005635008 0.005972165 0.007851982 0.006986463 0.008041201 1000 0.005635008 0.005972165 0.007851982 0.006986463 0.008041201 1000
lala 2 1.2 0 first 1 1 20 4 4.12 1.01999735832214 -1 1 -1 1 0.0153933 0.01450427 0.01236204 1000 1000 1000 0.0153933 0.01450427 0.01236204 1000 1000 1000 0.009440755 0.008251171 0.007762772 0.007643307 0.006862158 1000 0.009440755 0.008251171 0.007762772 0.007643307 0.006862158 1000
lala 2 1.2 1 first 11 1 21 6 6.780001 0.119998216629028 1 1 1 1 0.006697251 0.006055751 0.005461797 1000 1000 1000 0.006697251 0.006055751 0.005461797 1000 1000 1000 0.01498356 0.01450545 0.01397291 0.01361198 0.01390269 1000 0.01498356 0.01450545 0.01397291 0.01361198 0.01390269 1000
lala 3 1.2 0 first 8 1 22 5 3.3 0.439997911453247 1 0 -1 0 0.0103669 0.009422328 0.01018219 1000 1000 1000 0.0103669 0.009422328 0.01018219 1000 1000 1000 0.009880769 0.009653131 0.009261622 0.00896622 0.008876774 1000 0.009880769 0.009653131 0.009261622 0.00896622 0.008876774 1000
lala 1 1.2 1 first 12 1 23 4 2.64 0.379997968673706 0 0 1 1 0.007568845 0.007064062 0.006140442 1000 1000 1000 0.007568845 0.007064062 0.006140442 1000 1000 1000 0.006351626 0.006804409 0.007381715 0.007589051 0.007487367 1000 0.006351626 0.006804409 0.007381715 0.007589051 0.007487367 1000
lala 2 1.2 1 second 5 1 24 6 6.780001 0.459997892379761 -1 1 1 0 0.00452834 0.009929872 0.02046084 0.03170984 0.03399052 1000 0.00452834 0.009929872 0.02046084 0.03170984 0.03399052 1000 -0.02026538 -0.0172068 -0.01308229 -0.01046704 -0.01101678 1000 -0.02026538 -0.0172068 -0.01308229 -0.01046704 -0.01101678 1000
lala 3 1.2 1 second 17 1 25 6 5.580001 0.199998140335083 0 1 1 0 -0.0006145785 0.001350569 0.002821463 0.00226659 0.003354955 1000 -0.0006145785 0.001350569 0.002821463 0.00226659 0.003354955 1000 0.004271192 0.003939761 0.002435163 0.002401773 0.003698091 1000 0.004271192 0.003939761 0.002435163 0.002401773 0.003698091 1000
lala 1 1.2 0 second 14 1 26 5 3.3 0.479997873306274 0 0 -1 1 0.002404514 0.003112918 0.002816033 0.002134407 0.002495092 1000 0.002404514 0.003112918 0.002816033 0.002134407 0.002495092 1000 0.002850395 0.003062794 0.002646806 0.00288015 0.002868617 1000 0.002850395 0.003062794 0.002646806 0.00288015 0.002868617 1000
lala 2 1.2 1 first 16 1 27 6 5.16 0.419997930526733 0 0 1 0 -0.001732023 -0.001093258 -0.0009290076 1000 1000 1000 -0.001732023 -0.001093258 -0.0009290076 1000 1000 1000 -0.005557197 -0.00535177 -0.004069159 -0.004548726 -0.005245329 1000 -0.005557197 -0.00535177 -0.004069159 -0.004548726 -0.005245329 1000
lala 3 1.2 0 first 4 1 28 6 3.96 0.39999794960022 -1 0 -1 1 -0.001521711 -0.0008320389 -0.0004716528 1000 1000 1000 -0.001521711 -0.0008320389 -0.0004716528 1000 1000 1000 0.0002381546 -0.0002574319 -0.0002839571 -0.0002803019 0.0002146265 1000 0.0002381546 -0.0002574319 -0.0002839571 -0.0002803019 0.0002146265 1000
lala 2 1.2 0 first 2 1 29 5 4.5 1.07999730110168 -1 0 -1 1 0.0004142919 -2.877014E-05 0.000397385 1000 1000 1000 0.0004142919 -2.877014E-05 0.000397385 1000 1000 1000 0.0009202521 0.0004766904 0.0002371573 0.0006763195 0.001109457 1000 0.0009202521 0.0004766904 0.0002371573 0.0006763195 0.001109457 1000
lala 2 1.2 1 second 9 1 30 5 7.85 0.359997987747192 1 1 1 1 0.0009704514 0.0007560148 0.001096361 0.001673128 0.001314466 1000 0.0009704514 0.0007560148 0.001096361 0.001673128 0.001314466 1000 0.001713369 0.001458394 0.001170362 0.001173279 0.0009497273 1000 0.001713369 0.001458394 0.001170362 0.001173279 0.0009497273 1000
lala 2 1.2 1 first 13 1 31 4 4.12 0.479997873306274 0 1 1 0 0.001287597 0.001956171 0.001343097 1000 1000 1000 0.001287597 0.001956171 0.001343097 1000 1000 1000 0.004686012 0.00371424 0.0008332826 0.0003904928 0.001665923 1000 0.004686012 0.00371424 0.0008332826 0.0003904928 0.001665923 1000
lala 2 1.2 1 first 14 1 32 5 4.5 1.33999705314636 0 0 1 0 -0.006086213 -0.004453386 -0.004593168 1000 1000 1000 -0.006086213 -0.004453386 -0.004593168 1000 1000 1000 -0.01081424 -0.006680892 -0.005518208 -0.003197592 -0.001075792 1000 -0.01081424 -0.006680892 -0.005518208 -0.003197592 -0.001075792 1000
lala 3 1.2 0 first 5 1 33 6 5.580001 0.599997758865356 -1 1 -1 0 -4.636494E-05 0.0001278646 -0.0001284168 1000 1000 1000 -4.636494E-05 0.0001278646 -0.0001284168 1000 1000 1000 -0.001311749 -0.002538304 -0.001879416 -0.001329695 -0.000974826 1000 -0.001311749 -0.002538304 -0.001879416 -0.001329695 -0.000974826 1000
lala 3 1.2 1 second 9 1 34 5 6.650001 0.319998025894165 1 1 1 1 -0.001480849 -0.001589722 -0.001813071 -0.002431639 -0.002605642 1000 -0.001480849 -0.001589722 -0.001813071 -0.002431639 -0.002605642 1000 0.0004786543 0.001556645 0.002054554 0.002268618 0.002530841 1000 0.0004786543 0.001556645 0.002054554 0.002268618 0.002530841 1000
lala 4 1.2 1 second 4 1 35 6 5.16 0.39999794960022 -1 0 1 1 0.001232558 0.001347768 0.001809831 0.001669234 0.001229703 1000 0.001232558 0.001347768 0.001809831 0.001669234 0.001229703 1000 0.001088485 0.001757478 0.002651063 0.002815426 0.002764788 1000 0.001088485 0.001757478 0.002651063 0.002815426 0.002764788 1000
lala 3 1.2 1 second 2 1 36 5 5.7 0.719997644424438 -1 0 1 1 0.002087998 0.002868494 0.003628429 0.004065892 0.003894039 1000 0.002087998 0.002868494 0.003628429 0.004065892 0.003894039 1000 0.00538585 0.004621541 0.004290146 0.00419026 0.003787889 1000 0.00538585 0.004621541 0.004290146 0.00419026 0.003787889 1000
lala 5 1.2 0 second 4 1 37 6 3.96 0.379997968673706 -1 0 -1 0 0.004639553 0.004270317 0.004615769 0.005230958 0.005236036 1000 0.004639553 0.004270317 0.004615769 0.005230958 0.005236036 1000 0.004302807 0.004243598 0.00453714 0.005071811 0.005311542 1000 0.004302807 0.004243598 0.00453714 0.005071811 0.005311542 1000
lala 3 1.2 0 second 16 1 38 6 3.96 0.319998025894165 0 0 -1 0 0.004277994 0.004128796 0.003723127 0.002937219 0.002042662 1000 0.004277994 0.004128796 0.003723127 0.002937219 0.002042662 1000 0.001480412 0.001731135 0.001776612 0.001878575 0.001786591 1000 0.001480412 0.001731135 0.001776612 0.001878575 0.001786591 1000
lala 6 1.2 1 second 4 1 39 6 5.16 0.23999810218811 -1 0 1 0 0.001645784 0.00116356 0.001265819 0.0018396 0.001641917 1000 0.001645784 0.00116356 0.001265819 0.0018396 0.001641917 1000 0.001916168 0.001684509 0.001849335 0.002522257 0.002269514 1000 0.001916168 0.001684509 0.001849335 0.002522257 0.002269514 1000
lala 3 1.2 0 second 13 1 40 4 2.92 0.61999773979187 0 1 -1 1 0.001912861 0.001512773 0.001278242 0.001480622 0.001394902 1000 0.001912861 0.001512773 0.001278242 0.001480622 0.001394902 1000 0.002307536 0.002171932 0.002327931 0.002425749 0.00263412 1000 0.002307536 0.002171932 0.002327931 0.002425749 0.00263412 1000
lala 4 1.2 1 second 17 1 41 6 4.380001 0.479997873306274 0 1 1 0 0.003934393 0.003508931 0.003441624 0.003416691 0.003563383 1000 0.003934393 0.003508931 0.003441624 0.003416691 0.003563383 1000 0.004598955 0.005010749 0.005405831 0.00511581 0.005608626 1000 0.004598955 0.005010749 0.005405831 0.00511581 0.005608626 1000
lala 1 1.2 1 first 7 1 42 4 5.32 0.39999794960022 1 1 1 1 0.004568871 0.004856703 0.005053221 1000 1000 1000 0.004568871 0.004856703 0.005053221 1000 1000 1000 0.004409091 0.004140951 0.004001192 0.003701158 0.004177276 1000 0.004409091 0.004140951 0.004001192 0.003701158 0.004177276 1000
lala 2 1.2 1 second 10 1 43 6 5.16 0.259998083114624 1 0 1 1 0.004735354 0.004654835 0.004735067 0.00451448 0.004309649 1000 0.004735354 0.004654835 0.004735067 0.00451448 0.004309649 1000 0.004124017 0.00411245 0.004482207 0.004378201 0.004118326 1000 0.004124017 0.00411245 0.004482207 0.004378201 0.004118326 1000
lala 3 1.2 0 first 1 1 44 4 5.32 0.639997720718384 -1 1 -1 0 0.003706263 0.003572243 0.003346606 1000 1000 1000 0.003706263 0.003572243 0.003346606 1000 1000 1000 0.003780338 0.003542881 0.004183653 0.003990316 0.003627396 1000 0.003780338 0.003542881 0.004183653 0.003990316 0.003627396 1000
lala 4 1.2 1 second 9 1 45 5 5.450001 0.319998025894165 1 1 1 0 0.002730375 0.003388122 0.003948699 0.004212176 0.004214617 1000 0.002730375 0.003388122 0.003948699 0.004212176 0.004214617 1000 0.002855896 0.003287007 0.003166475 0.002954817 0.003055544 1000 0.002855896 0.003287007 0.003166475 0.002954817 0.003055544 1000
lala 4 1.2 1 second 13 1 46 4 4.12 0.739997625350952 0 1 1 1 0.003592054 0.003528471 0.004541691 0.005265614 0.005103895 1000 0.003592054 0.003528471 0.004541691 0.005265614 0.005103895 1000 0.003774367 0.004034807 0.004324473 0.004099991 0.00389943 1000 0.003774367 0.004034807 0.004324473 0.004099991 0.00389943 1000
lala 3 1.2 1 second 14 1 47 5 3.3 0.459997892379761 0 0 1 0 0.005296542 0.00497341 0.004528599 0.004008176 0.004080248 1000 0.005296542 0.00497341 0.004528599 0.004008176 0.004080248 1000 0.005273033 0.005241845 0.005101898 0.004991317 0.00548813 1000 0.005273033 0.005241845 0.005101898 0.004991317 0.00548813 1000
lala 2 1.2 1 first 3 1 48 5 5.45 1.05999732017517 -1 1 1 0 0.005876715 0.005427292 0.004988066 1000 1000 1000 0.005876715 0.005427292 0.004988066 1000 1000 1000 0.005825131 0.005971847 0.00614371 0.006410094 0.006738809 1000 0.005825131 0.005971847 0.00614371 0.006410094 0.006738809 1000
lala 4 1.2 0 second 14 1 49 5 2.1 0.479997873306274 0 0 -1 0 0.007566638 0.007312001 0.006685777 0.006385217 0.006741593 1000 0.007566638 0.007312001 0.006685777 0.006385217 0.006741593 1000 0.007095412 0.006745446 0.006129138 0.005706257 0.006157754 1000 0.007095412 0.006745446 0.006129138 0.005706257 0.006157754 1000
lala 4 1.2 1 first 5 1 50 6 6.780001 0.479997873306274 -1 1 1 0 -0.0008179012 0.0001535486 0.0006077252 0.001153193 0.002270623 0.002175772 -0.0008179012 0.0001535486 0.0006077252 0.001153193 0.002270623 0.002175772 0.004407261 0.005408361 0.00543172 0.005189306 0.005303511 1000 0.004407261 0.005408361 0.00543172 0.005189306 0.005303511 1000
lala 4 1.2 1 first 16 1 51 6 5.16 0.519997835159302 0 0 1 1 0.007590789 0.007687367 0.007086907 1000 1000 1000 0.007590789 0.007687367 0.007086907 1000 1000 1000 0.007827521 0.007325499 0.007339662 0.007687281 0.00755512 1000 0.007827521 0.007325499 0.007339662 0.007687281 0.00755512 1000
lala 5 1.2 1 second 13 1 52 4 2.92 0.479997873306274 0 1 1 0 0.01412445 0.02190065 0.02033907 0.01476206 0.01273813 1000 0.01412445 0.02190065 0.02033907 0.01476206 0.01273813 1000 0.01315202 0.01747314 0.0235952 0.02399543 0.02300943 1000 0.01315202 0.01747314 0.0235952 0.02399543 0.02300943 1000
lala 2 1.2 0 second 0 1 53 4 1.44 0.159998178482056 -1 0 -1 0 0.001399025 0.0004010987 -0.001019879 -0.0005501429 0.0006837138 1000 0.001399025 0.0004010987 -0.001019879 -0.0005501429 0.0006837138 1000 -0.002843897 -0.003350784 -0.003544785 -0.004340305 -0.004896273 1000 -0.002843897 -0.003350784 -0.003544785 -0.004340305 -0.004896273 1000
lala 4 1.2 1 first 1 1 54 4 6.52 0.759997606277466 -1 1 1 0 -0.0143703 -0.01587752 -0.01638107 1000 1000 1000 -0.0143703 -0.01587752 -0.01638107 1000 1000 1000 -0.01990138 -0.02049771 -0.02059093 -0.02070964 -0.0196659 1000 -0.01990138 -0.02049771 -0.02059093 -0.02070964 -0.0196659 1000
lala 5 1.2 1 first 1 1 55 4 5.32 0.799997568130493 -1 1 1 1 -0.0206619 -0.02024778 -0.0206065 1000 1000 1000 -0.0206619 -0.02024778 -0.0206065 1000 1000 1000 -0.01969655 -0.01890315 -0.01898577 -0.01883168 -0.01875161 1000 -0.01969655 -0.01890315 -0.01898577 -0.01883168 -0.01875161 1000
lala 2 1.2 1 second 7 1 56 4 4.12 0.299998044967651 1 1 1 0 -0.01774118 -0.01814805 -0.01803873 -0.01828767 -0.01815137 1000 -0.01774118 -0.01814805 -0.01803873 -0.01828767 -0.01815137 1000 -0.02223591 -0.02379242 -0.02328528 -0.0220757 -0.02151889 1000 -0.02223591 -0.02379242 -0.02328528 -0.0220757 -0.02151889 1000
lala 2 1.2 1 second 6 1 57 4 3.84 0.299998044967651 1 0 1 0 -0.01844196 -0.01861353 -0.01851293 -0.01869485 -0.01877221 1000 -0.01844196 -0.01861353 -0.01851293 -0.01869485 -0.01877221 1000 -0.02134885 -0.02104248 -0.02132067 -0.0212305 -0.0210408 1000 -0.02134885 -0.02104248 -0.02132067 -0.0212305 -0.0210408 1000
lala 3 1.2 0 first 6 1 58 4 2.64 0.259998083114624 1 0 -1 0 -0.02357659 -0.02323749 -0.02237223 1000 1000 1000 -0.02357659 -0.02323749 -0.02237223 1000 1000 1000 -0.02340645 -0.02396675 -0.02402499 -0.02388692 -0.02435542 1000 -0.02340645 -0.02396675 -0.02402499 -0.02388692 -0.02435542 1000
lala 5 1.2 0 second 17 1 59 6 3.180001 0.499997854232788 0 1 -1 0 -0.008897451 -0.008395419 -0.008225445 -0.00829518 -0.0090809 1000 -0.008897451 -0.008395419 -0.008225445 -0.00829518 -0.0090809 1000 -0.01144408 -0.01105189 -0.01074627 -0.01030659 -0.01040962 1000 -0.01144408 -0.01105189 -0.01074627 -0.01030659 -0.01040962 1000
lala 3 1.2 0 second 10 1 60 6 3.96 0.559997797012329 1 0 -1 0 -0.009771029 -0.009805207 -0.009630702 -0.0095333 -0.009995232 1000 -0.009771029 -0.009805207 -0.009630702 -0.0095333 -0.009995232 1000 -0.01085019 -0.01032152 -0.009987167 -0.009611706 -0.009066232 1000 -0.01085019 -0.01032152 -0.009987167 -0.009611706 -0.009066232 1000
lala 5 1.2 1 first 14 1 61 5 3.3 0.879997491836548 0 0 1 0 -0.007239272 -0.002235309 -0.001592974 1000 1000 1000 -0.007239272 -0.002235309 -0.001592974 1000 1000 1000 -0.007791453 -0.008413914 -0.008947574 -0.009106357 -0.00815451 1000 -0.007791453 -0.008413914 -0.008947574 -0.009106357 -0.00815451 1000
lala 4 1.2 0 second 6 1 62 4 3.84 1.15999722480774 1 0 -1 0 -0.01224746 -0.01203079 -0.01178416 -0.0117224 -0.01211115 1000 -0.01224746 -0.01203079 -0.01178416 -0.0117224 -0.01211115 1000 -0.0133476 -0.01438106 -0.0147335 -0.01513799 -0.0154104 1000 -0.0133476 -0.01438106 -0.0147335 -0.01513799 -0.0154104 1000
lala 3 1.2 1 second 15 1 63 5 4.25 0.679997682571411 0 1 1 1 -0.012205 -0.009250809 -0.007174152 -0.004807808 -0.003609029 1000 -0.012205 -0.009250809 -0.007174152 -0.004807808 -0.003609029 1000 -0.0258238 -0.02449052 -0.01790151 -0.008823622 -0.005085864 1000 -0.0258238 -0.02449052 -0.01790151 -0.008823622 -0.005085864 1000
lala 5 1.2 1 second 9 1 64 5 4.250001 0.519997835159302 1 1 1 0 0.00464941 0.003484462 0.003266224 0.003766242 0.002310432 1000 0.00464941 0.003484462 0.003266224 0.003766242 0.002310432 1000 -0.009709187 -0.009209752 -0.005827719 0.0001658332 0.002106797 1000 -0.009709187 -0.009209752 -0.005827719 0.0001658332 0.002106797 1000
lala 6 1.2 1 first 17 1 65 6 4.380001 1.47999691963196 0 1 1 1 0.003439596 0.001141152 0.002399485 1000 1000 1000 0.003439596 0.001141152 0.002399485 1000 1000 1000 0.009901307 0.01049084 0.01115863 0.01132108 0.01127369 1000 0.009901307 0.01049084 0.01115863 0.01132108 0.01127369 1000
lala 6 1.2 0 second 13 1 66 4 1.72 0.339998006820679 0 1 -1 0 0.007223138 0.007221675 0.006718304 0.006080389 0.005867897 1000 0.007223138 0.007221675 0.006718304 0.006080389 0.005867897 1000 0.007867556 0.007443625 0.007870516 0.01029585 0.01127185 1000 0.007867556 0.007443625 0.007870516 0.01029585 0.01127185 1000
lala 6 1.2 0 second 1 1 67 4 4.12 1.17999720573425 -1 1 -1 1 0.01762065 0.01282816 0.008220467 0.00830846 0.01214394 1000 0.01762065 0.01282816 0.008220467 0.00830846 0.01214394 1000 0.01123705 0.01073421 0.01134691 0.01124946 0.0107865 1000 0.01123705 0.01073421 0.01134691 0.01124946 0.0107865 1000
lala 3 1.2 0 second 0 1 68 4 2.64 0.299998044967651 -1 0 -1 0 0.01347188 0.01375159 0.0139775 0.01409545 0.01391192 1000 0.01347188 0.01375159 0.0139775 0.01409545 0.01391192 1000 0.009886636 0.008905863 0.009487949 0.01011142 0.01015475 1000 0.009886636 0.008905863 0.009487949 0.01011142 0.01015475 1000
lala 6 1.2 0 second 14 1 69 5 2.1 0.179998159408569 0 0 -1 1 0.00825486 0.007581512 0.007313228 0.008066272 0.008102944 1000 0.00825486 0.007581512 0.007313228 0.008066272 0.008102944 1000 0.008710379 0.008251758 0.008816656 0.008907412 0.008729339 1000 0.008710379 0.008251758 0.008816656 0.008907412 0.008729339 1000
lala 3 1.2 1 second 7 1 70 4 2.92 2.13999652862549 1 1 1 0 0.00737694 0.009833119 0.01051435 0.007735544 0.005349493 1000 0.00737694 0.009833119 0.01051435 0.007735544 0.005349493 1000 0.007815907 0.00789603 0.0077366 0.008061245 0.008945739 1000 0.007815907 0.00789603 0.0077366 0.008061245 0.008945739 1000
lala 7 1.2 0 first 17 1 71 6 3.180001 0.199998140335083 0 1 -1 1 0.01283378 0.01220823 0.01151619 1000 1000 1000 0.01283378 0.01220823 0.01151619 1000 1000 1000 0.01132145 0.0112698 0.01146364 0.01206567 0.01213268 1000 0.01132145 0.0112698 0.01146364 0.01206567 0.01213268 1000
lala 7 1.2 0 second 13 1 72 4 2.92 0.859997510910034 0 1 -1 1 0.01468227 0.01244304 0.01578429 0.01866162 0.02070525 1000 0.01468227 0.01244304 0.01578429 0.01866162 0.02070525 1000 0.01812012 0.01814229 0.0196353 0.0220858 0.0266901 1000 0.01812012 0.01814229 0.0196353 0.0220858 0.0266901 1000
lala 3 1.2 1 second 3 1 73 5 4.25 0.299998044967651 -1 1 1 0 0.01287642 0.01421893 0.01386686 0.01337455 0.01286867 1000 0.01287642 0.01421893 0.01386686 0.01337455 0.01286867 1000 0.01110837 0.01367992 0.01377115 0.01286599 0.01343453 1000 0.01110837 0.01367992 0.01377115 0.01286599 0.01343453 1000
lala 4 1.2 0 first 15 1 74 5 3.05 0.219998121261597 0 1 -1 0 0.006113762 0.00675485 0.006632757 1000 1000 1000 0.006113762 0.00675485 0.006632757 1000 1000 1000 0.00404506 0.004556261 0.004821058 0.004813812 0.004826967 1000 0.00404506 0.004556261 0.004821058 0.004813812 0.004826967 1000
lala 8 1.2 1 first 13 1 75 4 4.12 0.379997968673706 0 1 1 0 0.002439486 0.001631769 0.001011776 1000 1000 1000 0.002439486 0.001631769 0.001011776 1000 1000 1000 -0.002373753 -0.002494979 -0.002557477 -0.003124747 -0.002496209 1000 -0.002373753 -0.002494979 -0.002557477 -0.003124747 -0.002496209 1000
lala 5 1.2 0 second 16 1 76 6 3.96 2.41999626159668 0 0 -1 1 -0.02010864 -0.01438958 -0.009582071 -0.005179198 -0.001651095 1000 -0.02010864 -0.01438958 -0.009582071 -0.005179198 -0.001651095 1000 -0.003044497 -0.0009745444 8.547832E-05 0.001227743 0.00168449 1000 -0.003044497 -0.0009745444 8.547832E-05 0.001227743 0.00168449 1000
lala 2 1.2 0 first 12 1 77 4 1.44 0.459997892379761 0 0 -1 1 0.004948994 0.00540966 0.007049144 1000 1000 1000 0.004948994 0.00540966 0.007049144 1000 1000 1000 0.00968067 0.01055423 0.01121395 0.01127013 0.01154753 1000 0.00968067 0.01055423 0.01121395 0.01127013 0.01154753 1000
lala 4 1.2 1 first 10 1 78 6 5.16 0.579997777938843 1 0 1 1 0.009025558 0.009463905 0.0099595 1000 1000 1000 0.009025558 0.009463905 0.0099595 1000 1000 1000 0.01455023 0.01480202 0.01547956 0.01573916 0.01574343 1000 0.01455023 0.01480202 0.01547956 0.01573916 0.01574343 1000
lala 4 1.2 0 first 3 1 79 5 3.05 0.299998044967651 -1 1 -1 1 0.01541463 0.01405456 0.01356326 1000 1000 1000 0.01541463 0.01405456 0.01356326 1000 1000 1000 0.00804151 0.007200436 0.008450193 0.009551821 0.00922741 1000 0.00804151 0.007200436 0.008450193 0.009551821 0.00922741 1000
lala 5 1.2 0 second 3 1 80 5 4.25 1.19999718666077 -1 1 -1 1 0.01334152 0.0114601 0.01338064 0.01520221 0.01412258 1000 0.01334152 0.0114601 0.01338064 0.01520221 0.01412258 1000 0.007909407 0.007961667 0.0107171 0.01079991 0.009534656 1000 0.007909407 0.007961667 0.0107171 0.01079991 0.009534656 1000
lala 4 1.2 1 second 0 1 81 4 3.84 0.839997529983521 -1 0 1 0 0.01383395 0.0136311 0.01308857 0.0138108 0.014102 1000 0.01383395 0.0136311 0.01308857 0.0138108 0.014102 1000 0.01904728 0.01946432 0.0192005 0.01903817 0.01957733 1000 0.01904728 0.01946432 0.0192005 0.01903817 0.01957733 1000
lala 6 1.2 0 second 9 1 82 5 3.050001 0.23999810218811 1 1 -1 0 0.01421797 0.01685728 0.0172193 0.01730875 0.01720374 1000 0.01421797 0.01685728 0.0172193 0.01730875 0.01720374 1000 0.01913716 0.0190658 0.01995652 0.02021376 0.02044156 1000 0.01913716 0.0190658 0.01995652 0.02021376 0.02044156 1000
lala 4 1.2 1 second 8 1 83 5 4.5 0.99999737739563 1 0 1 0 0.01651424 0.01468057 0.01502511 0.01579873 0.01506266 1000 0.01651424 0.01468057 0.01502511 0.01579873 0.01506266 1000 0.01004388 0.009654564 0.01075407 0.01032299 0.01017559 1000 0.01004388 0.009654564 0.01075407 0.01032299 0.01017559 1000
lala 4 1.2 0 first 7 1 84 4 1.72 0.119998216629028 1 1 -1 0 0.008946054 0.01013512 0.01008102 1000 1000 1000 0.008946054 0.01013512 0.01008102 1000 1000 1000 0.01211453 0.01170511 0.01238205 0.01283154 0.01216134 1000 0.01211453 0.01170511 0.01238205 0.01283154 0.01216134 1000
lala 5 1.2 0 first 5 1 85 6 5.580001 0.539997816085815 -1 1 -1 0 0.00914587 0.009028016 0.009030207 1000 1000 1000 0.00914587 0.009028016 0.009030207 1000 1000 1000 0.01363658 0.01387187 0.01432347 0.01436329 0.01359787 1000 0.01363658 0.01387187 0.01432347 0.01436329 0.01359787 1000
lala 8 1.2 0 second 17 1 86 6 4.380001 0.859997510910034 0 1 -1 1 0.01514819 0.0151737 0.01523538 0.01454983 0.01466447 1000 0.01514819 0.0151737 0.01523538 0.01454983 0.01466447 1000 0.01591359 0.01618926 0.01590126 0.01534882 0.01573384 1000 0.01591359 0.01618926 0.01590126 0.01534882 0.01573384 1000
lala 9 1.2 1 second 17 1 87 6 5.580001 0.479997873306274 0 1 1 0 0.01336185 0.0142708 0.01448458 0.0146512 0.01524034 1000 0.01336185 0.0142708 0.01448458 0.0146512 0.01524034 1000 0.01495955 0.01586816 0.01631187 0.01671162 0.01623307 1000 0.01495955 0.01586816 0.01631187 0.01671162 0.01623307 1000
lala 3 1.2 0 first 11 1 88 6 5.580001 1.21999716758728 1 1 -1 1 0.01703764 0.01787925 0.0175228 1000 1000 1000 0.01703764 0.01787925 0.0175228 1000 1000 1000 0.01631375 0.01613799 0.01601397 0.01575639 0.01653969 1000 0.01631375 0.01613799 0.01601397 0.01575639 0.01653969 1000
lala 3 1.2 0 second 12 1 89 4 2.64 0.299998044967651 0 0 -1 0 0.0178129 0.0173016 0.0179411 0.01778871 0.0173371 1000 0.0178129 0.0173016 0.0179411 0.01778871 0.0173371 1000 0.01754447 0.01768336 0.01821839 0.01848778 0.018686 1000 0.01754447 0.01768336 0.01821839 0.01848778 0.018686 1000
lala 10 0.6 1 second 17 1 90 6 4.980001 0.759997606277466 0 1 1 1 0.01853148 0.01882621 0.01893388 0.01985108 0.01938333 1000 0.01853148 0.01882621 0.01893388 0.01985108 0.01938333 1000 0.01747346 0.01747072 0.01748913 0.01870728 0.01713075 1000 0.01747346 0.01747072 0.01748913 0.01870728 0.01713075 1000
lala 5 1.2 1 second 15 1 91 5 4.25 0.339998006820679 0 1 1 0 0.02125213 0.02144827 0.02174393 0.02157078 0.02259401 1000 0.02125213 0.02144827 0.02174393 0.02157078 0.02259401 1000 0.01946491 0.0201888 0.01854444 0.0194238 0.02134113 1000 0.01946491 0.0201888 0.01854444 0.0194238 0.02134113 1000
lala 5 1.2 1 second 10 1 92 6 3.96 1.47999691963196 1 0 1 1 0.02245953 0.02221289 0.02211183 0.02238914 0.02248132 1000 0.02245953 0.02221289 0.02211183 0.02238914 0.02248132 1000 0.0238734 0.02401296 0.02441366 0.02524354 0.02609482 1000 0.0238734 0.02401296 0.02441366 0.02524354 0.02609482 1000
lala 6 1.2 0 second 10 1 93 6 2.76 0.219998121261597 1 0 -1 1 0.02105634 0.02096214 0.0198446 0.01858318 0.01770741 1000 0.02105634 0.02096214 0.0198446 0.01858318 0.01770741 1000 0.01435966 0.01410387 0.01355068 0.01228291 0.01167165 1000 0.01435966 0.01410387 0.01355068 0.01228291 0.01167165 1000
lala 4 1.2 1 first 11 1 94 6 6.780001 0.379997968673706 1 1 1 0 0.007098492 0.00826572 0.008285231 1000 1000 1000 0.007098492 0.00826572 0.008285231 1000 1000 1000 0.01212379 0.01328478 0.01433639 0.01475237 0.01505299 1000 0.01212379 0.01328478 0.01433639 0.01475237 0.01505299 1000
lala 9 1.2 1 first 13 1 95 4 2.92 0.859997510910034 0 1 1 1 0.01715082 0.0181693 0.01802845 1000 1000 1000 0.01715082 0.0181693 0.01802845 1000 1000 1000 0.01636999 0.01664212 0.01649552 0.01658535 0.01673627 1000 0.01636999 0.01664212 0.01649552 0.01658535 0.01673627 1000
lala 7 1.2 1 second 9 1 96 5 4.250001 0.479997873306274 1 1 1 0 0.005782457 0.003472841 0.002114727 0.003910137 0.007886369 1000 0.005782457 0.003472841 0.002114727 0.003910137 0.007886369 1000 0.007557092 0.006591399 0.007323998 0.009976987 0.01064365 1000 0.007557092 0.006591399 0.007323998 0.009976987 0.01064365 1000
lala 8 1.2 1 first 9 1 97 5 3.050001 1.01999735832214 1 1 1 1 0.005734013 0.005518419 0.006449061 1000 1000 1000 0.005734013 0.005518419 0.006449061 1000 1000 1000 0.009436794 0.008662415 0.008900407 0.008758756 0.009063017 1000 0.009436794 0.008662415 0.008900407 0.008758756 0.009063017 1000
lala 7 1.2 0 first 1 1 98 4 5.32 1.13999724388123 -1 1 -1 1 0.008126729 0.008146427 0.007477324 1000 1000 1000 0.008126729 0.008146427 0.007477324 1000 1000 1000 0.01054967 0.01096308 0.01120283 0.01168659 0.01068944 1000 0.01054967 0.01096308 0.01120283 0.01168659 0.01068944 1000
lala 6 1.2 1 second 16 1 99 6 5.16 1.21999716758728 0 0 1 0 0.009657378 0.009797951 0.008363125 0.008309664 0.009725244 1000 0.009657378 0.009797951 0.008363125 0.008309664 0.009725244 1000 0.009791589 0.01007379 0.00947131 0.00900581 0.009135352 1000 0.009791589 0.01007379 0.00947131 0.00900581 0.009135352 1000
lala 11 0.6 0 second 17 1 100 6 4.380001 0.419997930526733 0 1 -1 0 0.01736786 0.01868153 0.01462161 0.01252942 0.01086382 1000 0.01736786 0.01868153 0.01462161 0.01252942 0.01086382 1000 0.01733323 0.01652766 0.01577624 0.0165653 0.01526383 1000 0.01733323 0.01652766 0.01577624 0.0165653 0.01526383 1000
lala 7 1.2 0 first 16 1 101 6 3.96 0.439997911453247 0 0 -1 1 0.01465791 0.01334014 0.01139917 1000 1000 1000 0.01465791 0.01334014 0.01139917 1000 1000 1000 0.008019743 0.008488874 0.008314478 0.008337598 0.008187662 1000 0.008019743 0.008488874 0.008314478 0.008337598 0.008187662 1000
lala 9 1.2 0 second 9 1 102 5 1.850001 0.079998254776001 1 1 -1 0 0.001922642 0.002545745 0.003646279 0.003626548 0.003769625 1000 0.001922642 0.002545745 0.003646279 0.003626548 0.003769625 1000 0.00170641 0.001746188 0.001397664 0.0007262921 0.0003155575 1000 0.00170641 0.001746188 0.001397664 0.0007262921 0.0003155575 1000
lala 10 1.2 0 first 13 1 103 4 1.72 0.01999831199646 0 1 -1 1 -0.003251959 -0.002838511 -0.003036199 1000 1000 1000 -0.003251959 -0.002838511 -0.003036199 1000 1000 1000 -0.0005145405 0.0001611046 0.0007284444 0.001006089 0.001124649 1000 -0.0005145405 0.0001611046 0.0007284444 0.001006089 0.001124649 1000
lala 8 1.2 1 second 16 1 104 6 5.16 0.459997892379761 0 0 1 1 0.002730398 0.002638311 0.002448532 0.002029702 0.0016543 1000 0.002730398 0.002638311 0.002448532 0.002029702 0.0016543 1000 0.001050103 0.001533586 0.001330135 0.001415995 0.00177052 1000 0.001050103 0.001533586 0.001330135 0.001415995 0.00177052 1000
lala 7 1.2 0 second 10 1 105 6 3.96 0.479997873306274 1 0 -1 0 0.001175127 0.0007381186 0.001359289 0.001692792 0.001503531 1000 0.001175127 0.0007381186 0.001359289 0.001692792 0.001503531 1000 -0.002093702 -0.002672405 -0.002651971 -0.002370579 -0.002389183 1000 -0.002093702 -0.002672405 -0.002651971 -0.002370579 -0.002389183 1000
lala 7 1.2 1 first 4 1 106 6 3.96 0.879997491836548 -1 0 1 0 -0.00808113 -0.006800445 -0.005428209 1000 1000 1000 -0.00808113 -0.006800445 -0.005428209 1000 1000 1000 -0.001155792 -0.0008790792 -0.0001043655 0.0006240467 0.0009273453 1000 -0.001155792 -0.0008790792 -0.0001043655 0.0006240467 0.0009273453 1000
lala 8 1.2 0 second 4 1 107 6 2.76 0.339998006820679 -1 0 -1 0 0.001353598 0.002375927 0.002869644 0.003689281 0.004536774 1000 0.001353598 0.002375927 0.002869644 0.003689281 0.004536774 1000 0.005298103 0.005137394 0.005119242 0.005133459 0.004821206 1000 0.005298103 0.005137394 0.005119242 0.005133459 0.004821206 1000
lala 4 1.2 0 first 2 1 108 5 4.5 0.339998006820679 -1 0 -1 1 0.003061533 0.002927511 0.00371018 1000 1000 1000 0.003061533 0.002927511 0.00371018 1000 1000 1000 0.007189593 0.006924675 0.006956263 0.007371647 0.007576891 1000 0.007189593 0.006924675 0.006956263 0.007371647 0.007576891 1000
lala 9 1.2 0 second 16 1 109 6 3.96 0.339998006820679 0 0 -1 0 0.007510093 0.007783007 0.008108135 0.008001087 0.007740118 1000 0.007510093 0.007783007 0.008108135 0.008001087 0.007740118 1000 0.008793907 0.008621131 0.008303638 0.008392856 0.008330794 1000 0.008793907 0.008621131 0.008303638 0.008392856 0.008330794 1000
lala 4 1.2 0 second 12 1 110 4 3.84 1.13999724388123 0 0 -1 1 0.007620663 0.007408616 0.006725733 0.006467198 0.00650211 1000 0.007620663 0.007408616 0.006725733 0.006467198 0.00650211 1000 0.00720015 0.007389423 0.007419972 0.007586631 0.007529784 1000 0.00720015 0.007389423 0.007419972 0.007586631 0.007529784 1000
lala 6 1.2 1 first 5 1 111 6 6.780001 0.279998064041138 -1 1 1 0 0.004420965 0.004195837 0.004782713 1000 1000 1000 0.004420965 0.004195837 0.004782713 1000 1000 1000 0.005437167 0.005654656 0.005402613 0.005569154 0.005499541 1000 0.005437167 0.005654656 0.005402613 0.005569154 0.005499541 1000
lala 5 1.2 0 second 8 1 112 5 3.3 0.259998083114624 1 0 -1 0 0.006534312 0.008701408 0.007801822 0.008926518 0.006435656 1000 0.006534312 0.008701408 0.007801822 0.008926518 0.006435656 1000 0.004054101 0.004271597 0.005275866 0.007590076 0.009367844 1000 0.004054101 0.004271597 0.005275866 0.007590076 0.009367844 1000
lala 6 1.2 0 first 15 1 113 5 3.05 0.279998064041138 0 1 -1 0 0.007443112 0.006640667 0.007047639 1000 1000 1000 0.007443112 0.006640667 0.007047639 1000 1000 1000 0.007834834 0.004911822 0.007868077 0.01128794 0.01435673 1000 0.007834834 0.004911822 0.007868077 0.01128794 0.01435673 1000
lala 8 1.2 1 first 1 1 114 4 6.52 0.139998197555542 -1 1 1 1 0.01153934 0.01096298 0.0123051 1000 1000 1000 0.01153934 0.01096298 0.0123051 1000 1000 1000 0.007435366 0.01268416 0.01069248 0.01127164 0.01182652 1000 0.007435366 0.01268416 0.01069248 0.01127164 0.01182652 1000
lala 12 0.3 1 first 17 1 115 6 4.680001 0.139998197555542 0 1 1 1 0.01234706 0.01112473 0.007194495 1000 1000 1000 0.01234706 0.01112473 0.007194495 1000 1000 1000 0.01773554 0.01832757 0.02037404 0.02339541 0.02297964 1000 0.01773554 0.01832757 0.02037404 0.02339541 0.02297964 1000
lala 9 1.2 1 first 1 1 116 4 5.32 0.119998216629028 -1 1 1 0 0.02070057 0.01948297 0.01748408 1000 1000 1000 0.02070057 0.01948297 0.01748408 1000 1000 1000 0.01393897 0.01351784 0.01241254 0.01181043 0.01031621 1000 0.01393897 0.01351784 0.01241254 0.01181043 0.01031621 1000
lala 9 1.2 0 first 4 1 117 6 3.96 0.339998006820679 -1 0 -1 0 0.009065827 0.009596967 0.01073218 1000 1000 1000 0.009065827 0.009596967 0.01073218 1000 1000 1000 0.004017022 0.007143443 0.007826403 0.008440285 0.008567411 1000 0.004017022 0.007143443 0.007826403 0.008440285 0.008567411 1000
lala 13 0.15 0 second 17 1 118 6 4.530001 1.8599967956543 0 1 -1 1 0.01092752 0.01015156 0.01003771 0.0106171 0.01071961 1000 0.01092752 0.01015156 0.01003771 0.0106171 0.01071961 1000 0.01182701 0.0121483 0.01246637 0.01208602 0.01214783 1000 0.01182701 0.0121483 0.01246637 0.01208602 0.01214783 1000
lala 5 1.2 1 second 6 1 119 4 5.04 0.39999794960022 1 0 1 0 0.01430767 0.01489285 0.01518235 0.01516076 0.01524904 1000 0.01430767 0.01489285 0.01518235 0.01516076 0.01524904 1000 0.01655036 0.01717563 0.01754115 0.01776891 0.01810524 1000 0.01655036 0.01717563 0.01754115 0.01776891 0.01810524 1000
lala 14 0.075 0 second 17 1 120 6 4.605001 0.479997873306274 0 1 -1 1 0.01944678 0.01853744 0.01868502 0.01845529 0.01840905 1000 0.01944678 0.01853744 0.01868502 0.01845529 0.01840905 1000 0.02105431 0.02109543 0.02021232 0.020557 0.02127283 1000 0.02105431 0.02109543 0.02021232 0.020557 0.02127283 1000
lala 5 1.2 1 second 2 1 121 5 5.7 0.319998025894165 -1 0 1 1 0.02259099 0.0222654 0.02246414 0.022007 0.02217568 1000 0.02259099 0.0222654 0.02246414 0.022007 0.02217568 1000 0.02387932 0.02398013 0.0246988 0.02464693 0.02463946 1000 0.02387932 0.02398013 0.0246988 0.02464693 0.02463946 1000
lala 15 0.075 1 first 17 1 122 6 4.680001 1.07999730110168 0 1 1 0 0.02000572 0.02053916 0.02146141 1000 1000 1000 0.02000572 0.02053916 0.02146141 1000 1000 1000 0.02147949 0.02130044 0.02183872 0.02224549 0.02197267 1000 0.02147949 0.02130044 0.02183872 0.02224549 0.02197267 1000
lala 6 1.2 0 second 6 1 123 4 3.84 0.219998121261597 1 0 -1 0 0.02173659 0.0213387 0.02114913 0.02171033 0.02228944 1000 0.02173659 0.0213387 0.02114913 0.02171033 0.02228944 1000 0.02115906 0.021516 0.02102174 0.02172056 0.02245172 1000 0.02115906 0.021516 0.02102174 0.02172056 0.02245172 1000
lala 7 1.2 0 second 15 1 124 5 4.25 0.479997873306274 0 1 -1 0 0.0218005 0.02173616 0.02169897 0.02159035 0.0213778 1000 0.0218005 0.02173616 0.02169897 0.02159035 0.0213778 1000 0.02229214 0.0222953 0.02251307 0.022243 0.02229277 1000 0.02229214 0.0222953 0.02251307 0.022243 0.02229277 1000
lala 10 0.6 0 second 9 1 125 5 2.450001 0.159998178482056 1 1 -1 1 0.02314828 0.02304427 0.02293256 0.02281093 0.0224526 1000 0.02314828 0.02304427 0.02293256 0.02281093 0.0224526 1000 0.02340216 0.02385375 0.02379621 0.02392388 0.02385805 1000 0.02340216 0.02385375 0.02379621 0.02392388 0.02385805 1000
lala 5 1.2 1 second 12 1 126 4 5.04 0.179998159408569 0 0 1 1 0.01848604 0.01806078 0.01796611 0.01826036 0.01838519 1000 0.01848604 0.01806078 0.01796611 0.01826036 0.01838519 1000 0.01841264 0.01857872 0.0180702 0.01851624 0.01923043 1000 0.01841264 0.01857872 0.0180702 0.01851624 0.01923043 1000
lala 6 1.2 1 first 2 1 127 5 4.5 0.659997701644897 -1 0 1 0 0.0188273 0.01843786 0.01731369 1000 1000 1000 0.0188273 0.01843786 0.01731369 1000 1000 1000 0.01697513 0.01772956 0.01844523 0.01809756 0.01777061 1000 0.01697513 0.01772956 0.01844523 0.01809756 0.01777061 1000
lala 11 0.6 0 first 13 1 128 4 2.32 0.01999831199646 0 1 -1 0 0.01661832 0.01628346 0.01626864 1000 1000 1000 0.01661832 0.01628346 0.01626864 1000 1000 1000 0.01726149 0.01752126 0.01708015 0.01645821 0.01662384 1000 0.01726149 0.01752126 0.01708015 0.01645821 0.01662384 1000
lala 5 1.2 1 first 11 1 129 6 5.580001 0.0599982738494873 1 1 1 1 0.01585059 0.01639078 0.01594922 1000 1000 1000 0.01585059 0.01639078 0.01594922 1000 1000 1000 0.01437427 0.01425955 0.01495406 0.01556296 0.01537914 1000 0.01437427 0.01425955 0.01495406 0.01556296 0.01537914 1000
lala 5 1.2 0 second 7 1 130 4 2.92 0.23999810218811 1 1 -1 0 0.01436634 0.0141559 0.01413117 0.01354566 0.01341217 1000 0.01436634 0.0141559 0.01413117 0.01354566 0.01341217 1000 0.01049159 0.01067236 0.01095752 0.01076626 0.01094005 1000 0.01049159 0.01067236 0.01095752 0.01076626 0.01094005 1000
lala 6 1.2 1 first 8 1 131 5 4.5 0.819997549057007 1 0 1 1 0.0109341 0.01088913 0.01121555 1000 1000 1000 0.0109341 0.01088913 0.01121555 1000 1000 1000 0.0110124 0.0109637 0.01086034 0.01139335 0.01146257 1000 0.0110124 0.0109637 0.01086034 0.01139335 0.01146257 1000
lala 6 1.2 1 second 7 1 132 4 4.12 0.39999794960022 1 1 1 0 0.007715337 0.007948716 0.00817338 0.007581493 0.006685208 1000 0.007715337 0.007948716 0.00817338 0.007581493 0.006685208 1000 0.00456962 0.004258923 0.004437238 0.004243859 0.004405749 1000 0.00456962 0.004258923 0.004437238 0.004243859 0.004405749 1000
lala 8 1.2 1 second 10 1 133 6 5.16 0.259998083114624 1 0 1 1 0.004760653 0.00441185 0.004406471 0.003863738 0.003694837 1000 0.004760653 0.00441185 0.004406471 0.003863738 0.003694837 1000 0.003391159 0.003622505 0.003511874 0.003197783 0.003534595 1000 0.003391159 0.003622505 0.003511874 0.003197783 0.003534595 1000
lala 6 1.2 1 first 12 1 134 4 3.84 0.339998006820679 0 0 1 0 0.003693073 0.004173421 0.004129709 1000 1000 1000 0.003693073 0.004173421 0.004129709 1000 1000 1000 0.001889813 0.001715208 0.001559988 0.001525992 0.001208633 1000 0.001889813 0.001715208 0.001559988 0.001525992 0.001208633 1000
lala 11 0.6 1 second 9 1 135 5 3.050001 1.05999732017517 1 1 1 0 -0.001689724 -0.001710217 -0.001735382 0.0003763899 -0.0009295926 1000 -0.001689724 -0.001710217 -0.001735382 0.0003763899 -0.0009295926 1000 -0.006944582 -0.006843288 -0.006878518 -0.005734827 -0.005613157 1000 -0.006944582 -0.006843288 -0.006878518 -0.005734827 -0.005613157 1000
lala 10 0.6 0 first 16 1 136 6 4.56 1.51999688148499 0 0 -1 0 0.001399528 0.001543482 0.001319359 1000 1000 1000 0.001399528 0.001543482 0.001319359 1000 1000 1000 -0.002141778 -0.002319042 -0.003120829 -0.003532952 -0.004483725 1000 -0.002141778 -0.002319042 -0.003120829 -0.003532952 -0.004483725 1000
lala 10 1.2 1 first 1 1 137 4 4.12 3.33999538421631 -1 1 1 0 -0.008546806 -0.008865875 -0.009828488 1000 1000 1000 -0.008546806 -0.008865875 -0.009828488 1000 1000 1000 -0.01007188 -0.01014898 -0.009733323 -0.009618687 -0.009700201 1000 -0.01007188 -0.01014898 -0.009733323 -0.009618687 -0.009700201 1000
lala 7 1.2 1 second 6 1 138 4 5.04 0.839997529983521 1 0 1 1 -0.0101486 -0.009731371 -0.01002398 -0.01036737 -0.009897313 1000 -0.0101486 -0.009731371 -0.01002398 -0.01036737 -0.009897313 1000 -0.01060858 -0.01069625 -0.01034509 -0.01084189 -0.01095904 1000 -0.01060858 -0.01069625 -0.01034509 -0.01084189 -0.01095904 1000
lala 12 0.6 1 first 13 1 139 4 2.92 0.61999773979187 0 1 1 1 -0.0170102 -0.01685347 -0.01648965 1000 1000 1000 -0.0170102 -0.01685347 -0.01648965 1000 1000 1000 -0.01917524 -0.01876289 -0.01999038 -0.02095778 -0.02167292 1000 -0.01917524 -0.01876289 -0.01999038 -0.02095778 -0.02167292 1000
lala 12 0.3 0 second 9 1 140 5 2.750001 0.01999831199646 1 1 -1 0 -0.01373381 -0.01386716 -0.01319123 -0.01186171 -0.01156413 1000 -0.01373381 -0.01386716 -0.01319123 -0.01186171 -0.01156413 1000 -0.01422651 -0.01388664 -0.01360353 -0.01355577 -0.01442961 1000 -0.01422651 -0.01388664 -0.01360353 -0.01355577 -0.01442961 1000
lala 7 1.2 1 second 5 1 141 6 5.580001 0.339998006820679 -1 1 1 1 -0.03062124 -0.02335528 -0.01206875 -0.01004845 -0.009390499 1000 -0.03062124 -0.02335528 -0.01206875 -0.01004845 -0.009390499 1000 -0.002332373 -0.0003011583 -0.0005077911 -0.0008795622 -0.000297608 1000 -0.002332373 -0.0003011583 -0.0005077911 -0.0008795622 -0.000297608 1000
lala 8 1.2 1 first 6 1 142 4 3.84 0.659997701644897 1 0 1 1 0.006519197 0.0052668 0.005584944 1000 1000 1000 0.006519197 0.0052668 0.005584944 1000 1000 1000 0.003318541 0.00370573 0.004766057 0.004487756 0.004483717 1000 0.003318541 0.00370573 0.004766057 0.004487756 0.004483717 1000
lala 13 0.15 0 second 9 1 143 5 2.900001 0.359997987747192 1 1 -1 1 0.01292089 0.01451431 0.01522758 0.01580604 0.02346442 1000 0.01292089 0.01451431 0.01522758 0.01580604 0.02346442 1000 0.01376228 0.01234266 0.01054618 0.01123464 0.01122903 1000 0.01376228 0.01234266 0.01054618 0.01123464 0.01122903 1000
lala 16 0.0375 1 first 17 1 144 6 4.642501 0.659997701644897 0 1 1 0 0.01269134 0.01207694 0.008821973 1000 1000 1000 0.01269134 0.01207694 0.008821973 1000 1000 1000 -0.008250802 -0.008717289 -0.006386489 -0.005191612 -0.006239193 1000 -0.008250802 -0.008717289 -0.006386489 -0.005191612 -0.006239193 1000
lala 10 1.2 1 first 4 1 145 6 5.16 0.359997987747192 -1 0 1 1 -0.001134535 -0.001667569 -0.003048387 1000 1000 1000 -0.001134535 -0.001667569 -0.003048387 1000 1000 1000 -0.005834095 -0.006152754 -0.004816681 -0.00497463 -0.005489885 1000 -0.005834095 -0.006152754 -0.004816681 -0.00497463 -0.005489885 1000
lala 9 1.2 0 first 6 1 146 4 2.64 0.219998121261597 1 0 -1 1 0.0003059677 0.0009712939 0.0008577713 1000 1000 1000 0.0003059677 0.0009712939 0.0008577713 1000 1000 1000 -0.004954423 -0.004780921 -0.004154261 -0.003486549 -0.002510701 1000 -0.004954423 -0.004780921 -0.004154261 -0.003486549 -0.002510701 1000
lala 8 1.2 1 second 5 1 147 6 4.380001 0.199998140335083 -1 1 1 1 -0.004143592 -0.004667686 -0.004174346 -0.004056835 -0.004332826 1000 -0.004143592 -0.004667686 -0.004174346 -0.004056835 -0.004332826 1000 -0.003868881 -0.003800915 -0.00379695 -0.003560606 -0.00300314 1000 -0.003868881 -0.003800915 -0.00379695 -0.003560606 -0.00300314 1000
lala 7 1.2 0 second 8 1 148 5 3.3 0.279998064041138 1 0 -1 0 -0.003469772 -0.004020068 -0.004235032 -0.004156971 -0.003721615 1000 -0.003469772 -0.004020068 -0.004235032 -0.004156971 -0.003721615 1000 -0.004122181 -0.003377829 -0.003270081 -0.002997927 -0.002217182 1000 -0.004122181 -0.003377829 -0.003270081 -0.002997927 -0.002217182 1000
lala 17 0.0375 1 second 17 1 149 6 4.605001 0.0399982929229736 0 1 1 1 -0.001942067 -0.002045045 -0.001714356 -0.001828821 -0.002019586 1000 -0.001942067 -0.002045045 -0.001714356 -0.001828821 -0.002019586 1000 -0.0004134771 -0.000709903 -0.0001621186 0.0002733328 0.000200966 1000 -0.0004134771 -0.000709903 -0.0001621186 0.0002733328 0.000200966 1000
lala 6 1.2 1 second 3 1 150 5 5.45 0.479997873306274 -1 1 1 1 -0.01328362 -0.01328056 -0.01311617 -0.01346125 -0.01369852 1000 -0.01328362 -0.01328056 -0.01311617 -0.01346125 -0.01369852 1000 -0.01363956 -0.01341515 -0.01269251 -0.01217088 -0.01230585 1000 -0.01363956 -0.01341515 -0.01269251 -0.01217088 -0.01230585 1000
lala 8 1.2 0 second 8 1 151 5 4.5 0.979997396469116 1 0 -1 1 -0.01177394 -0.01133257 -0.01112544 -0.0108742 -0.01110609 1000 -0.01177394 -0.01133257 -0.01112544 -0.0108742 -0.01110609 1000 -0.01012992 -0.008812932 -0.007550897 -0.006504612 -0.00655332 1000 -0.01012992 -0.008812932 -0.007550897 -0.006504612 -0.00655332 1000
lala 11 2.4 0 first 1 1 152 4 1.72 0.0599982738494873 -1 1 -1 1 -0.008351232 -0.008696423 -0.009234143 1000 1000 1000 -0.008351232 -0.008696423 -0.009234143 1000 1000 1000 0.001948327 0.001465513 0.001392418 0.003022886 0.003728591 1000 0.001948327 0.001465513 0.001392418 0.003022886 0.003728591 1000
lala 8 1.2 1 first 15 1 153 5 5.45 0.359997987747192 0 1 1 1 0.00227067 0.002568111 0.002637923 1000 1000 1000 0.00227067 0.002568111 0.002637923 1000 1000 1000 0.006561661 0.006375503 0.006591861 0.006044363 0.005859142 1000 0.006561661 0.006375503 0.006591861 0.006044363 0.005859142 1000
lala 11 0.6 1 second 4 1 154 6 4.56 0.279998064041138 -1 0 1 0 0.001888197 0.002745092 0.004367394 0.004360196 0.001852077 1000 0.001888197 0.002745092 0.004367394 0.004360196 0.001852077 1000 0.008002761 0.007232517 0.008875838 0.007158818 0.007639227 1000 0.008002761 0.007232517 0.008875838 0.007158818 0.007639227 1000
lala 12 0.6 1 first 4 1 155 6 3.96 0.339998006820679 -1 0 1 1 0.006959622 0.005959514 0.005247713 1000 1000 1000 0.006959622 0.005959514 0.005247713 1000 1000 1000 0.006708147 0.008599594 0.009192996 0.009285694 0.01046418 1000 0.006708147 0.008599594 0.009192996 0.009285694 0.01046418 1000
lala 10 0.6 0 second 6 1 156 4 3.24 0.219998121261597 1 0 -1 0 0.003938217 0.003602474 0.004132828 0.005034874 0.004049919 1000 0.003938217 0.003602474 0.004132828 0.005034874 0.004049919 1000 0.002750097 0.002087669 0.00224848 0.001998913 0.001304864 1000 0.002750097 0.002087669 0.00224848 0.001998913 0.001304864 1000
lala 9 1.2 0 second 5 1 157 6 3.180001 0.959997415542603 -1 1 -1 0 -0.002257638 -0.002396256 -0.003179643 -0.004105182 -0.0042402 1000 -0.002257638 -0.002396256 -0.003179643 -0.004105182 -0.0042402 1000 -0.01118195 -0.01028478 -0.007406973 -0.00809109 -0.007146395 1000 -0.01118195 -0.01028478 -0.007406973 -0.00809109 -0.007146395 1000
lala 5 1.2 0 first 0 1 158 4 2.64 0.339998006820679 -1 0 -1 1 -0.003217048 -0.001749258 -0.0008686876 1000 1000 1000 -0.003217048 -0.001749258 -0.0008686876 1000 1000 1000 0.002081366 0.005832541 0.006442829 0.004407014 0.004527451 1000 0.002081366 0.005832541 0.006442829 0.004407014 0.004527451 1000
lala 7 1.2 1 second 3 1 159 5 4.25 0.959997415542603 -1 1 1 1 0.01044335 0.009950738 0.009046669 0.007271998 0.003928978 1000 0.01044335 0.009950738 0.009046669 0.007271998 0.003928978 1000 0.01006983 0.009884474 0.008822423 0.007853407 0.008374061 1000 0.01006983 0.009884474 0.008822423 0.007853407 0.008374061 1000
lala 8 1.2 0 first 3 1 160 5 3.05 0.699997663497925 -1 1 -1 1 0.0162006 0.02412305 0.02644126 1000 1000 1000 0.0162006 0.02412305 0.02644126 1000 1000 1000 0.01493926 0.01498575 0.01773234 0.01423764 0.013221 1000 0.01493926 0.01498575 0.01773234 0.01423764 0.013221 1000
lala 7 1.2 0 first 2 1 161 5 3.3 0.259998083114624 -1 0 -1 1 -0.005676865 -0.003458796 -0.003262977 1000 1000 1000 -0.005676865 -0.003458796 -0.003262977 1000 1000 1000 0.002422672 0.003744382 0.003582846 0.002736087 0.003159915 1000 0.002422672 0.003744382 0.003582846 0.002736087 0.003159915 1000
lala 11 0.6 1 first 16 1 162 6 5.16 0.01999831199646 0 0 1 1 -0.003724003 -0.002195396 0.000292856 1000 1000 1000 -0.003724003 -0.002195396 0.000292856 1000 1000 1000 0.005298151 0.004335099 0.004086376 0.003757798 0.00348796 1000 0.005298151 0.004335099 0.004086376 0.003757798 0.00348796 1000
lala 18 0.0375 0 second 17 1 163 6 4.567501 0.61999773979187 0 1 -1 0 0.003994117 0.004702213 0.005674578 0.007229975 0.007321639 1000 0.003994117 0.004702213 0.005674578 0.007229975 0.007321639 1000 0.009450385 0.01002038 0.01039931 0.01043336 0.01102429 1000 0.009450385 0.01002038 0.01039931 0.01043336 0.01102429 1000
lala 9 1.2 1 first 10 1 164 6 3.96 0.339998006820679 1 0 1 0 0.01643532 0.01630607 0.01686946 1000 1000 1000 0.01643532 0.01630607 0.01686946 1000 1000 1000 0.01820701 0.01843558 0.01858157 0.01889476 0.02009611 1000 0.01820701 0.01843558 0.01858157 0.01889476 0.02009611 1000
lala 7 1.2 1 first 12 1 165 4 2.64 0.61999773979187 0 0 1 0 0.0205161 0.02064987 0.02084929 1000 1000 1000 0.0205161 0.02064987 0.02084929 1000 1000 1000 0.02186583 0.02201052 0.02231187 0.02276394 0.02338945 1000 0.02186583 0.02201052 0.02231187 0.02276394 0.02338945 1000
lala 19 0.01875 1 second 17 1 166 6 4.586251 0.419997930526733 0 1 1 1 0.01671506 0.01562334 0.01477005 0.01417397 0.01280879 1000 0.01671506 0.01562334 0.01477005 0.01417397 0.01280879 1000 0.008238851 0.004550905 0.003247826 0.004028998 0.002325359 1000 0.008238851 0.004550905 0.003247826 0.004028998 0.002325359 1000
lala 11 0.6 1 second 6 1 167 4 3.84 0.199998140335083 1 0 1 0 -0.009774198 -0.01037817 -0.01010905 -0.009705378 -0.01085601 1000 -0.009774198 -0.01037817 -0.01010905 -0.009705378 -0.01085601 1000 -0.01049342 -0.01073282 -0.01123602 -0.009532682 -0.00899568 1000 -0.01049342 -0.01073282 -0.01123602 -0.009532682 -0.00899568 1000
lala 6 1.2 1 first 0 1 168 4 3.84 0.39999794960022 -1 0 1 0 -0.01209124 -0.01207606 -0.0116464 1000 1000 1000 -0.01209124 -0.01207606 -0.0116464 1000 1000 1000 -0.007949877 -0.007792916 -0.007540259 -0.007176104 -0.007135396 1000 -0.007949877 -0.007792916 -0.007540259 -0.007176104 -0.007135396 1000
lala 8 1.2 0 first 12 1 169 4 1.44 0.439997911453247 0 0 -1 1 -0.005741519 -0.004503258 -0.004352389 1000 1000 1000 -0.005741519 -0.004503258 -0.004352389 1000 1000 1000 -0.00188588 -0.001225454 -0.001301153 -0.001199526 -0.001048585 1000 -0.00188588 -0.001225454 -0.001301153 -0.001199526 -0.001048585 1000
lala 7 1.2 1 first 0 1 170 4 2.64 0.699997663497925 -1 0 1 1 -0.001814953 -0.0006231886 -0.0001251819 1000 1000 1000 -0.001814953 -0.0006231886 -0.0001251819 1000 1000 1000 0.0005178195 -2.702507E-05 -0.0005843983 -0.000376121 -0.0002978226 1000 0.0005178195 -2.702507E-05 -0.0005843983 -0.000376121 -0.0002978226 1000
lala 13 0.6 1 second 4 1 171 6 3.36 1.57999682426453 -1 0 1 0 -0.0008350678 -0.000556174 -0.0007233886 -0.0005564266 -0.0004527041 1000 -0.0008350678 -0.000556174 -0.0007233886 -0.0005564266 -0.0004527041 1000 -0.000318267 -0.0005091757 -0.0005199568 -0.0004753134 -0.001063134 1000 -0.000318267 -0.0005091757 -0.0005199568 -0.0004753134 -0.001063134 1000
lala 12 1.2 1 second 1 1 172 4 2.92 0.939997434616089 -1 1 1 0 0.001452168 0.001706026 0.001471776 0.0008569887 0.0006165626 1000 0.001452168 0.001706026 0.001471776 0.0008569887 0.0006165626 1000 0.001234012 0.001598606 0.001792157 0.001896095 0.001508365 1000 0.001234012 0.001598606 0.001792157 0.001896095 0.001508365 1000
lala 20 0.009375 1 first 17 1 173 6 4.576876 0.99999737739563 0 1 1 0 0.0012875 0.001790209 0.002002745 1000 1000 1000 0.0012875 0.001790209 0.002002745 1000 1000 1000 -0.0002952922 -0.000571486 0.0002310202 0.0006898711 0.001140066 1000 -0.0002952922 -0.000571486 0.0002310202 0.0006898711 0.001140066 1000
lala 8 1.2 0 second 0 1 174 4 1.44 0.01999831199646 -1 0 -1 1 0.00271196 0.002742819 0.002725586 0.002685048 0.002673185 1000 0.00271196 0.002742819 0.002725586 0.002685048 0.002673185 1000 0.0008871326 0.00116072 0.000793155 0.001356263 0.002882461 1000 0.0008871326 0.00116072 0.000793155 0.001356263 0.002882461 1000
lala 13 0.6 1 second 1 1 175 4 2.32 0.779997587203979 -1 1 1 0 0.002984984 0.005378861 0.002517077 -0.0005432989 -0.000117044 1000 0.002984984 0.005378861 0.002517077 -0.0005432989 -0.000117044 1000 0.008374177 0.007255937 0.00678131 0.00812165 0.007952702 1000 0.008374177 0.007255937 0.00678131 0.00812165 0.007952702 1000
lala 10 0.6 1 first 5 1 176 6 3.780001 0.219998121261597 -1 1 1 0 0.006525958 0.006598947 0.006931397 1000 1000 1000 0.006525958 0.006598947 0.006931397 1000 1000 1000 0.004131879 0.00353441 0.003339394 0.003475364 0.00397473 1000 0.004131879 0.00353441 0.003339394 0.003475364 0.00397473 1000
lala 8 1.2 1 second 2 1 177 5 4.5 0.219998121261597 -1 0 1 0 0.00271716 0.002858406 0.002837952 0.00270184 0.002614478 1000 0.00271716 0.002858406 0.002837952 0.00270184 0.002614478 1000 0.004203672 0.004620033 0.004766703 0.00474755 0.004551644 1000 0.004203672 0.004620033 0.004766703 0.00474755 0.004551644 1000
lala 7 1.2 0 second 7 1 178 4 2.92 0.01999831199646 1 1 -1 1 0.003855277 0.003904623 0.004542123 0.005224154 0.005202755 1000 0.003855277 0.003904623 0.004542123 0.005224154 0.005202755 1000 0.005702328 0.006325076 0.006923622 0.007180586 0.006805512 1000 0.005702328 0.006325076 0.006923622 0.007180586 0.006805512 1000
lala 13 0.3 1 first 13 1 179 4 2.62 0.23999810218811 0 1 1 1 0.001985459 0.00230793 0.002269033 1000 1000 1000 0.001985459 0.00230793 0.002269033 1000 1000 1000 0.002031143 0.002705701 0.002622511 0.001584796 0.0004236582 1000 0.002031143 0.002705701 0.002622511 0.001584796 0.0004236582 1000
lala 12 0.3 0 second 6 1 180 4 3.54 0.519997835159302 1 0 -1 0 -0.001905944 -0.0006884938 -0.0004349053 -0.0007325301 -0.0008141205 1000 -0.001905944 -0.0006884938 -0.0004349053 -0.0007325301 -0.0008141205 1000 -0.002255659 -9.384168E-06 0.0004586669 0.0009437761 0.001875121 1000 -0.002255659 -9.384168E-06 0.0004586669 0.0009437761 0.001875121 1000
lala 9 1.2 1 first 15 1 181 5 4.25 0.359997987747192 0 1 1 0 -0.002173428 -0.002293578 -0.001840525 1000 1000 1000 -0.002173428 -0.002293578 -0.001840525 1000 1000 1000 0.001581828 0.000887796 9.685389E-05 0.0001141959 0.0005708431 1000 0.001581828 0.000887796 9.685389E-05 0.0001141959 0.0005708431 1000
lala 21 0.009375 1 first 17 1 182 6 4.567501 0.23999810218811 0 1 1 0 0.0002887914 0.0005516438 0.001075069 1000 1000 1000 0.0002887914 0.0005516438 0.001075069 1000 1000 1000 -0.0005257428 -0.0007970927 -0.001070992 -0.002290236 -0.003713048 1000 -0.0005257428 -0.0007970927 -0.001070992 -0.002290236 -0.003713048 1000
lala 9 1.2 0 second 0 1 183 4 2.64 0.279998064041138 -1 0 -1 0 -0.008538548 -0.009296306 -0.008241621 -0.0100826 -0.01334076 1000 -0.008538548 -0.009296306 -0.008241621 -0.0100826 -0.01334076 1000 -0.01839523 -0.01662092 -0.01546416 -0.01384608 -0.009408949 1000 -0.01839523 -0.01662092 -0.01546416 -0.01384608 -0.009408949 1000
lala 9 1.2 1 first 8 1 184 5 5.7 0.23999810218811 1 0 1 1 -0.005679005 -0.005647531 -0.005637226 1000 1000 1000 -0.005679005 -0.005647531 -0.005637226 1000 1000 1000 -0.008118073 -0.006732935 -0.006479837 -0.006463736 -0.006298615 1000 -0.008118073 -0.006732935 -0.006479837 -0.006463736 -0.006298615 1000
lala 10 0.6 1 first 8 1 185 5 5.1 0.279998064041138 1 0 1 0 -0.009737112 -0.01018159 -0.01113357 1000 1000 1000 -0.009737112 -0.01018159 -0.01113357 1000 1000 1000 -0.01011302 -0.01046501 -0.01041886 -0.01038128 -0.01007406 1000 -0.01011302 -0.01046501 -0.01041886 -0.01038128 -0.01007406 1000
lala 10 1.2 1 second 0 1 186 4 3.84 0.519997835159302 -1 0 1 1 -0.01114369 -0.01053488 -0.01008723 -0.01019476 -0.01024221 1000 -0.01114369 -0.01053488 -0.01008723 -0.01019476 -0.01024221 1000 -0.01210133 -0.01192213 -0.01203495 -0.01256672 -0.01283697 1000 -0.01210133 -0.01192213 -0.01203495 -0.01256672 -0.01283697 1000
lala 14 0.6 0 second 1 1 187 4 1.72 0.199998140335083 -1 1 -1 0 -0.02425615 -0.02364109 -0.02335114 -0.02447136 -0.0240984 1000 -0.02425615 -0.02364109 -0.02335114 -0.02447136 -0.0240984 1000 -0.03636995 -0.03117278 -0.01793913 -0.009945399 -0.004939513 1000 -0.03636995 -0.03117278 -0.01793913 -0.009945399 -0.004939513 1000
lala 6 1.2 1 second 11 1 188 6 4.380001 0.99999737739563 1 1 1 1 0.00825431 0.007847994 0.008936462 0.009321953 0.00940651 1000 0.00825431 0.007847994 0.008936462 0.009321953 0.00940651 1000 0.009263706 0.009142451 0.01146181 0.01423956 0.01603289 1000 0.009263706 0.009142451 0.01146181 0.01423956 0.01603289 1000
lala 10 1.2 1 first 15 1 189 5 3.05 1.15999722480774 0 1 1 0 -0.01270045 -0.009155605 -0.01028198 1000 1000 1000 -0.01270045 -0.009155605 -0.01028198 1000 1000 1000 0.01122031 0.01158368 0.0117623 0.01256375 0.01386452 1000 0.01122031 0.01158368 0.0117623 0.01256375 0.01386452 1000
lala 14 0.15 1 first 9 1 190 5 3.050001 0.519997835159302 1 1 1 0 0.02025477 0.02008762 0.01995955 1000 1000 1000 0.02025477 0.02008762 0.01995955 1000 1000 1000 0.02322743 0.02433495 0.02478599 0.02624759 0.02871623 1000 0.02322743 0.02433495 0.02478599 0.02624759 0.02871623 1000
lala 11 0.6 0 first 8 1 191 5 4.5 0.419997930526733 1 0 -1 0 0.02138543 0.02167578 0.02166427 1000 1000 1000 0.02138543 0.02167578 0.02166427 1000 1000 1000 0.02001751 0.01996443 0.02011177 0.02060357 0.02034396 1000 0.02001751 0.01996443 0.02011177 0.02060357 0.02034396 1000
lala 14 0.3 1 first 13 1 192 4 2.32 0.859997510910034 0 1 1 1 0.01869964 0.01867688 0.01893846 1000 1000 1000 0.01869964 0.01867688 0.01893846 1000 1000 1000 0.02182536 0.02189506 0.02245591 0.02310043 0.02370442 1000 0.02182536 0.02189506 0.02245591 0.02310043 0.02370442 1000
lala 9 1.2 1 second 3 1 193 5 4.25 0.079998254776001 -1 1 1 1 0.01721005 0.01746205 0.01739758 0.01806614 0.01848317 1000 0.01721005 0.01746205 0.01739758 0.01806614 0.01848317 1000 0.01935903 0.01944337 0.02015937 0.0202799 0.01978804 1000 0.01935903 0.01944337 0.02015937 0.0202799 0.01978804 1000
lala 15 0.075 0 second 9 1 194 5 2.975001 0.23999810218811 1 1 -1 1 0.01829886 0.01842091 0.01834594 0.01825268 0.01798384 1000 0.01829886 0.01842091 0.01834594 0.01825268 0.01798384 1000 0.01662125 0.01680677 0.01624097 0.01652705 0.0158506 1000 0.01662125 0.01680677 0.01624097 0.01652705 0.0158506 1000
lala 7 1.2 1 first 11 1 195 6 3.180001 0.299998044967651 1 1 1 0 0.01331601 0.01351421 0.01431964 1000 1000 1000 0.01331601 0.01351421 0.01431964 1000 1000 1000 0.01717899 0.01742397 0.01763111 0.01707968 0.01664404 1000 0.01717899 0.01742397 0.01763111 0.01707968 0.01664404 1000
lala 11 2.4 0 second 15 1 196 5 1.65 0.419997930526733 0 1 -1 0 0.01596983 0.01639413 0.01611875 0.01560953 0.01555017 1000 0.01596983 0.01639413 0.01611875 0.01560953 0.01555017 1000 0.01593918 0.0157577 0.01582055 0.01580968 0.015574 1000 0.01593918 0.0157577 0.01582055 0.01580968 0.015574 1000
lala 12 0.3 1 second 16 1 197 6 4.86 0.179998159408569 0 0 1 0 0.01727108 0.01701638 0.01626066 0.01641534 0.01656339 1000 0.01727108 0.01701638 0.01626066 0.01641534 0.01656339 1000 0.01490333 0.01476218 0.01426323 0.01408175 0.01377168 1000 0.01490333 0.01476218 0.01426323 0.01408175 0.01377168 1000
lala 15 0.3 0 first 1 1 198 4 2.02 0.01999831199646 -1 1 -1 1 0.01246436 0.01339634 0.01308224 1000 1000 1000 0.01246436 0.01339634 0.01308224 1000 1000 1000 0.0154126 0.01484304 0.0157804 0.01691373 0.01737523 1000 0.0154126 0.01484304 0.0157804 0.01691373 0.01737523 1000
lala 14 1.2 0 second 4 1 199 6 2.16 0.279998064041138 -1 0 -1 0 0.01400383 0.01397309 0.01424521 0.01418526 0.01394235 1000 0.01400383 0.01397309 0.01424521 0.01418526 0.01394235 1000 0.01456239 0.0145695 0.01472128 0.01450656 0.01512529 1000 0.01456239 0.0145695 0.01472128 0.01450656 0.01512529 1000
lala 12 1.2 1 first 15 1 200 5 2.85 0.739997625350952 0 1 1 0 0.0106875 0.01156761 0.01159904 0.01247453 0.01350443 0.01309774 0.0106875 0.01156761 0.01159904 0.01247453 0.01350443 0.01309774 0.01546933 0.01530529 0.0150492 0.01457726 0.01441074 1000 0.01546933 0.01530529 0.0150492 0.01457726 0.01441074 1000
lala 13 0.3 1 second 16 1 201 6 4.559999 0.119998216629028 0 0 1 1 0.007987966 0.007696962 0.00629355 0.007860906 0.00679225 1000 0.007987966 0.007696962 0.00629355 0.007860906 0.00679225 1000 -0.002974893 -0.005875113 -0.008765265 -0.01030594 -0.01253175 1000 -0.002974893 -0.005875113 -0.008765265 -0.01030594 -0.01253175 1000
lala 12 0.3 1 second 8 1 202 5 4.8 0.219998121261597 1 0 1 1 -0.01359579 -0.01633586 -0.01600609 -0.01177044 -0.008507689 1000 -0.01359579 -0.01633586 -0.01600609 -0.01177044 -0.008507689 1000 -0.001668476 -0.0007992614 -0.0006965857 -0.001095906 -0.001669283 1000 -0.001668476 -0.0007992614 -0.0006965857 -0.001095906 -0.001669283 1000
lala 15 0.6 0 second 4 1 203 6 2.76 0.23999810218811 -1 0 -1 1 -0.001920093 -0.001658673 -0.0005689508 -0.0006358112 -0.001613114 1000 -0.001920093 -0.001658673 -0.0005689508 -0.0006358112 -0.001613114 1000 -0.003621817 -0.003251714 -0.003108471 -0.002922151 -0.00271736 1000 -0.003621817 -0.003251714 -0.003108471 -0.002922151 -0.00271736 1000
lala 16 0.3 1 first 1 1 204 4 2.32 0.499997854232788 -1 1 1 0 -0.001202684 0.0001337651 0.000477732 1000 1000 1000 -0.001202684 0.0001337651 0.000477732 1000 1000 1000 0.005081993 0.004834319 0.004591032 0.004297585 0.004582317 1000 0.005081993 0.004834319 0.004591032 0.004297585 0.004582317 1000
lala 15 0.3 0 second 13 1 205 4 2.02 0.23999810218811 0 1 -1 0 0.006529774 0.006383162 0.006565003 0.006224776 0.005817332 1000 0.006529774 0.006383162 0.006565003 0.006224776 0.005817332 1000 0.005277037 0.006255615 0.006855241 0.006688178 0.006462067 1000 0.005277037 0.006255615 0.006855241 0.006688178 0.006462067 1000
lala 16 0.6 1 second 4 1 206 6 3.36 0.219998121261597 -1 0 1 0 0.006615921 0.007545022 0.00857166 0.009521613 0.01035659 1000 0.006615921 0.007545022 0.00857166 0.009521613 0.01035659 1000 0.009757404 0.009464955 0.01011814 0.01034971 0.01006172 1000 0.009757404 0.009464955 0.01011814 0.01034971 0.01006172 1000
lala 17 0.3 0 second 4 1 207 6 3.06 0.139998197555542 -1 0 -1 0 0.009521561 0.009627483 0.009521876 0.009416219 0.009054334 1000 0.009521561 0.009627483 0.009521876 0.009416219 0.009054334 1000 0.01074185 0.01098514 0.01126513 0.01086248 0.01040541 1000 0.01074185 0.01098514 0.01126513 0.01086248 0.01040541 1000
lala 13 0.15 1 second 6 1 208 4 3.69 0.23999810218811 1 0 1 1 0.009892769 0.009858632 0.009654529 0.009739424 0.009621656 1000 0.009892769 0.009858632 0.009654529 0.009739424 0.009621656 1000 0.00950007 0.009863177 0.009593121 0.009949344 0.01028471 1000 0.00950007 0.009863177 0.009593121 0.009949344 0.01028471 1000
lala 10 1.2 0 first 10 1 209 6 2.76 0.179998159408569 1 0 -1 1 0.007579501 0.009347612 0.009815685 1000 1000 1000 0.007579501 0.009347612 0.009815685 1000 1000 1000 0.01116075 0.01118224 0.01186165 0.0124853 0.01292675 1000 0.01116075 0.01118224 0.01186165 0.0124853 0.01292675 1000
lala 9 1.2 1 first 12 1 210 4 2.64 0.319998025894165 0 0 1 1 0.01392903 0.01406489 0.01339188 1000 1000 1000 0.01392903 0.01406489 0.01339188 1000 1000 1000 0.0141296 0.01430865 0.01403587 0.01448882 0.01494784 1000 0.0141296 0.01430865 0.01403587 0.01448882 0.01494784 1000
lala 11 0.6 1 second 10 1 211 6 3.36 0.179998159408569 1 0 1 0 0.01744946 0.01663022 0.01672465 0.01738356 0.01725556 1000 0.01744946 0.01663022 0.01672465 0.01738356 0.01725556 1000 0.01710571 0.01708976 0.01727839 0.01814854 0.01883169 1000 0.01710571 0.01708976 0.01727839 0.01814854 0.01883169 1000
lala 8 1.2 1 first 7 1 212 4 4.12 0.139998197555542 1 1 1 1 0.01950099 0.01985826 0.01910345 1000 1000 1000 0.01950099 0.01985826 0.01910345 1000 1000 1000 0.01913183 0.01987235 0.01986298 0.01978435 0.01971718 1000 0.01913183 0.01987235 0.01986298 0.01978435 0.01971718 1000
lala 14 0.3 0 first 16 1 213 6 4.259999 0.179998159408569 0 0 -1 1 0.01853196 0.01868971 0.01843093 1000 1000 1000 0.01853196 0.01868971 0.01843093 1000 1000 1000 0.02017925 0.02027436 0.02020095 0.0201668 0.0196752 1000 0.02017925 0.02027436 0.02020095 0.0201668 0.0196752 1000
lala 11 0.3 0 first 5 1 214 6 3.480001 0.359997987747192 -1 1 -1 1 0.01753761 0.01736937 0.01615482 1000 1000 1000 0.01753761 0.01736937 0.01615482 1000 1000 1000 0.02305655 0.02384323 0.02384625 0.02420477 0.02461538 1000 0.02305655 0.02384323 0.02384625 0.02420477 0.02461538 1000
lala 16 0.15 1 first 13 1 215 4 2.17 0.219998121261597 0 1 1 1 0.02185855 0.02288049 0.02423678 1000 1000 1000 0.02185855 0.02288049 0.02423678 1000 1000 1000 0.02402894 0.02377396 0.02329063 0.02406538 0.02443364 1000 0.02402894 0.02377396 0.02329063 0.02406538 0.02443364 1000
lala 11 0.6 0 second 0 1 216 4 3.24 0.119998216629028 -1 0 -1 0 0.0233624 0.02352418 0.02338295 0.02349109 0.02313675 1000 0.0233624 0.02352418 0.02338295 0.02349109 0.02313675 1000 0.02344314 0.02387986 0.02367769 0.02363084 0.02340023 1000 0.02344314 0.02387986 0.02367769 0.02363084 0.02340023 1000
lala 9 1.2 0 first 2 1 217 5 3.3 0.359997987747192 -1 0 -1 0 0.02260198 0.02258868 0.02268577 1000 1000 1000 0.02260198 0.02258868 0.02268577 1000 1000 1000 0.02422879 0.02382245 0.02384926 0.02348534 0.02359888 1000 0.02422879 0.02382245 0.02384926 0.02348534 0.02359888 1000
lala 8 1.2 0 first 11 1 218 6 1.980001 0.339998006820679 1 1 -1 1 0.0245173 0.02490297 0.02457949 1000 1000 1000 0.0245173 0.02490297 0.02457949 1000 1000 1000 0.01816448 0.01779776 0.01772628 0.01792166 0.01789099 1000 0.01816448 0.01779776 0.01772628 0.01792166 0.01789099 1000
lala 13 0.15 1 first 8 1 219 5 4.65 0.179998159408569 1 0 1 1 0.01723198 0.01707392 0.01619345 1000 1000 1000 0.01723198 0.01707392 0.01619345 1000 1000 1000 0.01178426 0.0119341 0.01188442 0.01142779 0.01089197 1000 0.01178426 0.0119341 0.01188442 0.01142779 0.01089197 1000
lala 9 1.2 0 first 7 1 220 4 2.92 0.259998083114624 1 1 -1 0 0.007262818 0.007629261 0.007371831 1000 1000 1000 0.007262818 0.007629261 0.007371831 1000 1000 1000 0.00348668 0.003518658 0.003951574 0.004084257 0.00424739 1000 0.00348668 0.003518658 0.003951574 0.004084257 0.00424739 1000
lala 16 0.0375 1 first 9 1 221 5 3.012501 0.419997930526733 1 1 1 0 0.003678052 0.004007575 0.004191594 1000 1000 1000 0.003678052 0.004007575 0.004191594 1000 1000 1000 0.003296447 0.002926964 0.002768977 0.002267569 0.002088997 1000 0.003296447 0.002926964 0.002768977 0.002267569 0.002088997 1000
lala 7 1.2 1 second 14 1 222 5 3.3 0.359997987747192 0 0 1 0 0.003377958 0.0001172674 -0.004863343 -0.007586739 -0.01015317 1000 0.003377958 0.0001172674 -0.004863343 -0.007586739 -0.01015317 1000 -0.004975908 -0.00335074 -0.003537195 -0.004457408 -0.004076499 1000 -0.004975908 -0.00335074 -0.003537195 -0.004457408 -0.004076499 1000
lala 10 0.6 0 first 2 1 223 5 3.9 0.359997987747192 -1 0 -1 0 -0.001688336 -0.001285375 -0.0013769 1000 1000 1000 -0.001688336 -0.001285375 -0.0013769 1000 1000 1000 -0.002981509 -0.002581008 -0.002513886 -0.002479212 -0.002414651 1000 -0.002981509 -0.002581008 -0.002513886 -0.002479212 -0.002414651 1000
lala 11 0.6 1 first 2 1 224 5 4.5 0.359997987747192 -1 0 1 1 -0.001219763 -0.0008134675 -0.0002931401 1000 1000 1000 -0.001219763 -0.0008134675 -0.0002931401 1000 1000 1000 0.007019012 0.00660961 0.009378777 0.008596685 0.01236465 1000 0.007019012 0.00660961 0.009378777 0.008596685 0.01236465 1000
lala 17 0.15 0 first 1 1 225 4 2.17 0.379997968673706 -1 1 -1 0 0.02015297 0.01936264 0.01981678 1000 1000 1000 0.02015297 0.01936264 0.01981678 1000 1000 1000 0.007958066 0.011329 0.006415598 0.003319681 -0.003603835 1000 0.007958066 0.011329 0.006415598 0.003319681 -0.003603835 1000
lala 14 0.075 0 first 6 1 226 4 3.615 0.319998025894165 1 0 -1 1 0.002318104 0.006615727 0.007722953 1000 1000 1000 0.002318104 0.006615727 0.007722953 1000 1000 1000 0.01025245 0.01248137 0.01268628 0.01315344 0.01351843 1000 0.01025245 0.01248137 0.01268628 0.01315344 0.01351843 1000
lala 10 0.6 0 second 12 1 227 4 2.04 0.519997835159302 0 0 -1 1 0.01489537 0.01654652 0.01757467 0.017367 0.01713791 1000 0.01489537 0.01654652 0.01757467 0.017367 0.01713791 1000 0.01482048 0.01567873 0.01608798 0.01634317 0.01670109 1000 0.01482048 0.01567873 0.01608798 0.01634317 0.01670109 1000
lala 18 0.15 0 first 4 1 228 6 3.21 0.259998083114624 -1 0 -1 1 0.01951748 0.01954042 0.01957295 1000 1000 1000 0.01951748 0.01954042 0.01957295 1000 1000 1000 0.017865 0.01856991 0.01839293 0.01825378 0.01863355 1000 0.017865 0.01856991 0.01839293 0.01825378 0.01863355 1000
lala 10 0.6 1 second 7 1 229 4 3.52 0.0999982357025146 1 1 1 1 0.02042661 0.01971976 0.01986721 0.02063002 0.02168298 1000 0.02042661 0.01971976 0.01986721 0.02063002 0.02168298 1000 0.02208161 0.02331897 0.02302353 0.02307271 0.02412963 1000 0.02208161 0.02331897 0.02302353 0.02307271 0.02412963 1000
lala 11 0.3 1 second 7 1 230 4 3.22 0.259998083114624 1 1 1 1 0.02245324 0.02180697 0.02203364 0.02290526 0.02307117 1000 0.02245324 0.02180697 0.02203364 0.02290526 0.02307117 1000 0.02188864 0.02180732 0.02192035 0.02231424 0.02220619 1000 0.02188864 0.02180732 0.02192035 0.02231424 0.02220619 1000
lala 10 0.6 1 second 3 1 231 5 3.65 0.599997758865356 -1 1 1 1 0.02406419 0.02472068 0.02483939 0.02495418 0.02436954 1000 0.02406419 0.02472068 0.02483939 0.02495418 0.02436954 1000 0.02333796 0.02303321 0.02270969 0.02267343 0.02260774 1000 0.02333796 0.02303321 0.02270969 0.02267343 0.02260774 1000
lala 17 0.01875 1 first 9 1 232 5 2.993751 0.639997720718384 1 1 1 0 0.020309 0.02000018 0.01932523 1000 1000 1000 0.020309 0.02000018 0.01932523 1000 1000 1000 0.01696264 0.01705047 0.01613244 0.01538873 0.01584027 1000 0.01696264 0.01705047 0.01613244 0.01538873 0.01584027 1000
lala 9 1.2 1 first 11 1 233 6 3.180001 0.959997415542603 1 1 1 0 0.01154706 0.01179522 0.01083863 1000 1000 1000 0.01154706 0.01179522 0.01083863 1000 1000 1000 0.01086818 0.01101381 0.01152313 0.01172914 0.01156291 1000 0.01086818 0.01101381 0.01152313 0.01172914 0.01156291 1000
lala 10 0.6 0 second 11 1 234 6 2.580001 0.01999831199646 1 1 -1 0 0.01116132 0.01087561 0.01065449 0.01124179 0.01160124 1000 0.01116132 0.01087561 0.01065449 0.01124179 0.01160124 1000 0.01227633 0.01272896 0.01262463 0.01269267 0.01336099 1000 0.01227633 0.01272896 0.01262463 0.01269267 0.01336099 1000
lala 8 1.2 0 first 14 1 235 5 2.1 0.01999831199646 0 0 -1 1 0.01107753 0.01099864 0.011498 1000 1000 1000 0.01107753 0.01099864 0.011498 1000 1000 1000 0.01553465 0.01577453 0.01559069 0.0156895 0.01697567 1000 0.01553465 0.01577453 0.01559069 0.0156895 0.01697567 1000
lala 12 0.3 1 second 7 1 236 4 2.92 0.119998216629028 1 1 1 0 0.01459941 0.01353285 0.01305046 0.01362991 0.01411315 1000 0.01459941 0.01353285 0.01305046 0.01362991 0.01411315 1000 0.01017558 0.01113855 0.01154108 0.01196734 0.01315804 1000 0.01017558 0.01113855 0.01154108 0.01196734 0.01315804 1000
lala 12 0.3 0 first 0 1 237 4 3.54 0.23999810218811 -1 0 -1 0 0.008346749 0.00780134 0.006807231 1000 1000 1000 0.008346749 0.00780134 0.006807231 1000 1000 1000 0.00659112 0.006587977 0.006601127 0.005967879 0.006599658 1000 0.00659112 0.006587977 0.006601127 0.005967879 0.006599658 1000
lala 19 0.15 0 first 4 1 238 6 3.36 0.159998178482056 -1 0 -1 0 0.003643843 0.003857919 0.003978802 1000 1000 1000 0.003643843 0.003857919 0.003978802 1000 1000 1000 -0.0007845832 -0.0008845564 -0.001475797 -0.002639472 -0.003269554 1000 -0.0007845832 -0.0008845564 -0.001475797 -0.002639472 -0.003269554 1000
lala 13 0.3 0 first 7 1 239 4 2.62 0.23999810218811 1 1 -1 1 -0.01035983 -0.01126825 -0.01186834 1000 1000 1000 -0.01035983 -0.01126825 -0.01186834 1000 1000 1000 -0.006740533 -0.005536224 -0.005670154 -0.004633955 -0.005643174 1000 -0.006740533 -0.005536224 -0.005670154 -0.004633955 -0.005643174 1000
lala 13 0.6 0 second 15 1 240 5 2.25 0.159998178482056 0 1 -1 0 0.0006042215 -0.0005888784 -0.001016013 -0.001123118 -0.001210888 1000 0.0006042215 -0.0005888784 -0.001016013 -0.001123118 -0.001210888 1000 0.001463677 0.001739991 0.001279079 0.001215549 0.002101381 1000 0.001463677 0.001739991 0.001279079 0.001215549 0.002101381 1000
lala 17 0.075 0 second 13 1 241 4 2.095 0.259998083114624 0 1 -1 1 -0.00487608 -0.003586926 -0.00190663 -0.001123186 -0.0006673865 1000 -0.00487608 -0.003586926 -0.00190663 -0.001123186 -0.0006673865 1000 -0.002436438 -0.002323839 -0.002074979 -0.001460756 -0.0008864564 1000 -0.002436438 -0.002323839 -0.002074979 -0.001460756 -0.0008864564 1000
lala 12 0.3 1 second 2 1 242 5 4.2 0.159998178482056 -1 0 1 0 -0.08392125 -0.08127292 -0.06265061 -0.04237823 -0.03759399 1000 -0.08392125 -0.08127292 -0.06265061 -0.04237823 -0.03759399 1000 -0.01653304 -0.01343557 -0.01049078 -0.01006997 -0.01273824 1000 -0.01653304 -0.01343557 -0.01049078 -0.01006997 -0.01273824 1000
lala 15 0.0375 0 first 6 1 243 4 3.6525 0.679997682571411 1 0 -1 1 -0.00176788 -0.0006908865 -0.003254961 1000 1000 1000 -0.00176788 -0.0006908865 -0.003254961 1000 1000 1000 0.002911096 0.004003207 0.004738719 0.003025597 0.0006929483 1000 0.002911096 0.004003207 0.004738719 0.003025597 0.0006929483 1000
lala 12 0.3 1 first 10 1 244 6 3.06 0.659997701644897 1 0 1 0 -0.003013563 -0.003079701 -0.003120986 1000 1000 1000 -0.003013563 -0.003079701 -0.003120986 1000 1000 1000 -0.004667852 -0.003963687 -0.00358086 -0.002958135 -0.002433302 1000 -0.004667852 -0.003963687 -0.00358086 -0.002958135 -0.002433302 1000
lala 9 1.2 0 second 14 1 245 5 3.3 0.219998121261597 0 0 -1 0 0.0003408233 0.0002052147 0.0004116646 0.0001051517 0.0001569426 1000 0.0003408233 0.0002052147 0.0004116646 0.0001051517 0.0001569426 1000 0.002982751 0.0031909 0.003269971 0.003500108 0.003252344 1000 0.002982751 0.0031909 0.003269971 0.003500108 0.003252344 1000
lala 18 0.01875 1 first 9 1 246 5 2.975001 0.319998025894165 1 1 1 0 0.001336216 0.00195018 0.00333942 1000 1000 1000 0.001336216 0.00195018 0.00333942 1000 1000 1000 0.005287725 0.005108731 0.005477954 0.005950228 0.005832151 1000 0.005287725 0.005108731 0.005477954 0.005950228 0.005832151 1000
lala 14 0.15 0 second 7 1 247 4 2.77 0.23999810218811 1 1 -1 1 0.007738933 0.008472952 0.008606377 0.00848248 0.008112065 1000 0.007738933 0.008472952 0.008606377 0.00848248 0.008112065 1000 0.008823293 0.009467787 0.01005105 0.01040587 0.01056952 1000 0.008823293 0.009467787 0.01005105 0.01040587 0.01056952 1000
lala 11 0.3 0 first 12 1 248 4 2.34 0.0599982738494873 0 0 -1 1 0.009598359 0.01023577 0.01016769 1000 1000 1000 0.009598359 0.01023577 0.01016769 1000 1000 1000 0.005291257 0.004900821 0.004353228 0.004127706 0.004316112 1000 0.005291257 0.004900821 0.004353228 0.004127706 0.004316112 1000
lala 12 0.15 1 second 5 1 249 6 3.630001 0.39999794960022 -1 1 1 0 0.00632282 0.006591917 0.008192385 0.008001465 0.007451266 1000 0.00632282 0.006591917 0.008192385 0.008001465 0.007451266 1000 0.01222291 0.01016122 0.01172186 0.01383223 0.01390848 1000 0.01222291 0.01016122 0.01172186 0.01383223 0.01390848 1000
lala 13 0.3 1 second 0 1 250 4 3.84 0.859997510910034 -1 0 1 0 0.01844972 0.01777202 0.01788785 0.01860582 0.01907787 1000 0.01844972 0.01777202 0.01788785 0.01860582 0.01907787 1000 0.0207481 0.02065447 0.02134427 0.02170717 0.02148857 1000 0.0207481 0.02065447 0.02134427 0.02170717 0.02148857 1000
lala 11 0.6 0 first 3 1 251 5 3.05 0.01999831199646 -1 1 -1 0 0.02063039 0.02044793 0.02100939 1000 1000 1000 0.02063039 0.02044793 0.02100939 1000 1000 1000 0.02070068 0.02089118 0.02240112 0.02288987 0.02445634 1000 0.02070068 0.02089118 0.02240112 0.02288987 0.02445634 1000
lala 12 0.3 0 first 12 1 252 4 2.64 0.01999831199646 0 0 -1 1 0.02199502 0.01411861 0.013404 1000 1000 1000 0.02199502 0.01411861 0.013404 1000 1000 1000 0.01624388 0.01707031 0.01929547 0.02017228 0.02068206 1000 0.01624388 0.01707031 0.01929547 0.02017228 0.02068206 1000
lala 13 0.3 0 second 10 1 253 6 2.76 0.139998197555542 1 0 -1 0 0.02176875 0.02219092 0.02328181 0.02668023 0.03369084 1000 0.02176875 0.02219092 0.02328181 0.02668023 0.03369084 1000 0.01228578 0.01586886 0.01622506 0.01601715 0.01630009 1000 0.01228578 0.01586886 0.01622506 0.01601715 0.01630009 1000
lala 19 0.01875 0 first 9 1 254 5 2.956251 0.259998083114624 1 1 -1 1 0.02146892 0.02488165 0.02383074 1000 1000 1000 0.02146892 0.02488165 0.02383074 1000 1000 1000 0.008926506 0.01052783 0.009497996 0.01084784 0.01165108 1000 0.008926506 0.01052783 0.009497996 0.01084784 0.01165108 1000
lala 16 0.0375 1 first 6 1 255 4 3.69 0.359997987747192 1 0 1 1 0.01066893 0.01072656 0.01169405 1000 1000 1000 0.01066893 0.01072656 0.01169405 1000 1000 1000 0.01673025 0.01596506 0.01664105 0.01701425 0.01643246 1000 0.01673025 0.01596506 0.01664105 0.01701425 0.01643246 1000
lala 20 0.009375 0 first 9 1 256 5 2.965626 0.279998064041138 1 1 -1 1 0.01214033 0.01153897 0.01150354 1000 1000 1000 0.01214033 0.01153897 0.01150354 1000 1000 1000 0.01091658 0.01104534 0.01069727 0.01055001 0.009366549 1000 0.01091658 0.01104534 0.01069727 0.01055001 0.009366549 1000
lala 14 0.15 0 first 10 1 257 6 2.91 0.339998006820679 1 0 -1 0 0.0115166 0.01134098 0.01120388 1000 1000 1000 0.0115166 0.01134098 0.01120388 1000 1000 1000 0.01625531 0.01641894 0.01672547 0.01623309 0.01592938 1000 0.01625531 0.01641894 0.01672547 0.01623309 0.01592938 1000
lala 20 0.15 1 second 4 1 258 6 3.51 0.139998197555542 -1 0 1 0 0.01397951 0.01450136 0.0153303 0.01602559 0.01561176 1000 0.01397951 0.01450136 0.0153303 0.01602559 0.01561176 1000 0.01417759 0.01345752 0.01450626 0.01625822 0.01738642 1000 0.01417759 0.01345752 0.01450626 0.01625822 0.01738642 1000
lala 18 0.0375 0 first 13 1 259 4 2.1325 0.0599982738494873 0 1 -1 0 0.01629244 0.01407237 0.01536512 1000 1000 1000 0.01629244 0.01407237 0.01536512 1000 1000 1000 0.02084728 0.02252773 0.02559704 0.02931111 0.02828315 1000 0.02084728 0.02252773 0.02559704 0.02931111 0.02828315 1000
lala 21 0.075 1 second 4 1 260 6 3.435 0.339998006820679 -1 0 1 1 0.02335075 0.0233855 0.02276263 0.02386568 0.02461152 1000 0.02335075 0.0233855 0.02276263 0.02386568 0.02461152 1000 0.02522791 0.02477242 0.02760116 0.02597474 0.02496134 1000 0.02522791 0.02477242 0.02760116 0.02597474 0.02496134 1000
lala 21 0.009375 1 second 9 1 261 5 2.975001 0.339998006820679 1 1 1 0 0.01635823 0.01698262 0.01732351 0.01757869 0.01696511 1000 0.01635823 0.01698262 0.01732351 0.01757869 0.01696511 1000 0.02000852 0.01994603 0.02040665 0.02278421 0.02140384 1000 0.02000852 0.01994603 0.02040665 0.02278421 0.02140384 1000
lala 14 0.15 1 second 8 1 262 5 4.5 0.319998025894165 1 0 1 0 0.01564633 0.01257029 0.01093511 0.01181716 0.01238537 1000 0.01564633 0.01257029 0.01093511 0.01181716 0.01238537 1000 0.005419104 0.005780844 0.005873107 0.007127382 0.0122726 1000 0.005419104 0.005780844 0.005873107 0.007127382 0.0122726 1000
lala 11 0.3 1 first 11 1 263 6 2.880001 0.61999773979187 1 1 1 1 0.01523301 0.01471319 0.01451852 1000 1000 1000 0.01523301 0.01471319 0.01451852 1000 1000 1000 0.0167087 0.01607932 0.01681746 0.01814101 0.01907828 1000 0.0167087 0.01607932 0.01681746 0.01814101 0.01907828 1000
lala 13 0.075 1 second 5 1 264 6 3.555001 0.439997911453247 -1 1 1 0 0.00504696 0.005082329 0.005513917 0.006934529 0.006516498 1000 0.00504696 0.005082329 0.005513917 0.006934529 0.006516498 1000 0.005215754 0.0056149 0.005668777 0.006656268 0.006462645 1000 0.005215754 0.0056149 0.005668777 0.006656268 0.006462645 1000
lala 14 0.15 1 second 0 1 265 4 3.69 0.279998064041138 -1 0 1 1 0.001417383 0.001253324 0.0008606438 0.0004522826 0.001265579 1000 0.001417383 0.001253324 0.0008606438 0.0004522826 0.001265579 1000 0.002431398 0.002093053 0.004504077 0.005780657 0.001774844 1000 0.002431398 0.002093053 0.004504077 0.005780657 0.001774844 1000
lala 12 0.3 1 second 3 1 266 5 3.35 0.259998083114624 -1 1 1 0 -0.004066743 -0.003423232 -0.002873478 -0.002133751 -0.00162423 1000 -0.004066743 -0.003423232 -0.002873478 -0.002133751 -0.00162423 1000 -0.004371027 -0.003974309 -0.003107645 -0.002859531 -0.003229477 1000 -0.004371027 -0.003974309 -0.003107645 -0.002859531 -0.003229477 1000
lala 18 0.075 0 first 1 1 267 4 2.245 0.01999831199646 -1 1 -1 0 -0.006871757 -0.006378258 -0.006163915 1000 1000 1000 -0.006871757 -0.006378258 -0.006163915 1000 1000 1000 -0.006191776 -0.006099813 -0.005959653 -0.00563421 -0.006599782 1000 -0.006191776 -0.006099813 -0.005959653 -0.00563421 -0.006599782 1000
lala 19 0.075 1 second 1 1 268 4 2.32 0.259998083114624 -1 1 1 0 -0.007629728 -0.008393685 -0.008557407 -0.009139351 -0.01062049 1000 -0.007629728 -0.008393685 -0.008557407 -0.009139351 -0.01062049 1000 -0.01632459 -0.01623044 -0.01610049 -0.01777869 -0.01894469 1000 -0.01632459 -0.01623044 -0.01610049 -0.01777869 -0.01894469 1000
lala 15 0.15 1 first 16 1 269 6 4.409999 0.219998121261597 0 0 1 0 -0.01981374 -0.01967499 -0.02238708 1000 1000 1000 -0.01981374 -0.01967499 -0.02238708 1000 1000 1000 -0.0008509596 -7.643111E-05 0.00209889 0.003299747 0.003933048 1000 -0.0008509596 -7.643111E-05 0.00209889 0.003299747 0.003933048 1000
lala 22 0.009375 0 second 17 1 270 6 4.558126 0.419997930526733 0 1 -1 0 0.003562143 0.003582041 0.003577273 0.003606478 0.004645869 1000 0.003562143 0.003582041 0.003577273 0.003606478 0.004645869 1000 0.006440749 0.006967044 0.007459925 0.008037716 0.008648257 1000 0.006440749 0.006967044 0.007459925 0.008037716 0.008648257 1000
lala 23 0.0046875 1 second 17 1 271 6 4.562813 0.139998197555542 0 1 1 0 0.007146525 0.007475153 0.007782804 0.007365696 0.007471 1000 0.007146525 0.007475153 0.007782804 0.007365696 0.007471 1000 0.009562646 0.009524271 0.008988345 0.009057332 0.008582097 1000 0.009562646 0.009524271 0.008988345 0.009057332 0.008582097 1000
lala 13 0.15 0 second 3 1 272 5 3.2 0.519997835159302 -1 1 -1 1 0.01073046 0.0106245 0.01078493 0.01032414 0.01042745 1000 0.01073046 0.0106245 0.01078493 0.01032414 0.01042745 1000 0.0103423 0.009605589 0.008371099 0.006415836 0.004847305 1000 0.0103423 0.009605589 0.008371099 0.006415836 0.004847305 1000
lala 12 0.15 0 first 11 1 273 6 2.730001 0.139998197555542 1 1 -1 1 0.02150311 0.02434916 0.02183848 1000 1000 1000 0.02150311 0.02434916 0.02183848 1000 1000 1000 0.02048681 0.0195063 0.02200681 0.02384255 0.02242592 1000 0.02048681 0.0195063 0.02200681 0.02384255 0.02242592 1000
lala 13 0.3 1 second 2 1 274 5 3.9 0.379997968673706 -1 0 1 0 0.01833857 0.0173711 0.01729358 0.01578752 0.01560763 1000 0.01833857 0.0173711 0.01729358 0.01578752 0.01560763 1000 0.01768356 0.01836383 0.01845236 0.01789776 0.0174101 1000 0.01768356 0.01836383 0.01845236 0.01789776 0.0174101 1000
lala 22 0.075 0 second 4 1 275 6 3.36 0.259998083114624 -1 0 -1 1 0.01853161 0.01781514 0.01790236 0.01817072 0.01784938 1000 0.01853161 0.01781514 0.01790236 0.01817072 0.01784938 1000 0.01691885 0.01706061 0.01761872 0.01789878 0.01775024 1000 0.01691885 0.01706061 0.01761872 0.01789878 0.01775024 1000
lala 14 0.075 0 second 5 1 276 6 3.480001 0.0999982357025146 -1 1 -1 0 0.01705438 0.01679287 0.01556282 0.01138388 0.01696564 1000 0.01705438 0.01679287 0.01556282 0.01138388 0.01696564 1000 0.01062929 0.01340772 0.01380675 0.01503646 0.01595867 1000 0.01062929 0.01340772 0.01380675 0.01503646 0.01595867 1000
lala 17 0.01875 1 second 6 1 277 4 3.67125 0.379997968673706 1 0 1 0 0.002989497 0.003967321 0.01323289 0.01067097 0.006547264 1000 0.002989497 0.003967321 0.01323289 0.01067097 0.006547264 1000 0.01112794 0.01334168 0.01431657 0.01443908 0.01660113 1000 0.01112794 0.01334168 0.01431657 0.01443908 0.01660113 1000
lala 15 0.15 1 first 8 1 278 5 4.35 0.01999831199646 1 0 1 0 0.01810336 0.01867299 0.01930102 1000 1000 1000 0.01810336 0.01867299 0.01930102 1000 1000 1000 0.02568902 0.02632941 0.0269487 0.02746898 0.02837647 1000 0.02568902 0.02632941 0.0269487 0.02746898 0.02837647 1000
lala 15 0.15 0 first 10 1 279 6 3.06 0.0399982929229736 1 0 -1 1 0.01652686 0.01706422 0.01796656 1000 1000 1000 0.01652686 0.01706422 0.01796656 1000 1000 1000 0.0228146 0.02255978 0.02209407 0.02161015 0.02136379 1000 0.0228146 0.02255978 0.02209407 0.02161015 0.02136379 1000
lala 15 0.0375 0 first 5 1 280 6 3.517501 0.319998025894165 -1 1 -1 1 0.01054397 0.01420425 0.01669013 1000 1000 1000 0.01054397 0.01420425 0.01669013 1000 1000 1000 0.020106 0.01996383 0.01973121 0.0201753 0.02088822 1000 0.020106 0.01996383 0.01973121 0.0201753 0.02088822 1000
lala 19 0.0375 0 second 13 1 281 4 2.17 0.139998197555542 0 1 -1 0 0.01721526 0.01653861 0.01565557 0.0138232 0.01589238 1000 0.01721526 0.01653861 0.01565557 0.0138232 0.01589238 1000 0.02368934 0.02579473 0.02660325 0.02537985 0.02512417 1000 0.02368934 0.02579473 0.02660325 0.02537985 0.02512417 1000
lala 23 0.0375 0 first 4 1 282 6 3.3975 0.199998140335083 -1 0 -1 0 0.02133384 0.02220367 0.02327697 1000 1000 1000 0.02133384 0.02220367 0.02327697 1000 1000 1000 0.03164228 0.02734129 0.02456549 0.02279663 0.02429236 1000 0.03164228 0.02734129 0.02456549 0.02279663 0.02429236 1000
lala 16 0.3 1 second 8 1 283 5 4.05 0.23999810218811 1 0 1 1 0.01390315 0.01483281 0.01609854 0.01689964 0.01714611 1000 0.01390315 0.01483281 0.01609854 0.01689964 0.01714611 1000 0.01603556 0.01606018 0.01661957 0.01682843 0.01674957 1000 0.01603556 0.01606018 0.01661957 0.01682843 0.01674957 1000
lala 22 0.0046875 1 second 9 1 284 5 2.970314 0.259998083114624 1 1 1 0 0.01760692 0.017704 0.01792043 0.01791018 0.01782651 1000 0.01760692 0.017704 0.01792043 0.01791018 0.01782651 1000 0.01816935 0.01802518 0.01825131 0.01846157 0.01833596 1000 0.01816935 0.01802518 0.01825131 0.01846157 0.01833596 1000
lala 15 0.15 0 second 7 1 285 4 2.92 0.299998044967651 1 1 -1 0 0.01648815 0.01670717 0.01768064 0.01822508 0.01825699 1000 0.01648815 0.01670717 0.01768064 0.01822508 0.01825699 1000 0.0191844 0.01897164 0.01916864 0.01972777 0.01987676 1000 0.0191844 0.01897164 0.01916864 0.01972777 0.01987676 1000
lala 20 0.0375 0 second 1 1 286 4 2.2825 0.139998197555542 -1 1 -1 0 0.02023199 0.02073847 0.02102908 0.02161647 0.02187105 1000 0.02023199 0.02073847 0.02102908 0.02161647 0.02187105 1000 0.02244939 0.02202259 0.02201795 0.02180152 0.0216324 1000 0.02244939 0.02202259 0.02201795 0.02180152 0.0216324 1000
lala 24 0.0375 0 first 4 1 287 6 3.435 0.179998159408569 -1 0 -1 1 0.01669241 0.01713594 0.01757742 1000 1000 1000 0.01669241 0.01713594 0.01757742 1000 1000 1000 0.02047932 0.02100851 0.02138708 0.02161447 0.02178725 1000 0.02047932 0.02100851 0.02138708 0.02161447 0.02178725 1000
lala 23 0.0046875 0 second 9 1 288 5 2.965626 0.459997892379761 1 1 -1 0 0.02935647 0.02978778 0.02936506 0.02606775 0.02277985 1000 0.02935647 0.02978778 0.02936506 0.02606775 0.02277985 1000 0.02291581 0.0230391 0.02301847 0.0231387 0.0230857 1000 0.02291581 0.0230391 0.02301847 0.0231387 0.0230857 1000
lala 17 0.6 0 first 8 1 289 5 3.45 0.299998044967651 1 0 -1 1 0.01716392 0.01221684 0.00879612 1000 1000 1000 0.01716392 0.01221684 0.00879612 1000 1000 1000 -0.01484046 -0.01421704 -0.01036059 -0.007583675 -0.006143086 1000 -0.01484046 -0.01421704 -0.01036059 -0.007583675 -0.006143086 1000
lala 16 0.075 1 second 16 1 290 6 4.335 1.0999972820282 0 0 1 1 0.001607519 0.00137767 -0.001234771 -0.00290533 -0.002224547 1000 0.001607519 0.00137767 -0.001234771 -0.00290533 -0.002224547 1000 0.002739829 0.005416713 0.003105818 0.002701984 0.003403573 1000 0.002739829 0.005416713 0.003105818 0.002701984 0.003403573 1000
lala 16 0.15 0 second 10 1 291 6 3.21 0.419997930526733 1 0 -1 1 0.006084434 0.008230086 0.008571377 0.007327268 0.005292525 1000 0.006084434 0.008230086 0.008571377 0.007327268 0.005292525 1000 0.001425313 0.0009192858 0.001372575 0.0007915883 -0.0003251558 1000 0.001425313 0.0009192858 0.001372575 0.0007915883 -0.0003251558 1000
lala 10 1.2 1 second 14 1 292 5 4.5 0.079998254776001 0 0 1 0 0.002852286 0.002290567 0.001317688 0.001494497 0.001112164 1000 0.002852286 0.002290567 0.001317688 0.001494497 0.001112164 1000 0.003790409 0.003718507 0.003294931 0.003774445 0.004331794 1000 0.003790409 0.003718507 0.003294931 0.003774445 0.004331794 1000
lala 11 0.6 1 first 14 1 293 5 3.9 0.01999831199646 0 0 1 1 0.006502229 0.007252757 0.007947021 1000 1000 1000 0.006502229 0.007252757 0.007947021 1000 1000 1000 0.009531824 0.008857228 0.00870082 0.008469495 0.008372945 1000 0.009531824 0.008857228 0.00870082 0.008469495 0.008372945 1000
lala 13 0.3 0 first 12 1 294 4 2.94 0.01999831199646 0 0 -1 1 0.009696242 0.008264842 0.007787131 1000 1000 1000 0.009696242 0.008264842 0.007787131 1000 1000 1000 0.008956481 0.009512682 0.009302746 0.008994151 0.008451451 1000 0.008956481 0.009512682 0.009302746 0.008994151 0.008451451 1000
lala 14 0.3 0 second 2 1 295 5 3.6 0.379997968673706 -1 0 -1 1 0.007812866 0.007773895 0.007421453 0.007245133 0.006945403 1000 0.007812866 0.007773895 0.007421453 0.007245133 0.006945403 1000 0.009008022 0.009215758 0.01002803 0.01050315 0.01077848 1000 0.009008022 0.009215758 0.01002803 0.01050315 0.01077848 1000
lala 25 0.0375 1 first 4 1 296 6 3.4725 0.639997720718384 -1 0 1 0 0.01046257 0.009995747 0.009638804 1000 1000 1000 0.01046257 0.009995747 0.009638804 1000 1000 1000 0.005671865 0.005443495 0.005328073 0.005342617 0.00510868 1000 0.005671865 0.005443495 0.005328073 0.005342617 0.00510868 1000
lala 15 0.15 0 first 0 1 297 4 3.54 0.659997701644897 -1 0 -1 1 0.008698037 0.008421664 0.008601481 1000 1000 1000 0.008698037 0.008421664 0.008601481 1000 1000 1000 0.006089324 0.00564345 0.005706598 0.006048948 0.006041318 1000 0.006089324 0.00564345 0.005706598 0.006048948 0.006041318 1000
lala 21 0.01875 0 second 1 1 298 4 2.30125 0.23999810218811 -1 1 -1 1 0.005558147 0.005737768 0.006013358 0.006224961 0.005751029 1000 0.005558147 0.005737768 0.006013358 0.006224961 0.005751029 1000 0.004136133 0.004870815 0.008317504 0.01028501 0.008443166 1000 0.004136133 0.004870815 0.008317504 0.01028501 0.008443166 1000
lala 18 0.01875 0 second 6 1 299 4 3.6525 2.23999643325806 1 0 -1 0 0.007383823 0.006698695 0.009117161 0.0123573 0.01436247 1000 0.007383823 0.006698695 0.009117161 0.0123573 0.01436247 1000 0.01081481 0.01023817 0.01030527 0.009873779 0.009528187 1000 0.01081481 0.01023817 0.01030527 0.009873779 0.009528187 1000
lala 14 0.6 0 second 12 1 300 4 3.54 0.259998083114624 0 0 -1 1 -0.002943052 -0.003283947 -0.005230119 -0.006164745 -0.004750646 1000 -0.002943052 -0.003283947 -0.005230119 -0.006164745 -0.004750646 1000 -0.003491174 -0.003603199 -0.003698463 -0.003608732 -0.003768492 1000 -0.003491174 -0.003603199 -0.003698463 -0.003608732 -0.003768492 1000
lala 26 0.01875 0 second 4 1 301 6 3.45375 0.01999831199646 -1 0 -1 0 -0.001814559 -0.001266675 -0.00121312 -0.001082508 -0.001054304 1000 -0.001814559 -0.001266675 -0.00121312 -0.001082508 -0.001054304 1000 0.0004698185 0.0008878333 0.001252802 0.001631957 0.002311918 1000 0.0004698185 0.0008878333 0.001252802 0.001631957 0.002311918 1000
lala 16 0.0375 0 second 5 1 302 6 3.555001 0.199998140335083 -1 1 -1 0 0.00184967 0.002065787 0.001929147 0.001856159 0.001679632 1000 0.00184967 0.002065787 0.001929147 0.001856159 0.001679632 1000 0.0008061385 0.0008848095 0.001377149 0.001563901 0.0017104 1000 0.0008061385 0.0008848095 0.001377149 0.001563901 0.0017104 1000
lala 16 0.075 0 first 0 1 303 4 3.615 0.279998064041138 -1 0 -1 1 0.002593363 0.003168797 0.002888158 1000 1000 1000 0.002593363 0.003168797 0.002888158 1000 1000 1000 0.003635072 0.00385852 0.004796057 0.005097422 0.005212326 1000 0.003635072 0.00385852 0.004796057 0.005097422 0.005212326 1000
lala 14 0.3 1 first 15 1 304 5 2.55 0.279998064041138 0 1 1 0 0.004469533 0.004881096 0.005153918 1000 1000 1000 0.004469533 0.004881096 0.005153918 1000 1000 1000 0.006836655 0.006381565 0.005903137 0.005846505 0.006599161 1000 0.006836655 0.006381565 0.005903137 0.005846505 0.006599161 1000
lala 18 0.3 0 first 8 1 305 5 3.75 0.179998159408569 1 0 -1 0 0.007556443 0.006620678 0.005972331 1000 1000 1000 0.007556443 0.006620678 0.005972331 1000 1000 1000 0.006560507 0.006747675 0.006860238 0.005893038 0.005249281 1000 0.006560507 0.006747675 0.006860238 0.005893038 0.005249281 1000
lala 17 0.075 1 second 16 1 306 6 4.26 0.259998083114624 0 0 1 1 0.02654315 0.02859673 0.02976298 0.02662542 0.01984424 1000 0.02654315 0.02859673 0.02976298 0.02662542 0.01984424 1000 0.004500485 -0.0002225495 0.00076923 0.003751378 0.001833662 1000 0.004500485 -0.0002225495 0.00076923 0.003751378 0.001833662 1000
lala 20 0.0375 0 first 13 1 307 4 2.2075 0.01999831199646 0 1 -1 1 0.01836429 0.01669341 0.01685814 1000 1000 1000 0.01836429 0.01669341 0.01685814 1000 1000 1000 -0.01616935 -0.01102695 -0.005149167 -0.000990218 -0.002484842 1000 -0.01616935 -0.01102695 -0.005149167 -0.000990218 -0.002484842 1000
lala 15 0.15 0 first 15 1 308 5 2.4 0.23999810218811 0 1 -1 0 -0.01447333 -0.01633071 -0.02200296 1000 1000 1000 -0.01447333 -0.01633071 -0.02200296 1000 1000 1000 0.008371635 0.01396102 0.0145482 0.01178517 0.008641082 1000 0.008371635 0.01396102 0.0145482 0.01178517 0.008641082 1000
lala 21 0.075 0 second 13 1 309 4 2.2825 0.179998159408569 0 1 -1 0 0.004573512 0.00469388 0.005866958 0.007360796 0.007299857 1000 0.004573512 0.00469388 0.005866958 0.007360796 0.007299857 1000 0.01274048 0.01316053 0.0130701 0.01179615 0.01129948 1000 0.01274048 0.01316053 0.0130701 0.01179615 0.01129948 1000
lala 17 0.075 1 second 0 1 310 4 3.69 0.559997797012329 -1 0 1 1 0.01210741 0.0124474 0.01291653 0.01242885 0.01130646 1000 0.01210741 0.0124474 0.01291653 0.01242885 0.01130646 1000 0.01681365 0.01774669 0.01809448 0.01834805 0.01851328 1000 0.01681365 0.01774669 0.01809448 0.01834805 0.01851328 1000
lala 12 0.6 0 second 14 1 311 5 3.3 0.379997968673706 0 0 -1 1 0.01329432 0.01308838 0.01393927 0.01502432 0.01500444 1000 0.01329432 0.01308838 0.01393927 0.01502432 0.01500444 1000 0.01910864 0.01887811 0.0195372 0.01986061 0.01930991 1000 0.01910864 0.01887811 0.0195372 0.01986061 0.01930991 1000
lala 13 0.3 1 second 14 1 312 5 3.6 0.139998197555542 0 0 1 1 0.01975055 0.01936122 0.01965377 0.02003197 0.01972275 1000 0.01975055 0.01936122 0.01965377 0.02003197 0.01972275 1000 0.01761162 0.0178015 0.01903162 0.01939982 0.01935534 1000 0.01761162 0.0178015 0.01903162 0.01939982 0.01935534 1000
lala 24 0.00234375 1 second 17 1 313 6 4.56047 0.179998159408569 0 1 1 0 0.01950684 0.02007789 0.02122929 0.02230536 0.02247754 1000 0.01950684 0.02007789 0.02122929 0.02230536 0.02247754 1000 0.02511002 0.02553632 0.02609519 0.02550001 0.02388441 1000 0.02511002 0.02553632 0.02609519 0.02550001 0.02388441 1000
lala 19 0.009375 1 second 6 1 314 4 3.661875 0.439997911453247 1 0 1 0 0.01559214 0.01587415 0.01632661 0.01692553 0.01713664 1000 0.01559214 0.01587415 0.01632661 0.01692553 0.01713664 1000 -0.003377511 -0.006154606 -0.009704887 -0.01146708 -0.009292545 1000 -0.003377511 -0.006154606 -0.009704887 -0.01146708 -0.009292545 1000
lala 17 0.0375 0 first 5 1 315 6 3.592501 0.159998178482056 -1 1 -1 1 -0.009082577 -0.009978242 -0.00656808 1000 1000 1000 -0.009082577 -0.009978242 -0.00656808 1000 1000 1000 -0.001203609 -0.00171183 -0.002519219 -0.0002832177 0.003696361 1000 -0.001203609 -0.00171183 -0.002519219 -0.0002832177 0.003696361 1000
lala 16 0.075 1 first 15 1 316 5 2.475 0.559997797012329 0 1 1 0 0.002950246 0.003073279 0.00266539 1000 1000 1000 0.002950246 0.003073279 0.00266539 1000 1000 1000 0.002902806 0.00275448 0.00362801 0.004469618 0.00431262 1000 0.002902806 0.00275448 0.00362801 0.004469618 0.00431262 1000
lala 18 0.075 1 second 5 1 317 6 3.667501 0.179998159408569 -1 1 1 1 0.005806018 0.01037569 0.01351447 0.0158541 0.01798623 1000 0.005806018 0.01037569 0.01351447 0.0158541 0.01798623 1000 0.004310927 0.007999926 0.006313257 0.004628262 0.005395825 1000 0.004310927 0.007999926 0.006313257 0.004628262 0.005395825 1000
lala 18 0.075 1 first 16 1 318 6 4.185 0.179998159408569 0 0 1 1 -0.003686611 -0.001348242 0.001344245 1000 1000 1000 -0.003686611 -0.001348242 0.001344245 1000 1000 1000 0.002011197 0.004226996 0.004504883 0.004271664 0.005716813 1000 0.002011197 0.004226996 0.004504883 0.004271664 0.005716813 1000
lala 15 0.15 1 second 2 1 319 5 3.75 0.259998083114624 -1 0 1 0 0.00940367 0.01087219 0.01265808 0.01309668 0.01444737 1000 0.00940367 0.01087219 0.01265808 0.01309668 0.01444737 1000 0.02029838 0.02091226 0.02178842 0.02239718 0.02224794 1000 0.02029838 0.02091226 0.02178842 0.02239718 0.02224794 1000
lala 15 1.2 0 second 12 1 320 4 4.74 0.179998159408569 0 0 -1 1 0.02670594 0.02348378 0.02042531 0.02030773 0.02014743 1000 0.02670594 0.02348378 0.02042531 0.02030773 0.02014743 1000 0.01797274 0.0182491 0.01878773 0.01909221 0.01922659 1000 0.01797274 0.0182491 0.01878773 0.01909221 0.01922659 1000
lala 19 0.3 1 second 8 1 321 5 4.05 0.01999831199646 1 0 1 1 0.0168898 0.01734409 0.01770013 0.0173863 0.0161558 1000 0.0168898 0.01734409 0.01770013 0.0173863 0.0161558 1000 -0.001886478 -0.002550115 -0.003737884 -0.003710361 -0.002589387 1000 -0.001886478 -0.002550115 -0.003737884 -0.003710361 -0.002589387 1000
lala 17 0.3 0 first 10 1 322 6 3.51 0.259998083114624 1 0 -1 1 -0.02129833 -0.01884499 -0.01599041 1000 1000 1000 -0.02129833 -0.01884499 -0.01599041 1000 1000 1000 -0.01388145 -0.01468471 -0.01410406 -0.01235037 -0.01213258 1000 -0.01388145 -0.01468471 -0.01410406 -0.01235037 -0.01213258 1000
lala 20 0.0046875 0 first 6 1 323 4 3.657187 0.459997892379761 1 0 -1 0 -0.01148464 -0.01156983 -0.01136093 1000 1000 1000 -0.01148464 -0.01156983 -0.01136093 1000 1000 1000 -0.006313202 -0.005773621 -0.004719026 -0.003821393 -0.00376848 1000 -0.006313202 -0.005773621 -0.004719026 -0.003821393 -0.00376848 1000
lala 14 0.15 0 first 14 1 324 5 3.45 0.01999831199646 0 0 -1 1 -0.00637844 -0.00585091 -0.005991046 1000 1000 1000 -0.00637844 -0.00585091 -0.005991046 1000 1000 1000 -0.007277028 -0.005829653 -0.004745461 -0.002736048 -0.003240018 1000 -0.007277028 -0.005829653 -0.004745461 -0.002736048 -0.003240018 1000
lala 13 0.075 0 second 11 1 325 6 2.805001 0.119998216629028 1 1 -1 1 -0.004827485 -0.008283226 -0.006666194 -0.003582468 -0.002970624 1000 -0.004827485 -0.008283226 -0.006666194 -0.003582468 -0.002970624 1000 0.001852049 -0.0006483085 -0.001074556 -0.001780448 -0.0002188155 1000 0.001852049 -0.0006483085 -0.001074556 -0.001780448 -0.0002188155 1000
