subject PestNr Step_Size_OnTrial Pest_Faster Pest_Interval Condition block trial velH velH_Pest Reaction_Time velH_Subject Start_Above Response_MotionEstimation RightOrLeftxRotations_first0 xRotations_first1 xRotations_first2 xRotations_first3 xRotations_first4 xRotations_first5 yRotations_first0 yRotations_first1 yRotations_first2 yRotations_first3 yRotations_first4 yRotations_first5 xRotations_second0 xRotations_second1 xRotations_second2 xRotations_second3 xRotations_second4 xRotations_second5 yRotations_second0 yRotations_second1 yRotations_second2 yRotations_second3 yRotations_second4 yRotations_second5
lala 1 1.2 0 second 14 1 1 5 3.3 0.439997911453247 0 0 -1 1 -0.02477061 -0.02684178 -0.03263158 -0.03059892 -0.02898774 1000 -0.02477061 -0.02684178 -0.03263158 -0.03059892 -0.02898774 1000 -0.02363694 -0.02311261 -0.02355215 -0.02325787 -0.0226677 1000 -0.02363694 -0.02311261 -0.02355215 -0.02325787 -0.0226677 1000
lala 1 1.2 1 first 6 1 2 4 2.64 0.779997587203979 1 0 1 0 -0.008661442 -0.006837709 -0.007461196 1000 1000 1000 -0.008661442 -0.006837709 -0.007461196 1000 1000 1000 -0.01308777 -0.01388859 -0.0140635 -0.01416936 -0.01408522 1000 -0.01308777 -0.01388859 -0.0140635 -0.01416936 -0.01408522 1000
lala 1 1.2 1 second 10 1 3 6 3.96 0.739997625350952 1 0 1 1 -0.01294906 -0.01261463 -0.01238784 -0.01212502 -0.01125488 1000 -0.01294906 -0.01261463 -0.01238784 -0.01212502 -0.01125488 1000 -0.01226146 -0.011943 -0.01189939 -0.01136743 -0.01091766 1000 -0.01226146 -0.011943 -0.01189939 -0.01136743 -0.01091766 1000
lala 1 1.2 0 first 5 1 4 6 7.98 0.39999794960022 -1 1 -1 1 -0.01406819 -0.01374959 -0.01323297 1000 1000 1000 -0.01406819 -0.01374959 -0.01323297 1000 1000 1000 -0.01336444 -0.0132839 -0.01325857 -0.01288635 -0.01251539 1000 -0.01336444 -0.0132839 -0.01325857 -0.01288635 -0.01251539 1000
lala 1 1.2 1 second 15 1 5 5 6.65 0.279998064041138 0 1 1 1 -0.0117465 -0.01157114 -0.01155515 -0.0115383 -0.0117132 1000 -0.0117465 -0.01157114 -0.01155515 -0.0115383 -0.0117132 1000 -0.01154626 -0.0117224 -0.01160461 -0.01211347 -0.01279938 1000 -0.01154626 -0.0117224 -0.01160461 -0.01211347 -0.01279938 1000
lala 2 1.2 1 second 5 1 6 6 9.18 0.279998064041138 -1 1 1 1 -0.02825004 -0.02416786 -0.02215203 -0.01731301 -0.007967781 1000 -0.02825004 -0.02416786 -0.02215203 -0.01731301 -0.007967781 1000 -0.02942226 -0.0270576 -0.02810695 -0.0263091 -0.02462993 1000 -0.02942226 -0.0270576 -0.02810695 -0.0263091 -0.02462993 1000
lala 1 1.2 1 first 9 1 7 5 6.65 0.679997682571411 1 1 1 1 -0.01795935 -0.01604713 -0.01722772 1000 1000 1000 -0.01795935 -0.01604713 -0.01722772 1000 1000 1000 -0.01823225 -0.01789422 -0.01756516 -0.01714857 -0.01702325 1000 -0.01823225 -0.01789422 -0.01756516 -0.01714857 -0.01702325 1000
lala 2 1.2 0 first 14 1 8 5 4.5 0.519997835159302 0 0 -1 1 -0.01573067 -0.01488811 -0.01420711 1000 1000 1000 -0.01573067 -0.01488811 -0.01420711 1000 1000 1000 -0.01316299 -0.01325809 -0.01352966 -0.01335721 -0.01356408 1000 -0.01316299 -0.01325809 -0.01352966 -0.01335721 -0.01356408 1000
lala 1 1.2 0 second 8 1 9 5 3.3 0.479997873306274 1 0 -1 0 -0.01168117 -0.01139172 -0.01138922 -0.01092416 -0.01089753 1000 -0.01168117 -0.01139172 -0.01138922 -0.01092416 -0.01089753 1000 -0.01141662 -0.01147541 -0.0117074 -0.01180983 -0.01185907 1000 -0.01141662 -0.01147541 -0.0117074 -0.01180983 -0.01185907 1000
lala 2 1.2 1 second 9 1 10 5 5.45 0.259998083114624 1 1 1 0 -0.01138094 -0.01106806 -0.01103169 -0.01084285 -0.0107006 1000 -0.01138094 -0.01106806 -0.01103169 -0.01084285 -0.0107006 1000 -0.009738587 -0.00983651 -0.01025202 -0.01047275 -0.01098286 1000 -0.009738587 -0.00983651 -0.01025202 -0.01047275 -0.01098286 1000
lala 1 1.2 1 second 1 1 11 4 5.32 0.919997453689575 -1 1 1 1 -0.009216906 -0.0091574 -0.008747975 -0.008482709 -0.008364803 1000 -0.009216906 -0.0091574 -0.008747975 -0.008482709 -0.008364803 1000 -0.009421208 -0.009580352 -0.009774187 -0.01015958 -0.01016976 1000 -0.009421208 -0.009580352 -0.009774187 -0.01015958 -0.01016976 1000
lala 1 1.2 0 second 2 1 12 5 3.3 0.279998064041138 -1 0 -1 0 -0.008630052 -0.008737147 -0.008484405 -0.007672356 -0.007362925 1000 -0.008630052 -0.008737147 -0.008484405 -0.007672356 -0.007362925 1000 -0.008787314 -0.008503135 -0.008384136 -0.008306368 -0.008005137 1000 -0.008787314 -0.008503135 -0.008384136 -0.008306368 -0.008005137 1000
lala 1 1.2 0 second 16 1 13 6 3.96 0.539997816085815 0 0 -1 1 -0.007063768 -0.006958741 -0.006696987 -0.006259829 -0.00664636 1000 -0.007063768 -0.006958741 -0.006696987 -0.006259829 -0.00664636 1000 -0.006975334 -0.006762464 -0.005822034 -0.005596476 -0.005641704 1000 -0.006975334 -0.006762464 -0.005822034 -0.005596476 -0.005641704 1000
lala 1 1.2 1 first 17 1 14 6 7.98 0.519997835159302 0 1 1 1 -0.005874316 -0.006357609 -0.006008116 1000 1000 1000 -0.005874316 -0.006357609 -0.006008116 1000 1000 1000 -0.004927557 -0.005144514 -0.004989099 -0.005140045 -0.005376574 1000 -0.004927557 -0.005144514 -0.004989099 -0.005140045 -0.005376574 1000
lala 3 1.2 0 first 5 1 15 6 7.98 0.559997797012329 -1 1 -1 0 -0.004808824 -0.004497064 -0.004085306 1000 1000 1000 -0.004808824 -0.004497064 -0.004085306 1000 1000 1000 -0.004722894 -0.004384492 -0.004450321 -0.003965059 -0.003633327 1000 -0.004722894 -0.004384492 -0.004450321 -0.003965059 -0.003633327 1000
lala 2 1.2 0 first 1 1 16 4 4.12 0.759997606277466 -1 1 -1 1 -0.004847262 -0.004742292 -0.004910472 1000 1000 1000 -0.004847262 -0.004742292 -0.004910472 1000 1000 1000 -0.003609228 -0.003868824 -0.003826259 -0.003258812 -0.003214282 1000 -0.003609228 -0.003868824 -0.003826259 -0.003258812 -0.003214282 1000
lala 3 1.2 0 first 1 1 17 4 5.32 0.459997892379761 -1 1 -1 1 -0.004700624 -0.005552976 -0.005939589 1000 1000 1000 -0.004700624 -0.005552976 -0.005939589 1000 1000 1000 -0.004639557 -0.004783134 -0.004857524 -0.004464775 -0.004540904 1000 -0.004639557 -0.004783134 -0.004857524 -0.004464775 -0.004540904 1000
lala 3 1.2 1 first 14 1 18 5 5.7 0.519997835159302 0 0 1 0 -0.005320538 -0.005671803 -0.00563416 1000 1000 1000 -0.005320538 -0.005671803 -0.00563416 1000 1000 1000 -0.004297619 -0.004034212 -0.003708277 -0.003379036 -0.003257259 1000 -0.004297619 -0.004034212 -0.003708277 -0.003379036 -0.003257259 1000
lala 1 1.2 1 first 7 1 19 4 5.32 0.759997606277466 1 1 1 1 -0.003558524 -0.003169212 -0.003100179 1000 1000 1000 -0.003558524 -0.003169212 -0.003100179 1000 1000 1000 -0.001562827 -0.001020991 -0.0005560888 -0.0005753761 -0.000904821 1000 -0.001562827 -0.001020991 -0.0005560888 -0.0005753761 -0.000904821 1000
lala 4 1.2 1 second 1 1 20 4 6.52 0.739997625350952 -1 1 1 0 -0.001399321 -0.001090352 -0.001018027 -0.0007235059 -0.0007937967 1000 -0.001399321 -0.001090352 -0.001018027 -0.0007235059 -0.0007937967 1000 -0.002214168 -0.002046468 -0.001504375 -0.001291798 -0.001201133 1000 -0.002214168 -0.002046468 -0.001504375 -0.001291798 -0.001201133 1000
lala 1 1.2 0 second 12 1 21 4 2.64 0.519997835159302 0 0 -1 0 -0.0006473459 -0.0009451181 -0.001527848 -0.00200841 -0.002129328 1000 -0.0006473459 -0.0009451181 -0.001527848 -0.00200841 -0.002129328 1000 -0.001102161 -0.0008536683 3.846561E-05 0.0002766302 0.0001689548 1000 -0.001102161 -0.0008536683 3.846561E-05 0.0002766302 0.0001689548 1000
lala 2 1.2 1 first 15 1 22 5 5.45 1.11999726295471 0 1 1 0 -0.0002754441 -0.0001245164 -0.0006644964 1000 1000 1000 -0.0002754441 -0.0001245164 -0.0006644964 1000 1000 1000 0.0001922459 0.0004446134 0.0004165901 0.0005764515 0.001142836 1000 0.0001922459 0.0004446134 0.0004165901 0.0005764515 0.001142836 1000
lala 2 1.2 0 second 6 1 23 4 1.44 1.17999720573425 1 0 -1 1 -0.0009901865 -0.0004610177 8.030234E-05 0.0005513333 0.001355757 1000 -0.0009901865 -0.0004610177 8.030234E-05 0.0005513333 0.001355757 1000 0.001363667 0.001370091 0.001187916 0.001223024 0.001010444 1000 0.001363667 0.001370091 0.001187916 0.001223024 0.001010444 1000
lala 2 1.2 1 first 16 1 24 6 5.16 1.61999702453613 0 0 1 1 0.0005046149 0.0003228799 6.33308E-05 1000 1000 1000 0.0005046149 0.0003228799 6.33308E-05 1000 1000 1000 -0.0002940019 -0.0004357718 -0.0003604256 -9.613033E-05 0.0004571379 1000 -0.0002940019 -0.0004357718 -0.0003604256 -9.613033E-05 0.0004571379 1000
lala 1 1.2 0 second 4 1 25 6 3.96 0.579997777938843 -1 0 -1 0 -0.0008659025 -0.0005726721 -0.0007530548 -0.001154911 -0.001597372 1000 -0.0008659025 -0.0005726721 -0.0007530548 -0.001154911 -0.001597372 1000 -0.001433702 -0.00146331 -0.001508469 -0.001251781 -0.001137382 1000 -0.001433702 -0.00146331 -0.001508469 -0.001251781 -0.001137382 1000
lala 1 1.2 1 first 13 1 26 4 5.32 0.519997835159302 0 1 1 0 -0.001692211 -0.001447448 -0.001369842 1000 1000 1000 -0.001692211 -0.001447448 -0.001369842 1000 1000 1000 -0.0009157699 -0.0009435932 -0.001478524 -0.001705369 -0.002288322 1000 -0.0009157699 -0.0009435932 -0.001478524 -0.001705369 -0.002288322 1000
lala 1 1.2 1 second 11 1 27 6 7.98 0.499997854232788 1 1 1 1 -0.0009489331 0.000832286 -1.797258E-05 0.0007850333 -0.0004082741 1000 -0.0009489331 0.000832286 -1.797258E-05 0.0007850333 -0.0004082741 1000 -0.02246135 -0.01612046 -0.01366375 -0.01781177 -0.01859552 1000 -0.02246135 -0.01612046 -0.01366375 -0.01781177 -0.01859552 1000
lala 2 1.2 0 second 12 1 28 4 3.84 0.939997434616089 0 0 -1 1 0.0006999125 -0.01111511 -0.01406466 -0.0147656 -0.01452411 1000 0.0006999125 -0.01111511 -0.01406466 -0.0147656 -0.01452411 1000 -0.03404414 -0.0391205 -0.04054327 -0.04021794 -0.04428499 1000 -0.03404414 -0.0391205 -0.04054327 -0.04021794 -0.04428499 1000
lala 2 1.2 1 second 7 1 29 4 4.12 0.679997682571411 1 1 1 1 -0.006658697 -0.007223029 -0.007453109 -0.007663551 -0.007409278 1000 -0.006658697 -0.007223029 -0.007453109 -0.007663551 -0.007409278 1000 -0.006954105 -0.007524739 -0.008081044 -0.008040536 -0.008150496 1000 -0.006954105 -0.007524739 -0.008081044 -0.008040536 -0.008150496 1000
lala 2 1.2 1 first 8 1 30 5 4.5 0.559997797012329 1 0 1 0 -0.01127849 -0.01122164 -0.0115316 1000 1000 1000 -0.01127849 -0.01122164 -0.0115316 1000 1000 1000 -0.01480799 -0.01534548 -0.01553682 -0.01502559 -0.01482715 1000 -0.01480799 -0.01534548 -0.01553682 -0.01502559 -0.01482715 1000
lala 3 1.2 0 first 7 1 31 4 2.92 0.479997873306274 1 1 -1 1 -0.01564532 -0.01611514 -0.01704786 1000 1000 1000 -0.01564532 -0.01611514 -0.01704786 1000 1000 1000 -0.0153878 -0.01552974 -0.01589665 -0.01618433 -0.01610878 1000 -0.0153878 -0.01552974 -0.01589665 -0.01618433 -0.01610878 1000
lala 1 1.2 0 second 3 1 32 5 6.65 2.39999628067017 -1 1 -1 0 -0.0173372 -0.01657561 -0.016183 -0.01526191 -0.01520502 1000 -0.0173372 -0.01657561 -0.016183 -0.01526191 -0.01520502 1000 -0.0150789 -0.01552923 -0.01593458 -0.01533256 -0.01527691 1000 -0.0150789 -0.01552923 -0.01593458 -0.01533256 -0.01527691 1000
lala 4 1.2 1 first 7 1 33 4 4.12 1.67999696731567 1 1 1 1 -0.01463765 -0.01484637 -0.01480983 1000 1000 1000 -0.01463765 -0.01484637 -0.01480983 1000 1000 1000 -0.01320955 -0.01316325 -0.01241968 -0.01158484 -0.01170773 1000 -0.01320955 -0.01316325 -0.01241968 -0.01158484 -0.01170773 1000
lala 2 1.2 1 first 3 1 34 5 7.85 1.05999732017517 -1 1 1 0 -0.01266573 -0.01267294 -0.01237657 1000 1000 1000 -0.01266573 -0.01267294 -0.01237657 1000 1000 1000 -0.01137972 -0.01177177 -0.01155353 -0.01121312 -0.01144677 1000 -0.01137972 -0.01177177 -0.01155353 -0.01121312 -0.01144677 1000
lala 3 1.2 0 second 6 1 35 4 2.64 0.819997549057007 1 0 -1 1 -0.01008711 -0.01067204 -0.01112027 -0.01107322 -0.01118739 1000 -0.01008711 -0.01067204 -0.01112027 -0.01107322 -0.01118739 1000 -0.01097376 -0.01108425 -0.01002096 -0.009637036 -0.00983542 1000 -0.01097376 -0.01108425 -0.01002096 -0.009637036 -0.00983542 1000
lala 2 1.2 1 second 2 1 36 5 4.5 0.61999773979187 -1 0 1 1 -0.01049814 -0.01134834 -0.01102225 -0.01067551 -0.01082356 1000 -0.01049814 -0.01134834 -0.01102225 -0.01067551 -0.01082356 1000 -0.01009936 -0.0101212 -0.009476199 -0.009292962 -0.009725978 1000 -0.01009936 -0.0101212 -0.009476199 -0.009292962 -0.009725978 1000
lala 5 1.2 0 second 7 1 37 4 2.92 0.779997587203979 1 1 -1 0 -0.01120139 -0.01073707 -0.01064903 -0.010456 -0.01012272 1000 -0.01120139 -0.01073707 -0.01064903 -0.010456 -0.01012272 1000 -0.008906449 -0.009109789 -0.009765261 -0.008883207 -0.008435019 1000 -0.008906449 -0.009109789 -0.009765261 -0.008883207 -0.008435019 1000
lala 4 1.2 1 first 6 1 38 4 3.84 0.699997663497925 1 0 1 1 -0.008938145 -0.009564998 -0.009343846 1000 1000 1000 -0.008938145 -0.009564998 -0.009343846 1000 1000 1000 -0.008535421 -0.009508222 -0.009910034 -0.009425106 -0.009367534 1000 -0.008535421 -0.009508222 -0.009910034 -0.009425106 -0.009367534 1000
lala 3 1.2 0 first 2 1 39 5 3.3 0.539997816085815 -1 0 -1 1 -0.009250056 -0.009210043 -0.009036549 1000 1000 1000 -0.009250056 -0.009210043 -0.009036549 1000 1000 1000 -0.01273019 -0.01324495 -0.01260152 -0.01150322 -0.01069308 1000 -0.01273019 -0.01324495 -0.01260152 -0.01150322 -0.01069308 1000
lala 4 1.2 1 first 5 1 40 6 9.18 0.419997930526733 -1 1 1 1 -0.0114701 -0.01183023 -0.01223746 1000 1000 1000 -0.0114701 -0.01183023 -0.01223746 1000 1000 1000 -0.01062852 -0.01075571 -0.01025206 -0.009913024 -0.01012927 1000 -0.01062852 -0.01075571 -0.01025206 -0.009913024 -0.01012927 1000
lala 5 1.2 0 first 6 1 41 4 2.64 0.39999794960022 1 0 -1 1 -0.0103552 -0.01042628 -0.01033904 1000 1000 1000 -0.0103552 -0.01042628 -0.01033904 1000 1000 1000 -0.008019467 -0.008513645 -0.008717908 -0.008257465 -0.008269913 1000 -0.008019467 -0.008513645 -0.008717908 -0.008257465 -0.008269913 1000
lala 3 1.2 0 first 12 1 42 4 5.04 1.31999707221985 0 0 -1 0 -0.008311196 -0.008620891 -0.00895451 1000 1000 1000 -0.008311196 -0.008620891 -0.00895451 1000 1000 1000 -0.01221228 -0.01210959 -0.01153695 -0.01135558 -0.01092918 1000 -0.01221228 -0.01210959 -0.01153695 -0.01135558 -0.01092918 1000
lala 4 1.2 1 first 14 1 43 5 4.5 0.779997587203979 0 0 1 1 -0.01102427 -0.01050721 -0.01007036 1000 1000 1000 -0.01102427 -0.01050721 -0.01007036 1000 1000 1000 -0.03603283 -0.03363616 -0.02646137 -0.0162153 -0.009383108 1000 -0.03603283 -0.03363616 -0.02646137 -0.0162153 -0.009383108 1000
lala 2 1.2 0 first 17 1 44 6 6.780001 0.599997758865356 0 1 -1 0 -0.01215807 -0.01300417 -0.01340422 1000 1000 1000 -0.01215807 -0.01300417 -0.01340422 1000 1000 1000 -0.01243044 -0.0125637 -0.01259213 -0.01291896 -0.01388946 1000 -0.01243044 -0.0125637 -0.01259213 -0.01291896 -0.01388946 1000
lala 2 1.2 1 second 13 1 45 4 4.12 2.23999643325806 0 1 1 0 -0.01607718 -0.01551874 -0.0152326 -0.01574352 -0.01657147 1000 -0.01607718 -0.01551874 -0.0152326 -0.01574352 -0.01657147 1000 -0.02156775 -0.02120883 -0.02082754 -0.0208212 -0.02008568 1000 -0.02156775 -0.02120883 -0.02082754 -0.0208212 -0.02008568 1000
lala 6 1.2 0 first 7 1 46 4 4.12 0.539997816085815 1 1 -1 0 -0.01031514 -0.01047297 -0.009859951 1000 1000 1000 -0.01031514 -0.01047297 -0.009859951 1000 1000 1000 -0.00853768 -0.008968857 -0.009752464 -0.009733547 -0.009587064 1000 -0.00853768 -0.008968857 -0.009752464 -0.009733547 -0.009587064 1000
lala 4 1.2 1 second 12 1 47 4 6.24 0.379997968673706 0 0 1 1 -0.01001163 -0.009528168 -0.00915527 -0.009359026 -0.009330728 1000 -0.01001163 -0.009528168 -0.00915527 -0.009359026 -0.009330728 1000 -0.01147462 -0.01093324 -0.01070521 -0.01063877 -0.01068236 1000 -0.01147462 -0.01093324 -0.01070521 -0.01063877 -0.01068236 1000
lala 7 1.2 0 second 7 1 48 4 5.32 1.7199969291687 1 1 -1 1 -0.009822084 -0.01047549 -0.01105063 -0.01122856 -0.01080308 1000 -0.009822084 -0.01047549 -0.01105063 -0.01122856 -0.01080308 1000 -0.01042356 -0.01113934 -0.01088896 -0.0100715 -0.01010531 1000 -0.01042356 -0.01113934 -0.01088896 -0.0100715 -0.01010531 1000
lala 2 1.2 1 second 11 1 49 6 6.780001 0.459997892379761 1 1 1 0 -0.02254748 -0.02129531 -0.01988676 -0.01926697 -0.01780648 1000 -0.02254748 -0.02129531 -0.01988676 -0.01926697 -0.01780648 1000 -0.03514382 -0.03564871 -0.03225238 -0.02995362 -0.02638039 1000 -0.03514382 -0.03564871 -0.03225238 -0.02995362 -0.02638039 1000
lala 5 1.2 0 second 1 1 50 4 5.32 0.199998140335083 -1 1 -1 0 -0.03116331 -0.03379684 -0.03458882 -0.03393129 -0.0333929 1000 -0.03116331 -0.03379684 -0.03458882 -0.03393129 -0.0333929 1000 -0.03313872 -0.03344534 -0.03348522 -0.03306979 -0.03275285 1000 -0.03313872 -0.03344534 -0.03348522 -0.03306979 -0.03275285 1000
lala 3 1.2 0 first 8 1 51 5 3.3 0.719997644424438 1 0 -1 0 -0.01866039 -0.01019723 -0.009899884 1000 1000 1000 -0.01866039 -0.01019723 -0.009899884 1000 1000 1000 -0.01188346 -0.01189298 -0.01194433 -0.01193939 -0.01189262 1000 -0.01188346 -0.01189298 -0.01194433 -0.01193939 -0.01189262 1000
lala 5 1.2 1 second 5 1 52 6 7.98 0.319998025894165 -1 1 1 0 -0.01247502 -0.01255928 -0.01241341 -0.01191578 -0.01217866 1000 -0.01247502 -0.01255928 -0.01241341 -0.01191578 -0.01217866 1000 -0.01317787 -0.01375521 -0.0135184 -0.01310667 -0.0134557 1000 -0.01317787 -0.01375521 -0.0135184 -0.01310667 -0.0134557 1000
lala 2 1.2 1 second 10 1 53 6 2.76 0.419997930526733 1 0 1 1 -0.0140194 -0.01448715 -0.01459074 -0.01427658 -0.01409405 1000 -0.0140194 -0.01448715 -0.01459074 -0.01427658 -0.01409405 1000 -0.01437415 -0.0141472 -0.01405861 -0.01438528 -0.01475277 1000 -0.01437415 -0.0141472 -0.01405861 -0.01438528 -0.01475277 1000
lala 3 1.2 1 second 17 1 54 6 7.98 0.539997816085815 0 1 1 0 -0.01840468 -0.01435069 -0.009055559 -0.00288789 0.004865408 1000 -0.01840468 -0.01435069 -0.009055559 -0.00288789 0.004865408 1000 0.01626011 0.01347807 0.01128532 0.009813124 0.00914012 1000 0.01626011 0.01347807 0.01128532 0.009813124 0.00914012 1000
lala 4 1.2 0 second 2 1 55 5 4.5 0.299998044967651 -1 0 -1 1 -0.01925755 -0.02079452 -0.02122485 -0.01847178 -0.01707234 1000 -0.01925755 -0.02079452 -0.02122485 -0.01847178 -0.01707234 1000 -0.01638508 -0.01717106 -0.01757865 -0.01656763 -0.01644254 1000 -0.01638508 -0.01717106 -0.01757865 -0.01656763 -0.01644254 1000
lala 6 1.2 0 second 6 1 56 4 3.84 0.939997434616089 1 0 -1 0 -0.01482784 -0.01380099 -0.01344684 -0.01307987 -0.01361165 1000 -0.01482784 -0.01380099 -0.01344684 -0.01307987 -0.01361165 1000 -0.01317662 -0.01311336 -0.01255261 -0.01255043 -0.01290439 1000 -0.01317662 -0.01311336 -0.01255261 -0.01255043 -0.01290439 1000
lala 3 1.2 1 second 11 1 57 6 5.580001 0.279998064041138 1 1 1 0 -0.01415118 -0.01464311 -0.01374226 -0.01260451 -0.01201306 1000 -0.01415118 -0.01464311 -0.01374226 -0.01260451 -0.01201306 1000 -0.01201301 -0.01215161 -0.01197343 -0.01177675 -0.01238259 1000 -0.01201301 -0.01215161 -0.01197343 -0.01177675 -0.01238259 1000
lala 2 1.2 0 first 4 1 58 6 5.16 0.479997873306274 -1 0 -1 1 -0.01272851 -0.01306478 -0.01286109 1000 1000 1000 -0.01272851 -0.01306478 -0.01286109 1000 1000 1000 -0.0124431 -0.01287274 -0.01242017 -0.01210227 -0.01183635 1000 -0.0124431 -0.01287274 -0.01242017 -0.01210227 -0.01183635 1000
lala 7 1.2 1 first 6 1 59 4 5.04 0.439997911453247 1 0 1 0 -0.01170834 -0.01124236 -0.01207495 1000 1000 1000 -0.01170834 -0.01124236 -0.01207495 1000 1000 1000 -0.01345993 -0.01366302 -0.01358678 -0.01429532 -0.01454496 1000 -0.01345993 -0.01366302 -0.01358678 -0.01429532 -0.01454496 1000
lala 3 1.2 0 first 3 1 60 5 6.650001 0.659997701644897 -1 1 -1 1 -0.01303991 -0.01297719 -0.01230374 1000 1000 1000 -0.01303991 -0.01297719 -0.01230374 1000 1000 1000 -0.01165701 -0.01151286 -0.01164021 -0.01171507 -0.01168378 1000 -0.01165701 -0.01151286 -0.01164021 -0.01171507 -0.01168378 1000
lala 4 1.2 1 second 17 1 61 6 6.780001 0.279998064041138 0 1 1 0 -0.01145856 -0.01111494 -0.01228658 -0.01289754 -0.01216408 1000 -0.01145856 -0.01111494 -0.01228658 -0.01289754 -0.01216408 1000 -0.01055147 -0.01040097 -0.01067477 -0.01065587 -0.01051062 1000 -0.01055147 -0.01040097 -0.01067477 -0.01065587 -0.01051062 1000
lala 5 1.2 0 first 2 1 62 5 5.7 0.299998044967651 -1 0 -1 0 -0.01070879 -0.01010783 -0.01006948 1000 1000 1000 -0.01070879 -0.01010783 -0.01006948 1000 1000 1000 -0.01104689 -0.01084519 -0.01091958 -0.01038743 -0.009542528 1000 -0.01104689 -0.01084519 -0.01091958 -0.01038743 -0.009542528 1000
lala 3 1.2 1 first 15 1 63 5 4.25 0.219998121261597 0 1 1 1 -0.009853559 -0.008591682 -0.00911565 1000 1000 1000 -0.009853559 -0.008591682 -0.00911565 1000 1000 1000 -0.01161255 -0.01067846 -0.01083428 -0.01117335 -0.01147418 1000 -0.01161255 -0.01067846 -0.01083428 -0.01117335 -0.01147418 1000
lala 6 1.2 0 first 1 1 64 4 6.52 0.39999794960022 -1 1 -1 1 -0.01192102 -0.01231167 -0.01218004 1000 1000 1000 -0.01192102 -0.01231167 -0.01218004 1000 1000 1000 -0.01236954 -0.01273835 -0.01255007 -0.01203587 -0.01166116 1000 -0.01236954 -0.01273835 -0.01255007 -0.01203587 -0.01166116 1000
lala 3 1.2 0 second 4 1 65 6 6.36 0.499997854232788 -1 0 -1 0 -0.0123916 -0.01294952 -0.01316176 -0.01297188 -0.01273765 1000 -0.0123916 -0.01294952 -0.01316176 -0.01297188 -0.01273765 1000 -0.01024193 -0.01074767 -0.01123092 -0.01079105 -0.0102149 1000 -0.01024193 -0.01074767 -0.01123092 -0.01079105 -0.0102149 1000
lala 4 1.2 0 first 3 1 66 5 7.85 0.599997758865356 -1 1 -1 0 -0.01075935 -0.01104165 -0.01136129 1000 1000 1000 -0.01075935 -0.01104165 -0.01136129 1000 1000 1000 -0.01070562 -0.01082978 -0.01082231 -0.01033266 -0.01041229 1000 -0.01070562 -0.01082978 -0.01082231 -0.01033266 -0.01041229 1000
lala 5 1.2 1 first 12 1 67 4 5.04 0.579997777938843 0 0 1 1 -0.01058492 -0.01112928 -0.01142274 1000 1000 1000 -0.01058492 -0.01112928 -0.01142274 1000 1000 1000 -0.01032122 -0.01026157 -0.01031539 -0.009895528 -0.009289442 1000 -0.01032122 -0.01026157 -0.01031539 -0.009895528 -0.009289442 1000
lala 3 1.2 0 second 13 1 68 4 2.92 0.539997816085815 0 1 -1 1 -0.0113672 -0.01141746 -0.01159548 -0.01175292 -0.01133333 1000 -0.0113672 -0.01141746 -0.01159548 -0.01175292 -0.01133333 1000 -0.01052733 -0.01068353 -0.01124679 -0.01139291 -0.01102553 1000 -0.01052733 -0.01068353 -0.01124679 -0.01139291 -0.01102553 1000
lala 5 1.2 0 first 3 1 69 5 9.05 0.779997587203979 -1 1 -1 1 -0.01206954 -0.01215755 -0.01288768 1000 1000 1000 -0.01206954 -0.01215755 -0.01288768 1000 1000 1000 -0.01139533 -0.010233 -0.01029328 -0.01039353 -0.01039101 1000 -0.01139533 -0.010233 -0.01029328 -0.01039353 -0.01039101 1000
lala 5 1.2 0 first 17 1 70 6 5.580001 1.0999972820282 0 1 -1 0 -0.01037849 -0.01076815 -0.01116367 1000 1000 1000 -0.01037849 -0.01076815 -0.01116367 1000 1000 1000 -0.01179468 -0.01202626 -0.01231448 -0.01218625 -0.01163872 1000 -0.01179468 -0.01202626 -0.01231448 -0.01218625 -0.01163872 1000
lala 5 1.2 0 second 14 1 71 5 3.3 0.679997682571411 0 0 -1 1 -0.01270766 -0.01193058 -0.01167009 -0.01194722 -0.01189161 1000 -0.01270766 -0.01193058 -0.01167009 -0.01194722 -0.01189161 1000 -0.01217242 -0.01218845 -0.01227511 -0.01286241 -0.01306135 1000 -0.01217242 -0.01218845 -0.01227511 -0.01286241 -0.01306135 1000
lala 6 1.2 0 first 3 1 72 5 10.25 0.539997816085815 -1 1 -1 1 -0.01329553 -0.01297597 -0.01270232 1000 1000 1000 -0.01329553 -0.01297597 -0.01270232 1000 1000 1000 -0.01253173 -0.01277775 -0.012389 -0.01166185 -0.01164509 1000 -0.01253173 -0.01277775 -0.012389 -0.01166185 -0.01164509 1000
lala 7 1.2 1 second 1 1 73 4 7.719999 0.299998044967651 -1 1 1 0 -0.01166868 -0.01172717 -0.01161521 -0.01197832 -0.01182262 1000 -0.01166868 -0.01172717 -0.01161521 -0.01197832 -0.01182262 1000 -0.01212768 -0.01137355 -0.01104272 -0.01113347 -0.01138765 1000 -0.01212768 -0.01137355 -0.01104272 -0.01113347 -0.01138765 1000
lala 1 1.2 0 first 0 1 74 4 2.64 0.23999810218811 -1 0 -1 0 -0.011775 -0.01151831 -0.01120037 1000 1000 1000 -0.011775 -0.01151831 -0.01120037 1000 1000 1000 -0.01250983 -0.01227563 -0.01200019 -0.01201788 -0.01205747 1000 -0.01250983 -0.01227563 -0.01200019 -0.01201788 -0.01205747 1000
lala 3 1.2 0 first 9 1 75 5 4.25 1.21999716758728 1 1 -1 0 -0.01153694 -0.01193266 -0.01085769 1000 1000 1000 -0.01153694 -0.01193266 -0.01085769 1000 1000 1000 -0.01192308 -0.0120699 -0.0120871 -0.01157346 -0.01184967 1000 -0.01192308 -0.0120699 -0.0120871 -0.01157346 -0.01184967 1000
lala 4 1.2 0 first 13 1 76 4 4.12 0.939997434616089 0 1 -1 1 -0.01257048 -0.01249814 -0.01198531 1000 1000 1000 -0.01257048 -0.01249814 -0.01198531 1000 1000 1000 -0.009957674 -0.009910226 -0.01016574 -0.01089013 -0.01124012 1000 -0.009957674 -0.009910226 -0.01016574 -0.01089013 -0.01124012 1000
lala 4 1.2 0 second 11 1 77 6 4.380001 1.13999724388123 1 1 -1 0 -0.01362565 -0.01411117 -0.01443931 -0.0136298 -0.01346313 1000 -0.01362565 -0.01411117 -0.01443931 -0.0136298 -0.01346313 1000 -0.01346168 -0.01395759 -0.01409635 -0.01380243 -0.01314753 1000 -0.01346168 -0.01395759 -0.01409635 -0.01380243 -0.01314753 1000
lala 6 1.2 1 second 5 1 78 6 6.780001 0.39999794960022 -1 1 1 1 -0.0358441 -0.04809196 -0.0472673 -0.04390519 -0.04398225 1000 -0.0358441 -0.04809196 -0.0472673 -0.04390519 -0.04398225 1000 -0.0407195 -0.04597953 -0.05144713 -0.05201487 -0.04879875 1000 -0.0407195 -0.04597953 -0.05144713 -0.05201487 -0.04879875 1000
lala 6 1.2 0 first 14 1 79 5 4.5 0.419997930526733 0 0 -1 1 -0.02167112 -0.01884356 -0.01773681 1000 1000 1000 -0.02167112 -0.01884356 -0.01773681 1000 1000 1000 -0.01366785 -0.0148505 -0.01531853 -0.01424801 -0.01389216 1000 -0.01366785 -0.0148505 -0.01531853 -0.01424801 -0.01389216 1000
lala 6 1.2 1 second 12 1 80 4 3.84 0.179998159408569 0 0 1 1 -0.01790471 -0.01755866 -0.01752952 -0.01779239 -0.01816433 1000 -0.01790471 -0.01755866 -0.01752952 -0.01779239 -0.01816433 1000 -0.01662101 -0.01655594 -0.01695961 -0.01744138 -0.01738221 1000 -0.01662101 -0.01655594 -0.01695961 -0.01744138 -0.01738221 1000
lala 7 1.2 0 second 5 1 81 6 5.580001 0.579997777938843 -1 1 -1 0 -0.01760346 -0.01782054 -0.01797473 -0.01810538 -0.01803714 1000 -0.01760346 -0.01782054 -0.01797473 -0.01810538 -0.01803714 1000 -0.01735754 -0.01668956 -0.01665507 -0.01707816 -0.01730478 1000 -0.01735754 -0.01668956 -0.01665507 -0.01707816 -0.01730478 1000
lala 7 1.2 1 second 3 1 82 5 11.45 0.199998140335083 -1 1 1 0 -0.01599606 -0.01616345 -0.01549255 -0.014936 -0.01542189 1000 -0.01599606 -0.01616345 -0.01549255 -0.014936 -0.01542189 1000 -0.01652757 -0.01584263 -0.01502833 -0.01517737 -0.01536693 1000 -0.01652757 -0.01584263 -0.01502833 -0.01517737 -0.01536693 1000
lala 7 1.2 1 second 14 1 83 5 5.7 0.219998121261597 0 0 1 0 -0.01513474 -0.01538413 -0.01387458 -0.0131377 -0.01350725 1000 -0.01513474 -0.01538413 -0.01387458 -0.0131377 -0.01350725 1000 -0.01471286 -0.01480404 -0.01414857 -0.01375212 -0.01404079 1000 -0.01471286 -0.01480404 -0.01414857 -0.01375212 -0.01404079 1000
lala 5 1.2 1 first 13 1 84 4 5.32 1.51999688148499 0 1 1 0 -0.01485209 -0.01505571 -0.01412345 1000 1000 1000 -0.01485209 -0.01505571 -0.01412345 1000 1000 1000 -0.01413591 -0.01385725 -0.0130667 -0.01280995 -0.01317731 1000 -0.01413591 -0.01385725 -0.0130667 -0.01280995 -0.01317731 1000
lala 7 1.2 0 second 12 1 85 4 2.64 0.279998064041138 0 0 -1 1 -0.0124191 -0.01276299 -0.01288908 -0.01283838 -0.01298229 1000 -0.0124191 -0.01276299 -0.01288908 -0.01283838 -0.01298229 1000 -0.01212046 -0.01192036 -0.01122079 -0.01130391 -0.01162909 1000 -0.01212046 -0.01192036 -0.01122079 -0.01130391 -0.01162909 1000
lala 8 1.2 1 first 7 1 86 4 6.52 0.179998159408569 1 1 1 0 -0.01158576 -0.01170729 -0.01157844 1000 1000 1000 -0.01158576 -0.01170729 -0.01157844 1000 1000 1000 -0.01090045 -0.01132389 -0.01151539 -0.011394 -0.01141447 1000 -0.01090045 -0.01132389 -0.01151539 -0.011394 -0.01141447 1000
lala 3 1.2 0 first 10 1 87 6 1.98 0.679997682571411 1 0 -1 0 -0.01011359 -0.01020367 -0.009530903 1000 1000 1000 -0.01011359 -0.01020367 -0.009530903 1000 1000 1000 -0.01224925 -0.01161868 -0.01074135 -0.009991982 -0.0101785 1000 -0.01224925 -0.01161868 -0.01074135 -0.009991982 -0.0101785 1000
lala 8 1.2 1 second 3 1 88 5 10.25 0.319998025894165 -1 1 1 0 -0.01043028 -0.01073013 -0.01103478 -0.01013329 -0.01078035 1000 -0.01043028 -0.01073013 -0.01103478 -0.01013329 -0.01078035 1000 -0.01064371 -0.01021164 -0.01018014 -0.01042318 -0.01094529 1000 -0.01064371 -0.01021164 -0.01018014 -0.01042318 -0.01094529 1000
lala 6 1.2 0 first 2 1 89 5 6.9 0.359997987747192 -1 0 -1 0 -0.01153421 -0.01178352 -0.01081986 1000 1000 1000 -0.01153421 -0.01178352 -0.01081986 1000 1000 1000 -0.01944518 -0.01840214 -0.01747795 -0.01786873 -0.01757593 1000 -0.01944518 -0.01840214 -0.01747795 -0.01786873 -0.01757593 1000
lala 9 1.2 1 second 3 1 90 5 9.05 0.859997510910034 -1 1 1 1 -0.02077779 -0.02077857 -0.02062894 -0.02020947 -0.01988831 1000 -0.02077779 -0.02077857 -0.02062894 -0.02020947 -0.01988831 1000 -0.01733341 -0.01719679 -0.01712329 -0.01719338 -0.01746716 1000 -0.01733341 -0.01719679 -0.01712329 -0.01719338 -0.01746716 1000
lala 4 1.2 0 second 8 1 91 5 4.5 0.899997472763062 1 0 -1 0 -0.01739553 -0.01791244 -0.0181869 -0.01741568 -0.01684845 1000 -0.01739553 -0.01791244 -0.0181869 -0.01741568 -0.01684845 1000 -0.01738194 -0.01770561 -0.01818883 -0.01860642 -0.01855547 1000 -0.01738194 -0.01770561 -0.01818883 -0.01860642 -0.01855547 1000
lala 3 1.2 0 first 16 1 92 6 3.96 0.459997892379761 0 0 -1 1 -0.01751671 -0.01749247 -0.01781683 1000 1000 1000 -0.01751671 -0.01749247 -0.01781683 1000 1000 1000 -0.017131 -0.01744453 -0.01811712 -0.0189375 -0.01811672 1000 -0.017131 -0.01744453 -0.01811712 -0.0189375 -0.01811672 1000
lala 4 1.2 1 first 9 1 93 5 5.45 0.379997968673706 1 1 1 0 -0.01838136 -0.01089264 -0.008750046 1000 1000 1000 -0.01838136 -0.01089264 -0.008750046 1000 1000 1000 -0.01522781 -0.01690414 -0.01823151 -0.01765364 -0.01616581 1000 -0.01522781 -0.01690414 -0.01823151 -0.01765364 -0.01616581 1000
lala 6 1.2 1 second 17 1 94 6 6.780001 0.39999794960022 0 1 1 0 -0.01910305 -0.02075095 -0.02041201 -0.01927152 -0.0173379 1000 -0.01910305 -0.02075095 -0.02041201 -0.01927152 -0.0173379 1000 -0.0196875 -0.02066429 -0.02177828 -0.02272109 -0.02246003 1000 -0.0196875 -0.02066429 -0.02177828 -0.02272109 -0.02246003 1000
lala 9 1.2 1 second 7 1 95 4 5.32 1.57999682426453 1 1 1 0 -0.02076323 -0.01750403 -0.0180956 -0.01799975 -0.01745263 1000 -0.02076323 -0.01750403 -0.0180956 -0.01799975 -0.01745263 1000 -0.01944007 -0.01925858 -0.01902588 -0.01874844 -0.01837504 1000 -0.01944007 -0.01925858 -0.01902588 -0.01874844 -0.01837504 1000
lala 4 1.2 0 first 16 1 96 6 5.16 0.39999794960022 0 0 -1 1 -0.02157626 -0.02129735 -0.02105041 1000 1000 1000 -0.02157626 -0.02129735 -0.02105041 1000 1000 1000 -0.01789728 -0.01900053 -0.01954152 -0.01973771 -0.01903185 1000 -0.01789728 -0.01900053 -0.01954152 -0.01973771 -0.01903185 1000
lala 5 1.2 1 second 16 1 97 6 6.36 0.499997854232788 0 0 1 1 -0.02133964 -0.02179353 -0.02266296 -0.02225537 -0.02012658 1000 -0.02133964 -0.02179353 -0.02266296 -0.02225537 -0.02012658 1000 -0.01592425 -0.01555763 -0.0139505 -0.01429751 -0.0173869 1000 -0.01592425 -0.01555763 -0.0139505 -0.01429751 -0.0173869 1000
lala 7 1.2 0 first 17 1 98 6 5.580001 0.539997816085815 0 1 -1 0 -0.02181741 -0.01797602 -0.01681477 1000 1000 1000 -0.02181741 -0.01797602 -0.01681477 1000 1000 1000 -0.03522375 -0.03389622 -0.03496647 -0.03375479 -0.03225106 1000 -0.03522375 -0.03389622 -0.03496647 -0.03375479 -0.03225106 1000
lala 7 1.2 1 second 2 1 99 5 8.099999 0.339998006820679 -1 0 1 1 -0.02485544 -0.02524612 -0.02582993 -0.02641074 -0.02644772 1000 -0.02485544 -0.02524612 -0.02582993 -0.02641074 -0.02644772 1000 -0.02515233 -0.0244213 -0.02356839 -0.0231065 -0.02336324 1000 -0.02515233 -0.0244213 -0.02356839 -0.0231065 -0.02336324 1000
lala 8 1.2 0 second 1 1 100 4 6.52 0.319998025894165 -1 1 -1 0 -0.0119908 -0.01231067 -0.01142138 -0.01089127 -0.01129493 1000 -0.0119908 -0.01231067 -0.01142138 -0.01089127 -0.01129493 1000 -0.01230799 -0.01185783 -0.0117054 -0.01153061 -0.0116259 1000 -0.01230799 -0.01185783 -0.0117054 -0.01153061 -0.0116259 1000
lala 2 1.2 0 second 0 1 101 4 3.84 0.0599982738494873 -1 0 -1 0 -0.01253731 -0.01266626 -0.01287749 -0.0123874 -0.01218463 1000 -0.01253731 -0.01266626 -0.01287749 -0.0123874 -0.01218463 1000 -0.01416153 -0.01416062 -0.01386949 -0.01370757 -0.01369761 1000 -0.01416153 -0.01416062 -0.01386949 -0.01370757 -0.01369761 1000
lala 8 1.2 0 second 14 1 102 5 4.5 0.199998140335083 0 0 -1 0 -0.01603627 -0.01590843 -0.01530519 -0.01532727 -0.01524501 1000 -0.01603627 -0.01590843 -0.01530519 -0.01532727 -0.01524501 1000 -0.01522366 -0.01475722 -0.01477318 -0.01456671 -0.01449325 1000 -0.01522366 -0.01475722 -0.01477318 -0.01456671 -0.01449325 1000
lala 4 1.2 1 first 4 1 103 6 7.559999 0.299998044967651 -1 0 1 0 -0.01484758 -0.01427607 -0.01378288 1000 1000 1000 -0.01484758 -0.01427607 -0.01378288 1000 1000 1000 -0.01080076 -0.01047705 -0.01015644 -0.009404657 -0.00895761 1000 -0.01080076 -0.01047705 -0.01015644 -0.009404657 -0.00895761 1000
lala 8 1.2 0 first 2 1 104 5 6.9 0.459997892379761 -1 0 -1 1 -0.01091358 -0.01036942 -0.009097785 1000 1000 1000 -0.01091358 -0.01036942 -0.009097785 1000 1000 1000 -0.01076579 -0.01052847 -0.009909808 -0.01005257 -0.01020796 1000 -0.01076579 -0.01052847 -0.009909808 -0.01005257 -0.01020796 1000
lala 4 1.2 1 second 10 1 105 6 3.18 0.299998044967651 1 0 1 0 -0.01140341 -0.01089912 -0.01019491 -0.01015857 -0.01062471 1000 -0.01140341 -0.01089912 -0.01019491 -0.01015857 -0.01062471 1000 -0.009074645 -0.008957475 -0.008951049 -0.009107201 -0.008493125 1000 -0.009074645 -0.008957475 -0.008951049 -0.009107201 -0.008493125 1000
lala 10 2.4 0 first 3 1 106 5 6.65 0.23999810218811 -1 1 -1 0 -0.008646321 -0.008875493 -0.00896703 1000 1000 1000 -0.008646321 -0.008875493 -0.00896703 1000 1000 1000 -0.01054867 -0.009974793 -0.009953735 -0.009564348 -0.009374827 1000 -0.01054867 -0.009974793 -0.009953735 -0.009564348 -0.009374827 1000
lala 10 1.2 0 second 7 1 107 4 4.12 0.599997758865356 1 1 -1 0 -0.01047966 -0.01170962 -0.01180436 -0.01104523 -0.01133412 1000 -0.01047966 -0.01170962 -0.01180436 -0.01104523 -0.01133412 1000 -0.009404535 -0.00943964 -0.009599095 -0.009632484 -0.009306722 1000 -0.009404535 -0.00943964 -0.009599095 -0.009632484 -0.009306722 1000
lala 11 0.6 0 first 7 1 108 4 4.72 0.299998044967651 1 1 -1 0 -0.009729626 -0.009676945 -0.01027821 1000 1000 1000 -0.009729626 -0.009676945 -0.01027821 1000 1000 1000 -0.01040429 -0.01048961 -0.01040871 -0.01010286 -0.009677514 1000 -0.01040429 -0.01048961 -0.01040871 -0.01010286 -0.009677514 1000
lala 4 1.2 1 first 15 1 109 5 3.05 0.39999794960022 0 1 1 1 -0.008832242 -0.009178285 -0.009811637 1000 1000 1000 -0.008832242 -0.009178285 -0.009811637 1000 1000 1000 -0.01000979 -0.009872412 -0.009466763 -0.009411981 -0.009758554 1000 -0.01000979 -0.009872412 -0.009466763 -0.009411981 -0.009758554 1000
lala 8 1.2 0 second 12 1 110 4 3.84 1.29999709129334 0 0 -1 1 -0.01065892 -0.0105703 -0.01132224 -0.01165329 -0.01151678 1000 -0.01065892 -0.0105703 -0.01132224 -0.01165329 -0.01151678 1000 -0.01094525 -0.01042299 -0.01044157 -0.01031345 -0.009768464 1000 -0.01094525 -0.01042299 -0.01044157 -0.01031345 -0.009768464 1000
lala 5 1.2 1 first 8 1 111 5 5.7 0.659997701644897 1 0 1 1 -0.0122773 -0.01112593 -0.01013544 1000 1000 1000 -0.0122773 -0.01112593 -0.01013544 1000 1000 1000 -0.01260805 -0.01037284 -0.009851227 -0.008588947 -0.006709561 1000 -0.01260805 -0.01037284 -0.009851227 -0.008588947 -0.006709561 1000
lala 6 1.2 0 second 16 1 112 6 5.16 0.279998064041138 0 0 -1 1 -0.0186481 -0.01911611 -0.01836367 -0.01868845 -0.0203318 1000 -0.0186481 -0.01911611 -0.01836367 -0.01868845 -0.0203318 1000 -0.0228233 -0.02288277 -0.02312722 -0.02330471 -0.02398916 1000 -0.0228233 -0.02288277 -0.02312722 -0.02330471 -0.02398916 1000
lala 6 1.2 0 second 8 1 113 5 4.5 0.679997682571411 1 0 -1 0 -0.02542043 -0.02530755 -0.02513511 -0.02577319 -0.02708731 1000 -0.02542043 -0.02530755 -0.02513511 -0.02577319 -0.02708731 1000 -0.02358578 -0.02331078 -0.02324799 -0.02309188 -0.02277876 1000 -0.02358578 -0.02331078 -0.02324799 -0.02309188 -0.02277876 1000
lala 9 1.2 1 first 2 1 114 5 8.099999 0.499997854232788 -1 0 1 1 -0.0219863 -0.02239853 -0.02371702 1000 1000 1000 -0.0219863 -0.02239853 -0.02371702 1000 1000 1000 -0.02198925 -0.02178422 -0.02209299 -0.02169924 -0.02074962 1000 -0.02198925 -0.02178422 -0.02209299 -0.02169924 -0.02074962 1000
lala 8 1.2 0 second 17 1 115 6 6.780001 0.339998006820679 0 1 -1 0 -0.02342245 -0.02332626 -0.0222905 -0.02170952 -0.02158421 1000 -0.02342245 -0.02332626 -0.0222905 -0.02170952 -0.02158421 1000 -0.0203693 -0.02018357 -0.02006125 -0.0195609 -0.02003097 1000 -0.0203693 -0.02018357 -0.02006125 -0.0195609 -0.02003097 1000
lala 5 1.2 0 second 15 1 116 5 1.85 0.539997816085815 0 1 -1 0 -0.020245 -0.02030804 -0.02039863 -0.0200075 -0.02004761 1000 -0.020245 -0.02030804 -0.02039863 -0.0200075 -0.02004761 1000 -0.02018692 -0.02043392 -0.02100793 -0.02075889 -0.02032919 1000 -0.02018692 -0.02043392 -0.02100793 -0.02075889 -0.02032919 1000
lala 5 1.2 1 second 9 1 117 5 4.25 0.699997663497925 1 1 1 0 -0.01831676 -0.01877162 -0.01817358 -0.01783167 -0.01827146 1000 -0.01831676 -0.01877162 -0.01817358 -0.01783167 -0.01827146 1000 -0.01807415 -0.01810221 -0.01801003 -0.01763183 -0.01735255 1000 -0.01807415 -0.01810221 -0.01801003 -0.01763183 -0.01735255 1000
lala 8 1.2 1 second 5 1 118 6 6.780001 1.07999730110168 -1 1 1 0 -0.02039528 -0.02075812 -0.0219831 -0.02259969 -0.02261361 1000 -0.02039528 -0.02075812 -0.0219831 -0.02259969 -0.02261361 1000 -0.02279862 -0.0230641 -0.02307901 -0.02272634 -0.0223205 1000 -0.02279862 -0.0230641 -0.02307901 -0.02272634 -0.0223205 1000
lala 5 1.2 0 second 4 1 119 6 6.36 0.579997777938843 -1 0 -1 0 -0.01292054 -0.01252337 -0.01053644 -0.008057639 -0.005788496 1000 -0.01292054 -0.01252337 -0.01053644 -0.008057639 -0.005788496 1000 -0.001556662 -0.000704747 -0.0009610735 -0.0006709463 -0.001321539 1000 -0.001556662 -0.000704747 -0.0009610735 -0.0006709463 -0.001321539 1000
lala 11 1.2 1 second 3 1 120 5 7.85 0.479997873306274 -1 1 1 0 -9.521128E-05 0.0002146169 -4.892761E-05 -0.0006779372 -0.0005805562 1000 -9.521128E-05 0.0002146169 -4.892761E-05 -0.0006779372 -0.0005805562 1000 0.0001269211 0.0004694619 0.000773765 0.001028819 0.0008384972 1000 0.0001269211 0.0004694619 0.000773765 0.001028819 0.0008384972 1000
lala 6 1.2 0 first 13 1 121 4 4.12 0.419997930526733 0 1 -1 1 -0.00150247 -0.0003591795 -0.0001381857 1000 1000 1000 -0.00150247 -0.0003591795 -0.0001381857 1000 1000 1000 -0.001645406 -0.001746643 -0.001651452 -0.001812628 -0.002036969 1000 -0.001645406 -0.001746643 -0.001651452 -0.001812628 -0.002036969 1000
lala 3 1.2 0 second 0 1 122 4 5.04 0.699997663497925 -1 0 -1 0 -0.004032439 -0.004000212 -0.0031795 -0.002550073 -0.002231744 1000 -0.004032439 -0.004000212 -0.0031795 -0.002550073 -0.002231744 1000 -0.00357655 -0.003989656 -0.003894257 -0.003898377 -0.004098336 1000 -0.00357655 -0.003989656 -0.003894257 -0.003898377 -0.004098336 1000
lala 4 1.2 1 second 0 1 123 4 6.24 0.279998064041138 -1 0 1 1 -0.006461131 -0.005914353 -0.005443754 -0.004747935 -0.004641758 1000 -0.006461131 -0.005914353 -0.005443754 -0.004747935 -0.004641758 1000 -0.00497418 -0.004845456 -0.004733151 -0.004425173 -0.005101336 1000 -0.00497418 -0.004845456 -0.004733151 -0.004425173 -0.005101336 1000
lala 10 0.6 1 second 2 1 124 5 7.5 0.359997987747192 -1 0 1 1 -0.0050779 -0.005556569 -0.005929661 -0.00559317 -0.005158209 1000 -0.0050779 -0.005556569 -0.005929661 -0.00559317 -0.005158209 1000 -0.003773174 -0.004323776 -0.004593305 -0.004871627 -0.004914402 1000 -0.003773174 -0.004323776 -0.004593305 -0.004871627 -0.004914402 1000
lala 6 1.2 0 second 9 1 125 5 3.05 0.23999810218811 1 1 -1 0 -0.006065804 -0.005601503 -0.005542397 -0.005556037 -0.004918185 1000 -0.006065804 -0.005601503 -0.005542397 -0.005556037 -0.004918185 1000 -0.004349234 -0.004300929 -0.004654253 -0.004803766 -0.004756074 1000 -0.004349234 -0.004300929 -0.004654253 -0.004803766 -0.004756074 1000
lala 7 1.2 0 first 13 1 126 4 5.32 1.47999691963196 0 1 -1 1 -0.006891574 -0.006831477 -0.006824083 1000 1000 1000 -0.006891574 -0.006831477 -0.006824083 1000 1000 1000 -0.007302291 -0.006543987 -0.006338267 -0.006236091 -0.00590708 1000 -0.007302291 -0.006543987 -0.006338267 -0.006236091 -0.00590708 1000
lala 9 1.2 0 second 17 1 127 6 7.98 1.15999722480774 0 1 -1 0 -0.01334478 -0.01543599 -0.01509467 -0.01327905 -0.01087798 1000 -0.01334478 -0.01543599 -0.01509467 -0.01327905 -0.01087798 1000 -0.004534577 -0.00429439 -0.00409591 -0.003893408 -0.004367356 1000 -0.004534577 -0.00429439 -0.00409591 -0.003893408 -0.004367356 1000
lala 7 1.2 0 first 16 1 128 6 6.36 0.539997816085815 0 0 -1 1 -0.007226566 -0.006046606 -0.005084469 1000 1000 1000 -0.007226566 -0.006046606 -0.005084469 1000 1000 1000 -0.00747537 -0.00756646 -0.007786778 -0.007723867 -0.007450249 1000 -0.00747537 -0.00756646 -0.007786778 -0.007723867 -0.007450249 1000
lala 9 1.2 1 first 12 1 129 4 5.04 0.799997568130493 0 0 1 1 -0.01174697 -0.01190722 -0.01212015 1000 1000 1000 -0.01174697 -0.01190722 -0.01212015 1000 1000 1000 -0.01078023 -0.01061126 -0.01077439 -0.01088983 -0.0109038 1000 -0.01078023 -0.01061126 -0.01077439 -0.01088983 -0.0109038 1000
lala 5 1.2 0 first 10 1 130 6 1.98 0.0599982738494873 1 0 -1 1 -0.01141794 -0.01092676 -0.01108873 1000 1000 1000 -0.01141794 -0.01092676 -0.01108873 1000 1000 1000 -0.0129037 -0.01209173 -0.01168689 -0.01144893 -0.01186136 1000 -0.0129037 -0.01209173 -0.01168689 -0.01144893 -0.01186136 1000
lala 12 0.6 1 first 3 1 131 5 7.25 0.439997911453247 -1 1 1 1 -0.01118232 -0.01135965 -0.01114006 1000 1000 1000 -0.01118232 -0.01135965 -0.01114006 1000 1000 1000 -0.011191 -0.0108599 -0.01035119 -0.01026383 -0.009688659 1000 -0.011191 -0.0108599 -0.01035119 -0.01026383 -0.009688659 1000
lala 5 1.2 0 second 0 1 132 4 5.04 0.679997682571411 -1 0 -1 0 -0.009574864 -0.01017508 -0.01044216 -0.01039776 -0.009758322 1000 -0.009574864 -0.01017508 -0.01044216 -0.01039776 -0.009758322 1000 -0.009578393 -0.009777629 -0.009833997 -0.009496611 -0.009993647 1000 -0.009578393 -0.009777629 -0.009833997 -0.009496611 -0.009993647 1000
lala 5 1.2 1 second 11 1 133 6 5.580001 0.459997892379761 1 1 1 1 -0.01269034 -0.01262585 -0.01297333 -0.01277533 -0.01243395 1000 -0.01269034 -0.01262585 -0.01297333 -0.01277533 -0.01243395 1000 -0.0114676 -0.01156537 -0.01195286 -0.01191775 -0.01156534 1000 -0.0114676 -0.01156537 -0.01195286 -0.01191775 -0.01156534 1000
lala 8 1.2 1 second 16 1 134 6 7.559999 0.359997987747192 0 0 1 1 -0.01152685 -0.01223558 -0.01183544 -0.01101187 -0.01060639 1000 -0.01152685 -0.01223558 -0.01183544 -0.01101187 -0.01060639 1000 -0.01018447 -0.009949315 -0.01020347 -0.0106213 -0.01014067 1000 -0.01018447 -0.009949315 -0.01020347 -0.0106213 -0.01014067 1000
lala 9 1.2 0 first 5 1 135 6 5.580001 0.899997472763062 -1 1 -1 0 -0.01047287 -0.01052746 -0.01057428 1000 1000 1000 -0.01047287 -0.01052746 -0.01057428 1000 1000 1000 -0.01167986 -0.01176001 -0.01198296 -0.01181598 -0.01169397 1000 -0.01167986 -0.01176001 -0.01198296 -0.01181598 -0.01169397 1000
lala 6 1.2 1 second 4 1 136 6 7.559999 0.679997682571411 -1 0 1 1 -0.009936015 -0.009736116 -0.009954257 -0.009773516 -0.009156435 1000 -0.009936015 -0.009736116 -0.009954257 -0.009773516 -0.009156435 1000 -0.00931843 -0.009352392 -0.01005027 -0.01032748 -0.01086813 1000 -0.00931843 -0.009352392 -0.01005027 -0.01032748 -0.01086813 1000
lala 6 1.2 0 second 11 1 137 6 4.380001 1.73999691009521 1 1 -1 0 -0.01148516 -0.01177448 -0.01200819 -0.01188235 -0.01096272 1000 -0.01148516 -0.01177448 -0.01200819 -0.01188235 -0.01096272 1000 -0.01301198 -0.01270612 -0.01248018 -0.01198513 -0.01181547 1000 -0.01301198 -0.01270612 -0.01248018 -0.01198513 -0.01181547 1000
lala 12 0.6 1 first 7 1 138 4 5.32 1.15999722480774 1 1 1 0 -0.01081768 -0.01232302 -0.01288459 1000 1000 1000 -0.01081768 -0.01232302 -0.01288459 1000 1000 1000 -0.01145082 -0.01139994 -0.01069745 -0.01067155 -0.01026127 1000 -0.01145082 -0.01139994 -0.01069745 -0.01067155 -0.01026127 1000
lala 7 1.2 0 first 9 1 139 5 4.25 0.459997892379761 1 1 -1 0 -0.01206297 -0.01268867 -0.01314676 1000 1000 1000 -0.01206297 -0.01268867 -0.01314676 1000 1000 1000 -0.01770418 -0.0184015 -0.01775123 -0.01715105 -0.01742266 1000 -0.01770418 -0.0184015 -0.01775123 -0.01715105 -0.01742266 1000
lala 6 1.2 1 first 15 1 140 5 3.05 0.299998044967651 0 1 1 1 -0.02048414 -0.02027219 -0.02156658 1000 1000 1000 -0.02048414 -0.02027219 -0.02156658 1000 1000 1000 -0.02086062 -0.0190276 -0.01673152 -0.01431065 -0.01219776 1000 -0.02086062 -0.0190276 -0.01673152 -0.01431065 -0.01219776 1000
lala 13 0.3 1 second 7 1 141 4 5.02 0.39999794960022 1 1 1 1 -0.0185651 -0.01795528 -0.01779947 -0.01808147 -0.01885265 1000 -0.0185651 -0.01795528 -0.01779947 -0.01808147 -0.01885265 1000 -0.01748278 -0.01756489 -0.01766904 -0.01723054 -0.01681531 1000 -0.01748278 -0.01756489 -0.01766904 -0.01723054 -0.01681531 1000
lala 7 1.2 0 first 8 1 142 5 5.7 0.259998083114624 1 0 -1 1 -0.01756952 -0.01760145 -0.0178949 1000 1000 1000 -0.01756952 -0.01760145 -0.0178949 1000 1000 1000 -0.02274706 -0.02214349 -0.02137096 -0.02121177 -0.02122853 1000 -0.02274706 -0.02214349 -0.02137096 -0.02121177 -0.02122853 1000
lala 8 1.2 1 first 8 1 143 5 6.9 0.759997606277466 1 0 1 1 -0.01899946 -0.02012931 -0.02060409 1000 1000 1000 -0.01899946 -0.02012931 -0.02060409 1000 1000 1000 -0.005370135 -0.008224582 -0.01038618 -0.01167001 -0.01292646 1000 -0.005370135 -0.008224582 -0.01038618 -0.01167001 -0.01292646 1000
lala 9 1.2 1 second 8 1 144 5 5.7 0.39999794960022 1 0 1 0 -0.0003568071 -0.003321659 -0.004692971 -0.00499006 -0.007522177 1000 -0.0003568071 -0.003321659 -0.004692971 -0.00499006 -0.007522177 1000 -0.01862127 -0.0207291 -0.02118946 -0.02123776 -0.02189318 1000 -0.01862127 -0.0207291 -0.02118946 -0.02123776 -0.02189318 1000
lala 7 1.2 1 second 11 1 145 6 5.580001 0.599997758865356 1 1 1 1 -0.02537384 -0.02670938 -0.02642362 -0.02593614 -0.02598324 1000 -0.02537384 -0.02670938 -0.02642362 -0.02593614 -0.02598324 1000 -0.0200389 -0.02004975 -0.0191266 -0.01940837 -0.01958738 1000 -0.0200389 -0.02004975 -0.0191266 -0.01940837 -0.01958738 1000
lala 7 1.2 0 first 15 1 146 5 1.85 0.0399982929229736 0 1 -1 0 -0.02006729 -0.02035993 -0.02072927 1000 1000 1000 -0.02006729 -0.02035993 -0.02072927 1000 1000 1000 -0.01912676 -0.01885494 -0.01831995 -0.01771495 -0.01762516 1000 -0.01912676 -0.01885494 -0.01831995 -0.01771495 -0.01762516 1000
lala 10 0.6 0 second 5 1 147 6 6.180001 0.079998254776001 -1 1 -1 0 -0.01800513 -0.01766098 -0.01705986 -0.01711765 -0.01719147 1000 -0.01800513 -0.01766098 -0.01705986 -0.01711765 -0.01719147 1000 -0.01757809 -0.01752475 -0.01741142 -0.01747547 -0.01742256 1000 -0.01757809 -0.01752475 -0.01741142 -0.01747547 -0.01742256 1000
lala 10 0.6 0 second 12 1 148 4 4.44 0.359997987747192 0 0 -1 1 -0.01680512 -0.0162019 -0.01509849 -0.01501738 -0.01498161 1000 -0.01680512 -0.0162019 -0.01509849 -0.01501738 -0.01498161 1000 -0.01665547 -0.01645108 -0.01692759 -0.01680663 -0.01651187 1000 -0.01665547 -0.01645108 -0.01692759 -0.01680663 -0.01651187 1000
lala 14 0.3 1 second 7 1 149 4 4.719999 0.579997777938843 1 1 1 1 -0.01756178 -0.01784981 -0.0175558 -0.0161362 -0.01565882 1000 -0.01756178 -0.01784981 -0.0175558 -0.0161362 -0.01565882 1000 -0.01757788 -0.01731672 -0.01674933 -0.01697907 -0.01711948 1000 -0.01757788 -0.01731672 -0.01674933 -0.01697907 -0.01711948 1000
lala 11 0.6 1 second 2 1 150 5 6.9 2.03999662399292 -1 0 1 0 -0.004173505 -0.004016668 -0.004634554 -0.005791818 -0.006690398 1000 -0.004173505 -0.004016668 -0.004634554 -0.005791818 -0.006690398 1000 -0.01016091 -0.01013105 -0.009226792 -0.009103148 -0.009674247 1000 -0.01016091 -0.01013105 -0.009226792 -0.009103148 -0.009674247 1000
lala 15 0.3 1 first 7 1 151 4 4.419999 1.27999711036682 1 1 1 1 -0.008624054 -0.008946034 -0.009109979 1000 1000 1000 -0.008624054 -0.008946034 -0.009109979 1000 1000 1000 -0.009496031 -0.009871835 -0.009610757 -0.008462892 -0.008567843 1000 -0.009496031 -0.009871835 -0.009610757 -0.008462892 -0.008567843 1000
lala 7 1.2 0 second 4 1 152 6 6.36 0.659997701644897 -1 0 -1 1 -0.008961103 -0.009800547 -0.01011147 -0.009027269 -0.009058625 1000 -0.008961103 -0.009800547 -0.01011147 -0.009027269 -0.009058625 1000 -0.00783136 -0.007853888 -0.007752679 -0.007720074 -0.00787856 1000 -0.00783136 -0.007853888 -0.007752679 -0.007720074 -0.00787856 1000
lala 8 1.2 1 second 9 1 153 5 5.45 0.39999794960022 1 1 1 0 -0.007816116 -0.007498838 -0.007488114 -0.007460126 -0.007469255 1000 -0.007816116 -0.007498838 -0.007488114 -0.007460126 -0.007469255 1000 -0.007676787 -0.007811006 -0.007958313 -0.007743687 -0.007349381 1000 -0.007676787 -0.007811006 -0.007958313 -0.007743687 -0.007349381 1000
lala 13 0.6 1 second 3 1 154 5 6.650001 0.159998178482056 -1 1 1 0 -0.009788782 -0.01050841 -0.01143801 -0.01031743 -0.009331311 1000 -0.009788782 -0.01050841 -0.01143801 -0.01031743 -0.009331311 1000 -0.007020009 -0.006998161 -0.007064431 -0.006966062 -0.007251465 1000 -0.007020009 -0.006998161 -0.007064431 -0.006966062 -0.007251465 1000
lala 14 0.6 0 second 3 1 155 5 6.050001 0.139998197555542 -1 1 -1 0 -0.009123535 -0.009113262 -0.008442058 -0.007973064 -0.007543174 1000 -0.009123535 -0.009113262 -0.008442058 -0.007973064 -0.007543174 1000 -0.007924103 -0.008201018 -0.00776947 -0.007666979 -0.007829115 1000 -0.007924103 -0.008201018 -0.00776947 -0.007666979 -0.007829115 1000
lala 6 1.2 0 first 10 1 156 6 3.18 0.319998025894165 1 0 -1 1 -0.008356704 -0.008836422 -0.00925118 1000 1000 1000 -0.008356704 -0.008836422 -0.00925118 1000 1000 1000 -0.008122785 -0.008443161 -0.008381042 -0.008150687 -0.007901775 1000 -0.008122785 -0.008443161 -0.008381042 -0.008150687 -0.007901775 1000
lala 6 1.2 0 first 0 1 157 4 6.24 0.199998140335083 -1 0 -1 0 -0.008282488 -0.009004474 -0.008714158 1000 1000 1000 -0.008282488 -0.009004474 -0.008714158 1000 1000 1000 -0.008280176 -0.007855793 -0.007241017 -0.007149178 -0.006914712 1000 -0.008280176 -0.007855793 -0.007241017 -0.007149178 -0.006914712 1000
lala 8 1.2 0 first 11 1 158 6 4.380001 0.39999794960022 1 1 -1 1 -0.006473018 -0.006501557 -0.006526566 1000 1000 1000 -0.006473018 -0.006501557 -0.006526566 1000 1000 1000 -0.005969225 -0.005884561 -0.006277143 -0.006354559 -0.005738159 1000 -0.005969225 -0.005884561 -0.006277143 -0.006354559 -0.005738159 1000
lala 8 1.2 1 first 13 1 159 4 6.52 0.699997663497925 0 1 1 0 -0.00823968 -0.007521122 -0.007748554 1000 1000 1000 -0.00823968 -0.007521122 -0.007748554 1000 1000 1000 -0.03139311 -0.03109514 -0.0311559 -0.02633008 -0.02332097 1000 -0.03139311 -0.03109514 -0.0311559 -0.02633008 -0.02332097 1000
lala 8 1.2 0 first 6 1 160 4 3.84 2.31999635696411 1 0 -1 1 -0.0160457 -0.01549375 -0.01628301 1000 1000 1000 -0.0160457 -0.01549375 -0.01628301 1000 1000 1000 -0.02470434 -0.02505218 -0.02481275 -0.02421408 -0.02416612 1000 -0.02470434 -0.02505218 -0.02481275 -0.02421408 -0.02416612 1000
lala 15 0.3 0 first 3 1 161 5 6.350001 0.459997892379761 -1 1 -1 1 -0.02218889 -0.02196465 -0.02252578 1000 1000 1000 -0.02218889 -0.02196465 -0.02252578 1000 1000 1000 -0.02024435 -0.02013691 -0.02025976 -0.01980492 -0.01952993 1000 -0.02024435 -0.02013691 -0.02025976 -0.01980492 -0.01952993 1000
lala 10 1.2 1 second 8 1 162 5 4.5 1.19999718666077 1 0 1 1 -0.01939895 -0.01955389 -0.01890674 -0.01865129 -0.01932394 1000 -0.01939895 -0.01955389 -0.01890674 -0.01865129 -0.01932394 1000 -0.01963888 -0.01966918 -0.01966451 -0.01972625 -0.01970514 1000 -0.01963888 -0.01966918 -0.01966451 -0.01972625 -0.01970514 1000
lala 9 1.2 1 second 16 1 163 6 6.36 0.799997568130493 0 0 1 0 -0.02042024 -0.02055015 -0.01989722 -0.01954029 -0.01984728 1000 -0.02042024 -0.02055015 -0.01989722 -0.01954029 -0.01984728 1000 -0.02001719 -0.01939192 -0.01955762 -0.01981559 -0.02050325 1000 -0.02001719 -0.01939192 -0.01955762 -0.01981559 -0.02050325 1000
lala 7 1.2 1 second 0 1 164 4 7.44 0.439997911453247 -1 0 1 0 -0.02044433 -0.02019251 -0.02129011 -0.02049891 -0.02022054 1000 -0.02044433 -0.02019251 -0.02129011 -0.02049891 -0.02022054 1000 -0.02088754 -0.02032086 -0.02058303 -0.02134578 -0.02193591 1000 -0.02088754 -0.02032086 -0.02058303 -0.02134578 -0.02193591 1000
lala 10 2.4 1 first 17 1 165 6 10.38 0.759997606277466 0 1 1 1 -0.02083294 -0.02085173 -0.02069526 1000 1000 1000 -0.02083294 -0.02085173 -0.02069526 1000 1000 1000 -0.01990799 -0.01968248 -0.01981794 -0.02000537 -0.02060228 1000 -0.01990799 -0.01968248 -0.01981794 -0.02000537 -0.02060228 1000
lala 9 1.2 0 second 9 1 166 5 4.25 1.45999693870544 1 1 -1 1 -0.02132761 -0.02115874 -0.02072502 -0.02057817 -0.01997206 1000 -0.02132761 -0.02115874 -0.02072502 -0.02057817 -0.01997206 1000 -0.01976842 -0.01998446 -0.01962983 -0.01912224 -0.01966623 1000 -0.01976842 -0.01998446 -0.01962983 -0.01912224 -0.01966623 1000
lala 9 1.2 0 first 11 1 167 6 5.580001 4.23999452590942 1 1 -1 0 -0.01960728 -0.01912981 -0.01804422 1000 1000 1000 -0.01960728 -0.01912981 -0.01804422 1000 1000 1000 -0.005505001 -0.004636015 0.0001972527 0.004782037 0.007570799 1000 -0.005505001 -0.004636015 0.0001972527 0.004782037 0.007570799 1000
lala 8 1.2 1 first 0 1 168 4 6.24 0.61999773979187 -1 0 1 1 0.01736381 0.01636557 0.0130882 1000 1000 1000 0.01736381 0.01636557 0.0130882 1000 1000 1000 0.003512505 0.003651218 0.004884558 0.005693957 0.004841989 1000 0.003512505 0.003651218 0.004884558 0.005693957 0.004841989 1000
lala 11 2.4 1 second 8 1 169 5 2.1 0.339998006820679 1 0 1 1 0.003255298 0.003553788 0.003969952 0.004113635 0.004217321 1000 0.003255298 0.003553788 0.003969952 0.004113635 0.004217321 1000 0.002730545 0.002060088 0.00221904 0.002435159 0.002359671 1000 0.002730545 0.002060088 0.00221904 0.002435159 0.002359671 1000
lala 9 1.2 1 second 6 1 170 4 5.04 0.639997720718384 1 0 1 1 0.001794444 0.001500496 0.001588476 0.002028151 0.001331911 1000 0.001794444 0.001500496 0.001588476 0.002028151 0.001331911 1000 0.002455752 0.001710542 0.001722892 0.001871538 0.002120895 1000 0.002455752 0.001710542 0.001722892 0.001871538 0.002120895 1000
lala 11 0.6 0 second 5 1 171 6 6.780001 0.299998044967651 -1 1 -1 1 0.001856363 0.001991805 0.001783928 0.001917714 0.002545715 1000 0.001856363 0.001991805 0.001783928 0.001917714 0.002545715 1000 0.002559951 0.002196785 0.001538657 0.001439146 0.001524367 1000 0.002559951 0.002196785 0.001538657 0.001439146 0.001524367 1000
lala 12 0.6 1 second 2 1 172 5 6.3 0.819997549057007 -1 0 1 0 0.0009437887 0.0005855972 0.0003224556 4.251655E-05 -0.0008430688 1000 0.0009437887 0.0005855972 0.0003224556 4.251655E-05 -0.0008430688 1000 0.0001441074 -4.064101E-05 -0.0002708897 -0.0001515861 0.0001429497 1000 0.0001441074 -4.064101E-05 -0.0002708897 -0.0001515861 0.0001429497 1000
lala 12 4.8 0 second 8 1 173 5 1.65 3.01999568939209 1 0 -1 1 -0.002275311 -0.005447283 -0.003472181 -0.004545944 -0.006288123 1000 -0.002275311 -0.005447283 -0.003472181 -0.004545944 -0.006288123 1000 -0.02106454 -0.01513 -0.01390583 -0.01546899 -0.01710623 1000 -0.02106454 -0.01513 -0.01390583 -0.01546899 -0.01710623 1000
lala 8 1.2 0 second 15 1 174 5 3.05 0.939997434616089 0 1 -1 0 0.01887162 0.02562823 0.02526787 0.02337285 0.01972344 1000 0.01887162 0.02562823 0.02526787 0.02337285 0.01972344 1000 0.007141549 0.004321053 0.002280759 0.002845243 0.002901922 1000 0.007141549 0.004321053 0.002280759 0.002845243 0.002901922 1000
lala 11 1.2 1 first 17 1 175 6 9.180001 0.759997606277466 0 1 1 0 -1.28637E-05 0.0007107251 0.002338265 1000 1000 1000 -1.28637E-05 0.0007107251 0.002338265 1000 1000 1000 0.002093715 0.002117268 0.002250386 0.002759476 0.002913171 1000 0.002093715 0.002117268 0.002250386 0.002759476 0.002913171 1000
lala 16 0.3 1 second 3 1 176 5 6.650001 0.639997720718384 -1 1 1 0 -0.001793527 -0.001167639 -0.0007191011 2.989962E-05 0.0002438151 1000 -0.001793527 -0.001167639 -0.0007191011 2.989962E-05 0.0002438151 1000 0.0005631215 0.0005660481 6.962557E-05 0.0002108266 0.00131555 1000 0.0005631215 0.0005660481 6.962557E-05 0.0002108266 0.00131555 1000
lala 10 1.2 0 first 16 1 177 6 5.16 0.359997987747192 0 0 -1 0 0.001651424 0.002604629 0.003720173 1000 1000 1000 0.001651424 0.002604629 0.003720173 1000 1000 1000 0.005334787 0.006232512 0.005986665 0.005139907 0.004455369 1000 0.005334787 0.006232512 0.005986665 0.005139907 0.004455369 1000
lala 11 0.3 0 first 12 1 178 4 4.74 0.439997911453247 0 0 -1 0 0.007857839 0.00857398 0.01273816 1000 1000 1000 0.007857839 0.00857398 0.01273816 1000 1000 1000 0.01805858 0.01711597 0.01522745 0.01803438 0.02073966 1000 0.01805858 0.01711597 0.01522745 0.01803438 0.02073966 1000
lala 12 0.3 0 first 12 1 179 4 5.04 3.27999544143677 0 0 -1 0 0.01539608 0.01351756 0.01204981 1000 1000 1000 0.01539608 0.01351756 0.01204981 1000 1000 1000 0.002404441 0.002573821 0.002532926 0.003448142 0.004168443 1000 0.002404441 0.002573821 0.002532926 0.003448142 0.004168443 1000
lala 16 0.6 0 second 7 1 180 4 3.819999 0.279998064041138 1 1 -1 0 0.007454617 0.007799382 0.007746681 0.008430849 0.009212617 1000 0.007454617 0.007799382 0.007746681 0.008430849 0.009212617 1000 0.01093831 0.01097765 0.01125779 0.01116195 0.0112459 1000 0.01093831 0.01097765 0.01125779 0.01116195 0.0112459 1000
lala 9 1.2 1 second 15 1 181 5 4.25 0.599997758865356 0 1 1 1 0.01097662 0.01081067 0.01080005 0.01108301 0.01158347 1000 0.01097662 0.01081067 0.01080005 0.01108301 0.01158347 1000 0.01189775 0.01180063 0.01188055 0.01205012 0.01227456 1000 0.01189775 0.01180063 0.01188055 0.01205012 0.01227456 1000
lala 13 2.4 0 first 8 1 182 5 4.05 0.559997797012329 1 0 -1 0 0.01114806 0.01150198 0.01161189 1000 1000 1000 0.01114806 0.01150198 0.01161189 1000 1000 1000 0.01208209 0.01154769 0.01137297 0.0120824 0.012325 1000 0.01208209 0.01154769 0.01137297 0.0120824 0.012325 1000
lala 8 1.2 0 first 4 1 183 6 7.559999 0.299998044967651 -1 0 -1 1 0.010961 0.0109074 0.0107093 1000 1000 1000 0.010961 0.0109074 0.0107093 1000 1000 1000 0.01113113 0.01079046 0.01066274 0.0106115 0.01069489 1000 0.01113113 0.01079046 0.01066274 0.0106115 0.01069489 1000
lala 9 1.2 1 first 14 1 184 5 5.7 0.579997777938843 0 0 1 0 0.01124126 0.0115695 0.01116293 1000 1000 1000 0.01124126 0.0115695 0.01116293 1000 1000 1000 0.01022898 0.009990299 0.00927904 0.008414004 0.008752152 1000 0.01022898 0.009990299 0.00927904 0.008414004 0.008752152 1000
lala 12 1.2 0 second 17 1 185 6 7.980001 0.499997854232788 0 1 -1 1 0.009791532 0.009778677 0.009542259 0.009699386 0.009378113 1000 0.009791532 0.009778677 0.009542259 0.009699386 0.009378113 1000 0.00623895 0.007705552 0.007523602 0.008101963 0.00847217 1000 0.00623895 0.007705552 0.007523602 0.008101963 0.00847217 1000
lala 17 0.3 0 second 7 1 186 4 4.119999 0.559997797012329 1 1 -1 1 -0.001271252 -0.002789123 -0.002289296 -0.001916997 -0.001969631 1000 -0.001271252 -0.002789123 -0.002289296 -0.001916997 -0.001969631 1000 0.005913017 0.007200541 0.008425272 0.00797944 0.00640011 1000 0.005913017 0.007200541 0.008425272 0.00797944 0.00640011 1000
lala 10 0.6 1 first 6 1 187 4 4.44 0.359997987747192 1 0 1 0 0.005125046 0.004831227 0.004848498 1000 1000 1000 0.005125046 0.004831227 0.004848498 1000 1000 1000 0.003237304 0.003878419 0.003725376 0.00316419 0.00319009 1000 0.003237304 0.003878419 0.003725376 0.00316419 0.00319009 1000
lala 14 2.4 1 first 8 1 188 5 6.45 0.539997816085815 1 0 1 1 0.004338679 0.004334582 0.004431959 1000 1000 1000 0.004338679 0.004334582 0.004431959 1000 1000 1000 0.002727193 0.00295222 0.003254135 0.003400942 0.003166361 1000 0.002727193 0.00295222 0.003254135 0.003400942 0.003166361 1000
lala 15 1.2 1 first 8 1 189 5 5.25 0.539997816085815 1 0 1 1 0.00397694 0.003831284 0.003801722 1000 1000 1000 0.00397694 0.003831284 0.003801722 1000 1000 1000 0.004099851 0.005781437 0.005941657 0.005727051 0.00506159 1000 0.004099851 0.005781437 0.005941657 0.005727051 0.00506159 1000
lala 13 0.6 1 first 17 1 190 6 8.580002 0.159998178482056 0 1 1 1 0.004991761 0.0045255 0.004386509 1000 1000 1000 0.004991761 0.0045255 0.004386509 1000 1000 1000 0.009027693 0.007104261 0.005559048 0.004930269 0.005769894 1000 0.009027693 0.007104261 0.005559048 0.004930269 0.005769894 1000
lala 10 0.6 0 first 9 1 191 5 4.85 1.19999718666077 1 1 -1 1 0.0004451623 -0.0023228 -0.001071524 1000 1000 1000 0.0004451623 -0.0023228 -0.001071524 1000 1000 1000 -0.001150514 -0.0009324662 0.000155486 0.001238849 0.002762023 1000 -0.001150514 -0.0009324662 0.000155486 0.001238849 0.002762023 1000
lala 11 0.6 0 second 16 1 192 6 5.76 0.739997625350952 0 0 -1 1 0.01320782 0.01246624 0.01072082 0.009738855 0.009735971 1000 0.01320782 0.01246624 0.01072082 0.009738855 0.009735971 1000 0.006365754 0.005423423 0.004772997 0.003764165 0.002285648 1000 0.006365754 0.005423423 0.004772997 0.003764165 0.002285648 1000
lala 9 1.2 1 second 1 1 193 4 7.719999 1.25999712944031 -1 1 1 1 -0.005776099 -0.003823529 -0.003052979 -0.002905388 -0.00362324 1000 -0.005776099 -0.003823529 -0.003052979 -0.002905388 -0.00362324 1000 -0.003813646 -0.003320245 -0.002962989 -0.003315761 -0.003825514 1000 -0.003813646 -0.003320245 -0.002962989 -0.003315761 -0.003825514 1000
lala 14 0.3 1 second 17 1 194 6 8.280002 7.76004266738892 0 1 1 1 -0.00455164 -0.005066372 -0.004855858 -0.005018853 -0.005795189 1000 -0.00455164 -0.005066372 -0.004855858 -0.005018853 -0.005795189 1000 0.0006859985 0.00809745 0.008496649 0.003396821 0.0008650996 1000 0.0006859985 0.00809745 0.008496649 0.003396821 0.0008650996 1000
lala 10 0.6 0 second 15 1 195 5 3.65 1.25999712944031 0 1 -1 0 0.009775788 0.006815974 0.006035176 0.006962398 0.007182498 1000 0.009775788 0.006815974 0.006035176 0.006962398 0.007182498 1000 0.008818407 0.009707718 0.009947627 0.009839409 0.009265489 1000 0.008818407 0.009707718 0.009947627 0.009839409 0.009265489 1000
lala 18 0.3 0 first 7 1 196 4 4.42 2.13999652862549 1 1 -1 0 0.009508437 0.01066893 0.01160957 1000 1000 1000 0.009508437 0.01066893 0.01160957 1000 1000 1000 0.009069411 0.00883259 0.009720171 0.01039131 0.01001986 1000 0.009069411 0.00883259 0.009720171 0.01039131 0.01001986 1000
lala 11 0.6 0 first 9 1 197 5 5.45 0.959997415542603 1 1 -1 0 0.007716945 0.007653221 0.007638679 1000 1000 1000 0.007716945 0.007653221 0.007638679 1000 1000 1000 0.008341611 0.008702853 0.008396208 0.008547277 0.008639669 1000 0.008341611 0.008702853 0.008396208 0.008547277 0.008639669 1000
lala 10 1.2 1 first 11 1 198 6 6.780001 0.359997987747192 1 1 1 1 0.008987534 0.009000235 0.009241964 1000 1000 1000 0.008987534 0.009000235 0.009241964 1000 1000 1000 0.009070551 0.008816143 0.007920302 0.008172941 0.009123689 1000 0.009070551 0.008816143 0.007920302 0.008172941 0.009123689 1000
lala 13 0.3 1 second 12 1 199 4 5.340001 0.639997720718384 0 0 1 1 0.01001398 0.009112262 0.008884192 0.009657962 0.009664433 1000 0.01001398 0.009112262 0.008884192 0.009657962 0.009664433 1000 0.009014302 0.008750194 0.008494601 0.008540388 0.007819033 1000 0.009014302 0.008750194 0.008494601 0.008540388 0.007819033 1000
lala 12 0.6 1 second 5 1 200 6 7.380001 1.97999668121338 -1 1 1 0 0.0006825891 -0.0003623093 -0.001301754 -0.001265749 -0.001942458 1000 0.0006825891 -0.0003623093 -0.001301754 -0.001265749 -0.001942458 1000 -0.009244902 -0.01025327 -0.01041483 -0.01042935 -0.01111133 1000 -0.009244902 -0.01025327 -0.01041483 -0.01042935 -0.01111133 1000
lala 13 0.3 0 second 5 1 201 6 7.08 0.219998121261597 -1 1 -1 1 -0.00839144 -0.008551305 -0.008276052 -0.00850468 -0.00894236 1000 -0.00839144 -0.008551305 -0.008276052 -0.00850468 -0.00894236 1000 -0.001087974 0.0003003918 0.0005490763 0.0001738451 -0.0001042169 1000 -0.001087974 0.0003003918 0.0005490763 0.0001738451 -0.0001042169 1000
lala 19 0.3 1 first 7 1 202 4 4.72 0.779997587203979 1 1 1 0 0.0001845296 6.18214E-05 0.0004683387 1000 1000 1000 0.0001845296 6.18214E-05 0.0004683387 1000 1000 1000 0.001666463 0.001350536 0.0009179072 0.001765223 0.002320417 1000 0.001666463 0.001350536 0.0009179072 0.001765223 0.002320417 1000
lala 15 0.3 1 first 17 1 203 6 7.980001 0.499997854232788 0 1 1 1 0.0004329404 0.0006358118 0.001155844 1000 1000 1000 0.0004329404 0.0006358118 0.001155844 1000 1000 1000 0.003555973 0.003777866 0.003932518 0.003440222 0.003147466 1000 0.003555973 0.003777866 0.003932518 0.003440222 0.003147466 1000
lala 16 0.3 1 first 17 1 204 6 7.680001 1.15999722480774 0 1 1 1 0.004128247 0.003759983 0.003888839 1000 1000 1000 0.004128247 0.003759983 0.003888839 1000 1000 1000 0.004597194 0.004232029 0.004009621 0.00405623 0.003829965 1000 0.004597194 0.004232029 0.004009621 0.00405623 0.003829965 1000
lala 7 1.2 0 first 10 1 205 6 4.38 0.0599982738494873 1 0 -1 0 0.003529334 0.004251086 0.004780091 1000 1000 1000 0.003529334 0.004251086 0.004780091 1000 1000 1000 0.005207273 0.005086441 0.005041067 0.004879129 0.005152699 1000 0.005207273 0.005086441 0.005041067 0.004879129 0.005152699 1000
lala 12 0.6 1 second 16 1 206 6 6.36 0.559997797012329 0 0 1 0 0.004803824 0.004786498 0.005327935 0.005994938 0.005840404 1000 0.004803824 0.004786498 0.005327935 0.005994938 0.005840404 1000 0.005378209 0.004687259 0.005035389 0.004963288 0.004347255 1000 0.005378209 0.004687259 0.005035389 0.004963288 0.004347255 1000
lala 10 0.6 0 second 14 1 207 5 5.1 0.419997930526733 0 0 -1 0 0.005169977 0.005764802 0.005934875 0.00696595 0.006876393 1000 0.005169977 0.005764802 0.005934875 0.00696595 0.006876393 1000 0.006277807 0.006380836 0.006025804 0.006024706 0.00603485 1000 0.006277807 0.006380836 0.006025804 0.006024706 0.00603485 1000
lala 13 0.3 1 second 16 1 208 6 6.059999 0.259998083114624 0 0 1 1 0.007283135 0.007438939 0.007393396 0.007410912 0.007788024 1000 0.007283135 0.007438939 0.007393396 0.007410912 0.007788024 1000 0.00774715 0.007885976 0.007866946 0.007800946 0.007608394 1000 0.00774715 0.007885976 0.007866946 0.007800946 0.007608394 1000
lala 10 0.6 0 first 1 1 209 4 7.119999 0.599997758865356 -1 1 -1 0 0.008177706 0.00823428 0.007697558 1000 1000 1000 0.008177706 0.00823428 0.007697558 1000 1000 1000 0.007864907 0.008119519 0.00861359 0.008963656 0.008678647 1000 0.007864907 0.008119519 0.00861359 0.008963656 0.008678647 1000
lala 14 0.15 1 second 5 1 210 6 7.23 0.499997854232788 -1 1 1 1 0.009502212 0.009733844 0.009800659 0.01006967 0.00997036 1000 0.009502212 0.009733844 0.009800659 0.01006967 0.00997036 1000 0.01028584 0.0109171 0.01211466 0.01293385 0.01347813 1000 0.01028584 0.0109171 0.01211466 0.01293385 0.01347813 1000
lala 17 0.6 1 second 17 1 211 6 7.080001 0.639997720718384 0 1 1 1 0.01716463 0.01654916 0.01557143 0.01435472 0.01104112 1000 0.01716463 0.01654916 0.01557143 0.01435472 0.01104112 1000 -0.0150176 -0.0159343 -0.01678445 -0.01751295 -0.01664701 1000 -0.0150176 -0.0159343 -0.01678445 -0.01751295 -0.01664701 1000
lala 14 0.3 1 second 16 1 212 6 5.759999 0.199998140335083 0 0 1 0 0.002398173 0.0004503337 -0.0001023555 0.0006425156 -0.0001330464 1000 0.002398173 0.0004503337 -0.0001023555 0.0006425156 -0.0001330464 1000 -0.003893347 -0.003136057 -0.002212532 -0.002474043 -0.00215232 1000 -0.003893347 -0.003136057 -0.002212532 -0.002474043 -0.00215232 1000
lala 18 1.2 0 second 17 1 213 6 5.880001 0.439997911453247 0 1 -1 1 -0.006356324 -0.005455317 -0.006020406 -0.00627894 -0.005593985 1000 -0.006356324 -0.005455317 -0.006020406 -0.00627894 -0.005593985 1000 -0.004860516 -0.004860661 -0.005167657 -0.005213744 -0.005628531 1000 -0.004860516 -0.004860661 -0.005167657 -0.005213744 -0.005628531 1000
lala 11 0.6 1 first 6 1 214 4 3.84 0.159998178482056 1 0 1 1 -0.005930127 -0.005680494 -0.005663488 1000 1000 1000 -0.005930127 -0.005680494 -0.005663488 1000 1000 1000 -0.004707629 -0.004445928 -0.004245589 -0.004234693 -0.004335781 1000 -0.004707629 -0.004445928 -0.004245589 -0.004234693 -0.004335781 1000
lala 9 1.2 0 second 0 1 215 4 5.04 0.339998006820679 -1 0 -1 0 -0.003689779 -0.004636036 -0.005246103 -0.00469051 -0.004315255 1000 -0.003689779 -0.004636036 -0.005246103 -0.00469051 -0.004315255 1000 -0.003132276 -0.002887385 -0.002930833 -0.003598099 -0.003208301 1000 -0.003132276 -0.002887385 -0.002930833 -0.003598099 -0.003208301 1000
lala 12 0.6 1 first 6 1 216 4 3.24 0.319998025894165 1 0 1 0 -0.002474059 -0.001926566 -0.002414279 1000 1000 1000 -0.002474059 -0.001926566 -0.002414279 1000 1000 1000 -0.003263089 -0.003081562 -0.003038477 -0.003070605 -0.002462798 1000 -0.003263089 -0.003081562 -0.003038477 -0.003070605 -0.002462798 1000
lala 15 0.075 0 second 5 1 217 6 7.155001 0.379997968673706 -1 1 -1 0 -0.004276699 -0.004556582 -0.004565879 -0.004934692 -0.004339486 1000 -0.004276699 -0.004556582 -0.004565879 -0.004934692 -0.004339486 1000 -0.002370711 -0.002371022 -0.002536919 -0.002650552 -0.003103789 1000 -0.002370711 -0.002371022 -0.002536919 -0.002650552 -0.003103789 1000
lala 11 0.6 0 second 11 1 218 6 6.180001 0.379997968673706 1 1 -1 0 -0.004865694 -0.004839022 -0.003971102 -0.00277661 -0.002991804 1000 -0.004865694 -0.004839022 -0.003971102 -0.00277661 -0.002991804 1000 -0.003229912 -0.003399783 -0.003664296 -0.003598823 -0.00335005 1000 -0.003229912 -0.003399783 -0.003664296 -0.003598823 -0.00335005 1000
lala 17 0.15 0 second 3 1 219 5 6.500001 0.079998254776001 -1 1 -1 0 -0.0144943 -0.01396762 -0.0109432 -0.009046291 -0.007090595 1000 -0.0144943 -0.01396762 -0.0109432 -0.009046291 -0.007090595 1000 -0.0033854 -0.003525574 -0.004827815 -0.006053921 -0.007450097 1000 -0.0033854 -0.003525574 -0.004827815 -0.006053921 -0.007450097 1000
lala 20 0.15 0 second 7 1 220 4 4.57 0.359997987747192 1 1 -1 0 -0.01559626 -0.01473151 -0.01508289 -0.0152804 -0.01571135 1000 -0.01559626 -0.01473151 -0.01508289 -0.0152804 -0.01571135 1000 -0.01332994 -0.01166862 -0.00918211 -0.006706093 -0.00435008 1000 -0.01332994 -0.01166862 -0.00918211 -0.006706093 -0.00435008 1000
lala 16 0.0375 0 second 5 1 221 6 7.192501 0.119998216629028 -1 1 -1 1 -0.007276049 -0.00814585 -0.008714071 -0.007612972 -0.006234963 1000 -0.007276049 -0.00814585 -0.008714071 -0.007612972 -0.006234963 1000 -0.006957734 -0.007688258 -0.007942115 -0.007633198 -0.007102919 1000 -0.006957734 -0.007688258 -0.007942115 -0.007633198 -0.007102919 1000
lala 16 1.2 1 first 8 1 222 5 4.05 1.31999707221985 1 0 1 1 -0.007276357 -0.006844939 -0.006083114 1000 1000 1000 -0.007276357 -0.006844939 -0.006083114 1000 1000 1000 -0.005870167 -0.006137291 -0.005977655 -0.005166056 -0.005057626 1000 -0.005870167 -0.006137291 -0.005977655 -0.005166056 -0.005057626 1000
lala 14 0.15 0 first 12 1 223 4 5.190001 3.07999563217163 0 0 -1 0 -0.003848194 -0.004142297 -0.003708176 1000 1000 1000 -0.003848194 -0.004142297 -0.003708176 1000 1000 1000 -0.01873635 -0.02068666 -0.01958709 -0.01737692 -0.01539806 1000 -0.01873635 -0.02068666 -0.01958709 -0.01737692 -0.01539806 1000
lala 15 0.075 1 first 12 1 224 4 5.265 1.7199969291687 0 0 1 1 0.005196579 0.005259173 0.005085152 1000 1000 1000 0.005196579 0.005259173 0.005085152 1000 1000 1000 0.004314476 0.004082994 0.004093828 0.003676878 0.003886505 1000 0.004314476 0.004082994 0.004093828 0.003676878 0.003886505 1000
lala 19 0.6 0 first 17 1 225 6 6.480001 5.09999370574951 0 1 -1 0 0.001528932 0.002098567 0.002040792 1000 1000 1000 0.001528932 0.002098567 0.002040792 1000 1000 1000 -0.002972592 -0.002857698 -0.003576821 -0.003751507 -0.00392478 1000 -0.002972592 -0.002857698 -0.003576821 -0.003751507 -0.00392478 1000
lala 13 1.2 0 second 2 1 226 5 5.099999 0.599997758865356 -1 0 -1 1 0.01991501 0.01779753 0.01691575 0.01626786 0.01575867 1000 0.01991501 0.01779753 0.01691575 0.01626786 0.01575867 1000 0.01525828 0.01296452 0.01346125 0.01572301 0.01497945 1000 0.01525828 0.01296452 0.01346125 0.01572301 0.01497945 1000
lala 13 1.2 1 second 6 1 227 4 2.04 0.299998044967651 1 0 1 1 0.01600202 0.01545923 0.01559755 0.01535389 0.01472757 1000 0.01600202 0.01545923 0.01559755 0.01535389 0.01472757 1000 0.01568287 0.01397352 0.01262898 0.01174267 0.01088539 1000 0.01568287 0.01397352 0.01262898 0.01174267 0.01088539 1000
lala 11 0.3 0 second 14 1 228 5 5.4 1.41999697685242 0 0 -1 1 0.01097062 0.01238539 0.01300251 0.01326932 0.01359734 1000 0.01097062 0.01238539 0.01300251 0.01326932 0.01359734 1000 0.01542459 0.01582238 0.01577193 0.01602784 0.01574665 1000 0.01542459 0.01582238 0.01577193 0.01602784 0.01574665 1000
lala 9 1.2 0 second 4 1 229 6 8.759999 0.599997758865356 -1 0 -1 1 -0.03111583 -0.03804402 -0.03979923 -0.04074737 -0.03494764 1000 -0.03111583 -0.03804402 -0.03979923 -0.04074737 -0.03494764 1000 -0.02246817 -0.02001727 -0.01690187 -0.01424953 -0.008499581 1000 -0.02246817 -0.02001727 -0.01690187 -0.01424953 -0.008499581 1000
lala 12 0.6 1 first 9 1 230 5 6.05 1.43999695777893 1 1 1 1 -0.01475769 -0.0165692 -0.02010257 1000 1000 1000 -0.01475769 -0.0165692 -0.02010257 1000 1000 1000 -0.01694172 -0.01688921 -0.01658389 -0.01598548 -0.01503586 1000 -0.01694172 -0.01688921 -0.01658389 -0.01598548 -0.01503586 1000
lala 15 0.3 0 second 16 1 231 6 5.459999 0.479997873306274 0 0 -1 1 -0.005623985 -0.004701644 -0.004580407 -0.004945416 -0.004711029 1000 -0.005623985 -0.004701644 -0.004580407 -0.004945416 -0.004711029 1000 -0.004305252 -0.004069127 -0.003974237 -0.00379448 -0.003291529 1000 -0.004305252 -0.004069127 -0.003974237 -0.00379448 -0.003291529 1000
lala 16 0.0375 1 second 12 1 232 4 5.2275 0.199998140335083 0 0 1 1 -0.001327601 -0.0007786849 -0.0005966864 -0.0003985648 -0.0002294588 1000 -0.001327601 -0.0007786849 -0.0005966864 -0.0003985648 -0.0002294588 1000 0.0006872318 0.0009563378 0.001200634 0.001469106 0.001583598 1000 0.0006872318 0.0009563378 0.001200634 0.001469106 0.001583598 1000
lala 8 1.2 0 second 10 1 233 6 5.58 0.159998178482056 1 0 -1 1 0.001108096 0.001660608 0.001703667 0.001865054 0.001499243 1000 0.001108096 0.001660608 0.001703667 0.001865054 0.001499243 1000 0.001668107 0.001713855 0.001808953 0.002037486 0.00246745 1000 0.001668107 0.001713855 0.001808953 0.002037486 0.00246745 1000
lala 11 0.3 0 second 1 1 234 4 7.42 0.01999831199646 -1 1 -1 1 0.00328807 0.003451322 0.00365942 0.0039312 0.004046133 1000 0.00328807 0.003451322 0.00365942 0.0039312 0.004046133 1000 0.004620112 0.00469473 0.004723773 0.004919245 0.00495659 1000 0.004620112 0.00469473 0.004723773 0.004919245 0.00495659 1000
lala 20 0.6 0 first 17 1 235 6 7.080001 0.319998025894165 0 1 -1 1 0.004436827 0.004656181 0.006059381 1000 1000 1000 0.004436827 0.004656181 0.006059381 1000 1000 1000 0.008874052 0.008679831 0.009008477 0.009378145 0.008804637 1000 0.008874052 0.008679831 0.009008477 0.009378145 0.008804637 1000
lala 11 0.3 0 second 15 1 236 5 3.95 0.379997968673706 0 1 -1 1 0.007066724 0.007125135 0.007833296 0.008172218 0.008473301 1000 0.007066724 0.007125135 0.007833296 0.008172218 0.008473301 1000 0.008277197 0.008278136 0.008593764 0.008448272 0.008548121 1000 0.008277197 0.008278136 0.008593764 0.008448272 0.008548121 1000
lala 12 0.3 1 first 11 1 237 6 6.480001 1.07999730110168 1 1 1 0 0.008349717 0.00842413 0.00836495 1000 1000 1000 0.008349717 0.00842413 0.00836495 1000 1000 1000 0.009084458 0.009168283 0.009305787 0.00947101 0.009837418 1000 0.009084458 0.009168283 0.009305787 0.00947101 0.009837418 1000
lala 9 1.2 1 second 10 1 238 6 6.78 0.479997873306274 1 0 1 1 0.01031011 0.0104363 0.01052294 0.01048285 0.0103838 1000 0.01031011 0.0104363 0.01052294 0.01048285 0.0103838 1000 0.01249777 0.0122793 0.01228063 0.0119275 0.01220909 1000 0.01249777 0.0122793 0.01228063 0.0119275 0.01220909 1000
lala 14 0.6 0 first 2 1 239 5 5.699999 6.26000833511353 -1 0 -1 1 0.01287989 0.01319215 0.0126399 1000 1000 1000 0.01287989 0.01319215 0.0126399 1000 1000 1000 0.008792639 0.009632342 0.01175332 0.01402628 0.01669698 1000 0.008792639 0.009632342 0.01175332 0.01402628 0.01669698 1000
lala 12 0.3 1 first 14 1 240 5 5.7 0.899997472763062 0 0 1 1 0.01678105 0.02639234 0.03150612 1000 1000 1000 0.01678105 0.02639234 0.03150612 1000 1000 1000 0.02377659 0.02378398 0.02370808 0.02397467 0.02417758 1000 0.02377659 0.02378398 0.02370808 0.02397467 0.02417758 1000
lala 21 0.075 0 first 7 1 241 4 4.645 1.69999694824219 1 1 -1 0 0.01458955 0.01627476 0.01441111 1000 1000 1000 0.01458955 0.01627476 0.01441111 1000 1000 1000 0.007350234 0.006777375 0.006593316 0.006859874 0.007308083 1000 0.007350234 0.006777375 0.006593316 0.006859874 0.007308083 1000
lala 10 2.4 1 second 4 1 242 6 11.16 0.279998064041138 -1 0 1 1 -0.006600574 -0.00607845 -0.004237468 -0.004115149 -0.004303026 1000 -0.006600574 -0.00607845 -0.004237468 -0.004115149 -0.004303026 1000 0.002393505 0.005563449 0.005339595 0.004835393 0.004585557 1000 0.002393505 0.005563449 0.005339595 0.004835393 0.004585557 1000
lala 10 0.6 0 first 0 1 243 4 5.64 0.699997663497925 -1 0 -1 1 0.007416254 0.007503852 0.007999039 1000 1000 1000 0.007416254 0.007503852 0.007999039 1000 1000 1000 0.008358043 0.008237751 0.008795066 0.008843175 0.008613671 1000 0.008358043 0.008237751 0.008795066 0.008843175 0.008613671 1000
lala 13 0.3 1 first 9 1 244 5 5.75 0.01999831199646 1 1 1 0 0.007066219 0.007174843 0.006258392 1000 1000 1000 0.007066219 0.007174843 0.006258392 1000 1000 1000 0.007594972 0.007823664 0.00799768 0.008164779 0.008383735 1000 0.007594972 0.007823664 0.00799768 0.008164779 0.008383735 1000
lala 16 0.15 0 first 16 1 245 6 5.609999 0.079998254776001 0 0 -1 0 0.008631654 0.008691567 0.008877668 1000 1000 1000 0.008631654 0.008691567 0.008877668 1000 1000 1000 0.009368232 0.009706682 0.00948978 0.00977481 0.01004626 1000 0.009368232 0.009706682 0.00948978 0.00977481 0.01004626 1000
lala 12 0.3 0 second 1 1 246 4 7.72 0.499997854232788 -1 1 -1 0 0.01005319 0.01014342 0.01055265 0.01093727 0.01069072 1000 0.01005319 0.01014342 0.01055265 0.01093727 0.01069072 1000 0.01077943 0.01107755 0.01161731 0.0113547 0.01134287 1000 0.01077943 0.01107755 0.01161731 0.0113547 0.01134287 1000
lala 18 0.075 0 second 3 1 247 5 6.575001 0.539997816085815 -1 1 -1 0 0.01088106 0.01119687 0.01174726 0.01196873 0.01198267 1000 0.01088106 0.01119687 0.01174726 0.01196873 0.01198267 1000 0.01275828 0.01290038 0.01306698 0.01309206 0.01313301 1000 0.01275828 0.01290038 0.01306698 0.01309206 0.01313301 1000
lala 11 1.2 1 second 4 1 248 6 9.96 0.379997968673706 -1 0 1 0 0.01447642 0.01445251 0.01428641 0.01420381 0.01450177 1000 0.01447642 0.01445251 0.01428641 0.01420381 0.01450177 1000 0.01595971 0.01642285 0.0163397 0.01627944 0.01612383 1000 0.01595971 0.01642285 0.0163397 0.01627944 0.01612383 1000
lala 13 0.15 1 second 11 1 249 6 6.330001 0.319998025894165 1 1 1 1 0.01431645 0.01414321 0.01418055 0.01450514 0.01448717 1000 0.01431645 0.01414321 0.01418055 0.01450514 0.01448717 1000 0.01629071 0.01597219 0.0163121 0.01573354 0.01532208 1000 0.01629071 0.01597219 0.0163121 0.01573354 0.01532208 1000
lala 14 2.4 0 first 6 1 250 4 1.32 0.319998025894165 1 0 -1 1 -0.02009447 -0.01715084 -0.01264861 -0.01182321 -0.01188654 -0.01182531 -0.02009447 -0.01715084 -0.01264861 -0.01182321 -0.01188654 -0.01182531 -0.001325662 0.0008876023 0.003042245 0.003761298 0.004158403 1000 -0.001325662 0.0008876023 0.003042245 0.003761298 0.004158403 1000
lala 17 1.2 0 first 8 1 251 5 2.85 1.21999716758728 1 0 -1 0 0.01459188 0.01557449 0.01584814 1000 1000 1000 0.01459188 0.01557449 0.01584814 1000 1000 1000 -0.02787217 -0.02672767 -0.02642957 -0.02599185 -0.02634636 1000 -0.02787217 -0.02672767 -0.02642957 -0.02599185 -0.02634636 1000
lala 11 0.6 1 first 0 1 252 4 6.24 0.359997987747192 -1 0 1 0 -0.01283494 -0.01277404 -0.0128336 1000 1000 1000 -0.01283494 -0.01277404 -0.0128336 1000 1000 1000 -0.01526028 -0.01483053 -0.01451399 -0.01378194 -0.01314893 1000 -0.01526028 -0.01483053 -0.01451399 -0.01378194 -0.01314893 1000
lala 13 0.15 0 first 14 1 253 5 5.55 0.299998044967651 0 0 -1 1 -0.01339079 -0.01346161 -0.01338452 1000 1000 1000 -0.01339079 -0.01346161 -0.01338452 1000 1000 1000 -0.01393133 -0.01367141 -0.01343438 -0.01346133 -0.01387011 1000 -0.01393133 -0.01367141 -0.01343438 -0.01346133 -0.01387011 1000
lala 19 0.075 0 second 3 1 254 5 6.650001 0.259998083114624 -1 1 -1 0 -0.01276086 -0.01201473 -0.0114613 -0.01106342 -0.01161818 1000 -0.01276086 -0.01201473 -0.0114613 -0.01106342 -0.01161818 1000 -0.01136197 -0.01110832 -0.01111869 -0.01144325 -0.01150625 1000 -0.01136197 -0.01110832 -0.01111869 -0.01144325 -0.01150625 1000
lala 22 0.075 0 second 7 1 255 4 4.719999 0.519997835159302 1 1 -1 1 -0.009474636 -0.009480498 -0.009799356 -0.009627796 -0.009026188 1000 -0.009474636 -0.009480498 -0.009799356 -0.009627796 -0.009026188 1000 -0.007755609 -0.008067708 -0.008327122 -0.007717887 -0.007511917 1000 -0.007755609 -0.008067708 -0.008327122 -0.007717887 -0.007511917 1000
lala 20 0.075 1 second 3 1 256 5 6.725 0.23999810218811 -1 1 1 0 -0.008014613 -0.007484737 -0.007702558 -0.006954147 -0.006837242 1000 -0.008014613 -0.007484737 -0.007702558 -0.006954147 -0.006837242 1000 -0.007363671 -0.007392456 -0.007487341 -0.007649455 -0.007935761 1000 -0.007363671 -0.007392456 -0.007487341 -0.007649455 -0.007935761 1000
lala 17 0.15 0 first 16 1 257 6 5.759999 0.659997701644897 0 0 -1 1 -0.008443574 -0.008189999 -0.007843157 1000 1000 1000 -0.008443574 -0.008189999 -0.007843157 1000 1000 1000 -0.008462551 -0.008916587 -0.009279396 -0.009247626 -0.009367115 1000 -0.008462551 -0.008916587 -0.009279396 -0.009247626 -0.009367115 1000
lala 15 0.6 1 second 2 1 258 5 6.299999 0.859997510910034 -1 0 1 0 -0.01191687 -0.01190451 -0.01321229 -0.01417669 -0.01445752 1000 -0.01191687 -0.01190451 -0.01321229 -0.01417669 -0.01445752 1000 -0.03455473 -0.03233028 -0.02658014 -0.0186801 -0.01356627 1000 -0.03455473 -0.03233028 -0.02658014 -0.0186801 -0.01356627 1000
lala 12 0.3 0 first 0 1 259 4 5.94 0.459997892379761 -1 0 -1 1 -0.0237317 -0.02152352 -0.02095745 1000 1000 1000 -0.0237317 -0.02152352 -0.02095745 1000 1000 1000 -0.03073369 -0.03151169 -0.03298537 -0.03295796 -0.03359292 1000 -0.03073369 -0.03151169 -0.03298537 -0.03295796 -0.03359292 1000
lala 21 0.6 1 second 17 1 260 6 7.680001 0.23999810218811 0 1 1 1 -0.009876603 -0.0114855 -0.01138458 -0.01057058 -0.01002687 1000 -0.009876603 -0.0114855 -0.01138458 -0.01057058 -0.01002687 1000 -0.01065149 -0.01008694 -0.009906079 -0.01004358 -0.01062052 1000 -0.01065149 -0.01008694 -0.009906079 -0.01004358 -0.01062052 1000
lala 17 0.0375 0 second 12 1 261 4 5.190001 0.01999831199646 0 0 -1 0 -0.01602441 -0.01635221 -0.01678384 -0.01619253 -0.01570903 1000 -0.01602441 -0.01635221 -0.01678384 -0.01619253 -0.01570903 1000 -0.01397117 -0.01404062 -0.01316424 -0.01266729 -0.01261894 1000 -0.01397117 -0.01404062 -0.01316424 -0.01266729 -0.01261894 1000
lala 14 0.3 1 second 9 1 262 5 5.449999 0.01999831199646 1 1 1 1 -0.01135102 -0.01135863 -0.01133877 -0.01118206 -0.01069665 1000 -0.01135102 -0.01135863 -0.01133877 -0.01118206 -0.01069665 1000 -0.01082232 -0.00995576 -0.009903612 -0.01051572 -0.01077608 1000 -0.01082232 -0.00995576 -0.009903612 -0.01051572 -0.01077608 1000
lala 18 0.6 0 first 8 1 263 5 3.45 0.199998140335083 1 0 -1 0 -0.01565166 -0.01669122 -0.01634357 1000 1000 1000 -0.01565166 -0.01669122 -0.01634357 1000 1000 1000 -0.009648861 -0.01027233 -0.0107245 -0.01034622 -0.009615744 1000 -0.009648861 -0.01027233 -0.0107245 -0.01034622 -0.009615744 1000
lala 12 0.3 0 first 15 1 264 5 4.25 0.01999831199646 0 1 -1 1 -0.009761306 -0.009834716 -0.009516861 1000 1000 1000 -0.009761306 -0.009834716 -0.009516861 1000 1000 1000 -0.01012949 -0.009737202 -0.01009164 -0.009752053 -0.009733189 1000 -0.01012949 -0.009737202 -0.01009164 -0.009752053 -0.009733189 1000
lala 22 0.3 1 first 17 1 265 6 7.380001 0.0999982357025146 0 1 1 0 -0.009412769 -0.009544799 -0.009725391 1000 1000 1000 -0.009412769 -0.009544799 -0.009725391 1000 1000 1000 -0.009158542 -0.00870971 -0.008472322 -0.00858226 -0.008667696 1000 -0.009158542 -0.00870971 -0.008472322 -0.00858226 -0.008667696 1000
lala 23 0.075 0 first 7 1 266 4 4.794999 0.479997873306274 1 1 -1 1 -0.009725126 -0.009888144 -0.009708173 1000 1000 1000 -0.009725126 -0.009888144 -0.009708173 1000 1000 1000 -0.007275061 -0.007441941 -0.007555595 -0.007485977 -0.007633511 1000 -0.007275061 -0.007441941 -0.007555595 -0.007485977 -0.007633511 1000
lala 15 0.3 0 first 9 1 267 5 5.149999 0.879997491836548 1 1 -1 1 -0.007700903 -0.007269251 -0.00724795 1000 1000 1000 -0.007700903 -0.007269251 -0.00724795 1000 1000 1000 -0.009871826 -0.009152949 -0.009705692 -0.00943034 -0.009485723 1000 -0.009871826 -0.009152949 -0.009705692 -0.00943034 -0.009485723 1000
lala 24 0.15 1 first 7 1 268 4 4.944999 0.419997930526733 1 1 1 0 -0.007325552 -0.005609336 -0.005799906 1000 1000 1000 -0.007325552 -0.005609336 -0.005799906 1000 1000 1000 -0.03482424 -0.03483436 -0.03231924 -0.02961494 -0.02652231 1000 -0.03482424 -0.03483436 -0.03231924 -0.02961494 -0.02652231 1000
lala 13 0.15 1 second 0 1 269 4 6.09 0.339998006820679 -1 0 1 0 -0.01509446 -0.01463085 -0.01396559 -0.01282037 -0.0130918 1000 -0.01509446 -0.01463085 -0.01396559 -0.01282037 -0.0130918 1000 -0.0137325 -0.01378557 -0.01368047 -0.01330613 -0.0130655 1000 -0.0137325 -0.01378557 -0.01368047 -0.01330613 -0.0130655 1000
lala 19 0.6 0 second 8 1 270 5 4.05 0.679997682571411 1 0 -1 1 -0.01474782 -0.01482151 -0.01482483 -0.01465101 -0.01464036 1000 -0.01474782 -0.01482151 -0.01482483 -0.01465101 -0.01464036 1000 -0.01315541 -0.01350908 -0.01403942 -0.01380808 -0.01342549 1000 -0.01315541 -0.01350908 -0.01403942 -0.01380808 -0.01342549 1000
lala 23 0.3 1 second 17 1 271 6 7.08 0.339998006820679 0 1 1 0 -0.01062844 -0.01117139 -0.01137682 -0.0114287 -0.01144421 1000 -0.01062844 -0.01117139 -0.01137682 -0.0114287 -0.01144421 1000 -0.01115006 -0.01051855 -0.01041326 -0.01074603 -0.01090807 1000 -0.01115006 -0.01051855 -0.01041326 -0.01074603 -0.01090807 1000
lala 21 0.0375 0 first 3 1 272 5 6.6875 0.39999794960022 -1 1 -1 0 -0.01217287 -0.0134205 -0.01367433 1000 1000 1000 -0.01217287 -0.0134205 -0.01367433 1000 1000 1000 -0.02670216 -0.02558775 -0.02413324 -0.02314148 -0.02255455 1000 -0.02670216 -0.02558775 -0.02413324 -0.02314148 -0.02255455 1000
lala 12 1.2 0 first 4 1 273 6 8.76 0.61999773979187 -1 0 -1 1 -0.01663158 -0.01609435 -0.01604747 1000 1000 1000 -0.01663158 -0.01609435 -0.01604747 1000 1000 1000 -0.01605334 -0.01613966 -0.01608054 -0.01600494 -0.01611667 1000 -0.01605334 -0.01613966 -0.01608054 -0.01600494 -0.01611667 1000
lala 18 0.15 1 second 16 1 274 6 5.909999 0.179998159408569 0 0 1 1 -0.01562077 -0.01536446 -0.01558051 -0.01532157 -0.01532536 1000 -0.01562077 -0.01536446 -0.01558051 -0.01532157 -0.01532536 1000 -0.01442903 -0.01512129 -0.01533455 -0.01531555 -0.01554846 1000 -0.01442903 -0.01512129 -0.01533455 -0.01531555 -0.01554846 1000
lala 16 0.15 0 second 9 1 275 5 5.299999 0.219998121261597 1 1 -1 0 -0.01585711 -0.01585362 -0.01609777 -0.01588323 -0.01573125 1000 -0.01585711 -0.01585362 -0.01609777 -0.01588323 -0.01573125 1000 -0.01510092 -0.01445031 -0.01429798 -0.01434183 -0.01452619 1000 -0.01510092 -0.01445031 -0.01429798 -0.01434183 -0.01452619 1000
lala 10 0.6 0 second 10 1 276 6 6.18 4.59999418258667 1 0 -1 0 -0.005006423 -0.003547827 -0.002949373 -0.005451294 0.004797007 1000 -0.005006423 -0.003547827 -0.002949373 -0.005451294 0.004797007 1000 0.01362407 0.01448292 0.01580655 0.01182597 0.01584394 1000 0.01362407 0.01448292 0.01580655 0.01182597 0.01584394 1000
lala 19 0.075 1 second 16 1 277 6 5.835 0.499997854232788 0 0 1 0 -0.01636737 -0.01763287 -0.01886859 -0.01931441 -0.01856002 1000 -0.01636737 -0.01763287 -0.01886859 -0.01931441 -0.01856002 1000 -0.02166035 -0.02121822 -0.02093159 -0.02104735 -0.02160658 1000 -0.02166035 -0.02121822 -0.02093159 -0.02104735 -0.02160658 1000
lala 13 0.6 0 second 4 1 278 6 9.360001 0.01999831199646 -1 0 -1 1 -0.02458589 -0.02501456 -0.02473642 -0.02268024 -0.02186067 1000 -0.02458589 -0.02501456 -0.02473642 -0.02268024 -0.02186067 1000 -0.02332607 -0.02295259 -0.02306307 -0.02291174 -0.02304999 1000 -0.02332607 -0.02295259 -0.02306307 -0.02291174 -0.02304999 1000
lala 9 1.2 0 second 13 1 279 4 5.32 0.599997758865356 0 1 -1 0 -0.02615105 -0.02727771 -0.02691546 -0.02659067 -0.0268613 1000 -0.02615105 -0.02727771 -0.02691546 -0.02659067 -0.0268613 1000 -0.02206865 -0.02128574 -0.02059506 -0.02042779 -0.02020147 1000 -0.02206865 -0.02128574 -0.02059506 -0.02042779 -0.02020147 1000
lala 22 0.01875 0 first 3 1 280 5 6.706251 0.299998044967651 -1 1 -1 0 -0.01832171 -0.01898708 -0.01977122 1000 1000 1000 -0.01832171 -0.01898708 -0.01977122 1000 1000 1000 -0.02804303 -0.02799218 -0.02655704 -0.02601102 -0.02648909 1000 -0.02804303 -0.02799218 -0.02655704 -0.02601102 -0.02648909 1000
lala 14 0.6 1 second 4 1 281 6 9.960001 0.319998025894165 -1 0 1 0 -0.008665873 -0.006585226 -0.008648794 -0.01063474 -0.01108184 1000 -0.008665873 -0.006585226 -0.008648794 -0.01063474 -0.01108184 1000 -0.01322595 -0.0134304 -0.01282064 -0.01275047 -0.01274546 1000 -0.01322595 -0.0134304 -0.01282064 -0.01275047 -0.01274546 1000
lala 10 0.6 0 second 13 1 282 4 5.92 0.359997987747192 0 1 -1 1 -0.01141958 -0.01128425 -0.01009675 -0.009574265 -0.009632764 1000 -0.01141958 -0.01128425 -0.01009675 -0.009574265 -0.009632764 1000 -0.009783263 -0.01001822 -0.0100597 -0.009966206 -0.01054791 1000 -0.009783263 -0.01001822 -0.0100597 -0.009966206 -0.01054791 1000
lala 15 0.3 0 second 4 1 283 6 9.660001 0.01999831199646 -1 0 -1 0 -0.01359724 -0.0137428 -0.01321562 -0.01391345 -0.01272507 1000 -0.01359724 -0.0137428 -0.01321562 -0.01391345 -0.01272507 1000 -0.01371735 -0.01295611 -0.01394501 -0.0154172 -0.01534836 1000 -0.01371735 -0.01295611 -0.01394501 -0.0154172 -0.01534836 1000
lala 15 1.2 1 first 6 1 284 4 2.52 0.339998006820679 1 0 1 0 -0.01592771 -0.01743803 -0.01734321 1000 1000 1000 -0.01592771 -0.01743803 -0.01734321 1000 1000 1000 -0.0170802 -0.01652627 -0.01604309 -0.01621749 -0.01642644 1000 -0.0170802 -0.01652627 -0.01604309 -0.01621749 -0.01642644 1000
lala 16 0.15 0 first 4 1 285 6 9.81 0.39999794960022 -1 0 -1 0 -0.01757727 -0.01726831 -0.01730679 1000 1000 1000 -0.01757727 -0.01726831 -0.01730679 1000 1000 1000 -0.01729464 -0.01738992 -0.01702453 -0.01678678 -0.01660991 1000 -0.01729464 -0.01738992 -0.01702453 -0.01678678 -0.01660991 1000
lala 23 0.01875 0 first 3 1 286 5 6.725001 0.23999810218811 -1 1 -1 0 -0.01751445 -0.01707797 -0.01748715 1000 1000 1000 -0.01751445 -0.01707797 -0.01748715 1000 1000 1000 -0.01783639 -0.01738873 -0.01726064 -0.01750315 -0.01749022 1000 -0.01783639 -0.01738873 -0.01726064 -0.01750315 -0.01749022 1000
lala 17 0.0375 0 first 5 1 287 6 7.23 0.0599982738494873 -1 1 -1 0 -0.01868314 -0.01822712 -0.01829703 1000 1000 1000 -0.01868314 -0.01822712 -0.01829703 1000 1000 1000 -0.0170799 -0.01738027 -0.01780211 -0.01782257 -0.01731646 1000 -0.0170799 -0.01738027 -0.01780211 -0.01782257 -0.01731646 1000
lala 20 0.6 0 first 8 1 288 5 4.65 0.179998159408569 1 0 -1 0 -0.01909919 -0.01865701 -0.01943142 1000 1000 1000 -0.01909919 -0.01865701 -0.01943142 1000 1000 1000 -0.02014767 -0.01991903 -0.01992799 -0.01901125 -0.01855143 1000 -0.02014767 -0.01991903 -0.01992799 -0.01901125 -0.01855143 1000
lala 20 0.075 1 second 16 1 289 6 5.76 0.0599982738494873 0 0 1 1 -0.01822934 -0.01747679 -0.01747102 -0.01800799 -0.01783389 1000 -0.01822934 -0.01747679 -0.01747102 -0.01800799 -0.01783389 1000 -0.01794572 -0.01807801 -0.01804866 -0.01737118 -0.01713895 1000 -0.01794572 -0.01807801 -0.01804866 -0.01737118 -0.01713895 1000
lala 21 1.2 1 second 8 1 290 5 5.85 0.379997968673706 1 0 1 1 -0.01718938 -0.01700276 -0.01677412 -0.0158396 -0.01583134 1000 -0.01718938 -0.01700276 -0.01677412 -0.0158396 -0.01583134 1000 -0.02077605 -0.02005838 -0.02052403 -0.02257339 -0.02477262 1000 -0.02077605 -0.02005838 -0.02052403 -0.02257339 -0.02477262 1000
lala 16 0.6 0 second 6 1 291 4 1.92 1.17999720573425 1 0 -1 0 -0.01571053 -0.01906463 -0.01954124 -0.02429976 -0.0300153 1000 -0.01571053 -0.01906463 -0.01954124 -0.02429976 -0.0300153 1000 -0.02391088 -0.01910171 -0.01306234 -0.008163008 -0.007369026 1000 -0.02391088 -0.01910171 -0.01306234 -0.008163008 -0.007369026 1000
lala 18 0.0375 0 first 5 1 292 6 7.2675 1.41999697685242 -1 1 -1 0 -0.01582035 -0.01340684 -0.01135399 1000 1000 1000 -0.01582035 -0.01340684 -0.01135399 1000 1000 1000 -0.0176863 -0.0183006 -0.01874278 -0.01876554 -0.02166608 1000 -0.0176863 -0.0183006 -0.01874278 -0.01876554 -0.02166608 1000
lala 14 0.15 1 first 11 1 293 6 6.180001 0.519997835159302 1 1 1 1 -0.01981765 -0.01902936 -0.01855011 1000 1000 1000 -0.01981765 -0.01902936 -0.01855011 1000 1000 1000 -0.01418684 -0.01378929 -0.01317541 -0.0133669 -0.01302455 1000 -0.01418684 -0.01378929 -0.01317541 -0.0133669 -0.01302455 1000
lala 13 0.3 0 second 15 1 294 5 4.55 0.99999737739563 0 1 -1 0 -0.01794757 -0.01880256 -0.02012078 -0.01956453 -0.017956 1000 -0.01794757 -0.01880256 -0.02012078 -0.01956453 -0.017956 1000 -0.05547889 -0.05198156 -0.04250608 -0.03908669 -0.0427581 1000 -0.05547889 -0.05198156 -0.04250608 -0.03908669 -0.0427581 1000
lala 25 0.075 1 second 7 1 295 4 4.869999 0.579997777938843 1 1 1 1 -0.01987666 -0.02301606 -0.02163279 -0.01879912 -0.01634392 1000 -0.01987666 -0.02301606 -0.02163279 -0.01879912 -0.01634392 1000 -0.01581566 -0.01546876 -0.01534474 -0.01510323 -0.01491312 1000 -0.01581566 -0.01546876 -0.01534474 -0.01510323 -0.01491312 1000
lala 17 0.15 0 second 9 1 296 5 5.449999 0.959997415542603 1 1 -1 0 -0.01589816 -0.01607121 -0.0161157 -0.01559587 -0.0155467 1000 -0.01589816 -0.01607121 -0.0161157 -0.01559587 -0.0155467 1000 -0.0198335 -0.01969401 -0.01925425 -0.01904256 -0.01903272 1000 -0.0198335 -0.01969401 -0.01925425 -0.01904256 -0.01903272 1000
lala 22 0.6 0 second 8 1 297 5 5.25 0.759997606277466 1 0 -1 1 -0.01856793 -0.01857142 -0.01871598 -0.0186358 -0.0185323 1000 -0.01856793 -0.01857142 -0.01871598 -0.0186358 -0.0185323 1000 -0.01942638 -0.01959628 -0.01940508 -0.01905148 -0.01883083 1000 -0.01942638 -0.01959628 -0.01940508 -0.01905148 -0.01883083 1000
lala 19 0.075 0 first 5 1 298 6 7.3425 1.19999718666077 -1 1 -1 1 -0.01834426 -0.01792666 -0.01783225 1000 1000 1000 -0.01834426 -0.01792666 -0.01783225 1000 1000 1000 -0.01829771 -0.01776567 -0.01770059 -0.01786059 -0.01780825 1000 -0.01829771 -0.01776567 -0.01770059 -0.01786059 -0.01780825 1000
lala 16 0.3 0 second 2 1 299 5 5.999999 1.17999720573425 -1 0 -1 0 -0.01603162 -0.01595741 -0.01547321 -0.01515764 -0.01529558 1000 -0.01603162 -0.01595741 -0.01547321 -0.01515764 -0.01529558 1000 -0.01379106 -0.01414586 -0.01415965 -0.01434305 -0.01436184 1000 -0.01379106 -0.01414586 -0.01415965 -0.01434305 -0.01436184 1000
lala 20 0.15 1 second 5 1 300 6 7.4925 0.419997930526733 -1 1 1 0 0.01223746 0.01488285 0.01510872 0.01361893 0.01257773 1000 0.01223746 0.01488285 0.01510872 0.01361893 0.01257773 1000 0.01018457 0.01025904 0.01058284 0.01038543 0.01029049 1000 0.01018457 0.01025904 0.01058284 0.01038543 0.01029049 1000
lala 17 0.15 0 second 2 1 301 5 6.149999 9.06007242202759 -1 0 -1 0 0.006653861 0.005890351 0.005660312 0.006132062 0.006240449 1000 0.006653861 0.005890351 0.005660312 0.006132062 0.006240449 1000 0.00684834 0.004338757 0.001446205 0.000603001 0.001198989 1000 0.00684834 0.004338757 0.001446205 0.000603001 0.001198989 1000
lala 18 0.15 0 second 2 1 302 5 6.299999 0.919997453689575 -1 0 -1 1 0.0172328 0.01409528 0.01032206 0.007741838 0.003706774 1000 0.0172328 0.01409528 0.01032206 0.007741838 0.003706774 1000 -0.003850421 -0.003969436 -0.003935041 -0.004091087 -0.004012278 1000 -0.003850421 -0.003969436 -0.003935041 -0.004091087 -0.004012278 1000
lala 11 0.3 0 second 10 1 303 6 6.48 1.01999735832214 1 0 -1 1 0.02455714 0.02409618 0.02212046 0.01901073 0.01510192 1000 0.02455714 0.02409618 0.02212046 0.01901073 0.01510192 1000 0.008332931 0.008564564 0.009025361 0.009051217 0.008535814 1000 0.008332931 0.008564564 0.009025361 0.009051217 0.008535814 1000
lala 21 0.075 0 second 16 1 304 6 5.685 0.519997835159302 0 0 -1 1 0.00482166 0.004107954 0.003849134 0.004262744 0.004603855 1000 0.00482166 0.004107954 0.003849134 0.004262744 0.004603855 1000 0.004189485 0.004156855 0.003841706 0.003409449 0.003311884 1000 0.004189485 0.004156855 0.003841706 0.003409449 0.003311884 1000
lala 15 0.15 1 second 11 1 305 6 6.030001 0.639997720718384 1 1 1 1 0.01637477 0.01763174 0.01469936 0.0123567 0.0101183 1000 0.01637477 0.01763174 0.01469936 0.0123567 0.0101183 1000 -0.002123801 -4.886949E-05 0.001396161 -0.0003836676 -0.001547165 1000 -0.002123801 -4.886949E-05 0.001396161 -0.0003836676 -0.001547165 1000
lala 18 0.15 0 first 9 1 306 5 5.599999 0.379997968673706 1 1 -1 1 -0.01462535 0.0001889139 0.009430138 1000 1000 1000 -0.01462535 0.0001889139 0.009430138 1000 1000 1000 -0.02428941 -0.02435666 -0.02411252 -0.0260647 -0.02909767 1000 -0.02428941 -0.02435666 -0.02411252 -0.0260647 -0.02909767 1000
lala 14 0.6 0 first 15 1 307 5 5.15 0.359997987747192 0 1 -1 0 -0.02401221 -0.02421723 -0.02579145 1000 1000 1000 -0.02401221 -0.02421723 -0.02579145 1000 1000 1000 -0.0294257 -0.02851337 -0.02698607 -0.02518168 -0.02227331 1000 -0.0294257 -0.02851337 -0.02698607 -0.02518168 -0.02227331 1000
lala 12 0.3 1 first 10 1 308 6 6.78 0.01999831199646 1 0 1 1 -0.01577769 -0.002312978 -0.0004717753 1000 1000 1000 -0.01577769 -0.002312978 -0.0004717753 1000 1000 1000 -0.007728682 -0.00673089 -0.006378388 -0.005552437 -0.005067715 1000 -0.007728682 -0.00673089 -0.006378388 -0.005552437 -0.005067715 1000
lala 19 0.15 0 second 2 1 309 5 6.449999 0.0399982929229736 -1 0 -1 0 -0.006761387 -0.006567325 -0.005520884 -0.004943376 -0.00504854 1000 -0.006761387 -0.006567325 -0.005520884 -0.004943376 -0.00504854 1000 -0.008086787 -0.008216897 -0.008387793 -0.008931648 -0.009460017 1000 -0.008086787 -0.008216897 -0.008387793 -0.008931648 -0.009460017 1000
lala 24 0.01875 0 first 3 1 310 5 6.743751 0.219998121261597 -1 1 -1 0 -0.01039141 -0.01038827 -0.01078544 1000 1000 1000 -0.01039141 -0.01038827 -0.01078544 1000 1000 1000 -0.01046061 -0.010736 -0.0113972 -0.01180631 -0.01153476 1000 -0.01046061 -0.010736 -0.0113972 -0.01180631 -0.01153476 1000
lala 16 0.3 1 first 11 1 311 6 5.73 0.599997758865356 1 1 1 1 -0.01155014 -0.01173079 -0.01147722 1000 1000 1000 -0.01155014 -0.01173079 -0.01147722 1000 1000 1000 -0.01228167 -0.01259964 -0.01230736 -0.01172104 -0.01190847 1000 -0.01228167 -0.01259964 -0.01230736 -0.01172104 -0.01190847 1000
lala 24 0.3 0 first 17 1 312 6 6.78 0.899997472763062 0 1 -1 0 -0.005898451 -0.004855175 -0.002161425 1000 1000 1000 -0.005898451 -0.004855175 -0.002161425 1000 1000 1000 0.01334604 0.01537203 0.01646044 0.01934954 0.02229785 1000 0.01334604 0.01537203 0.01646044 0.01934954 0.02229785 1000
lala 25 0.15 1 first 17 1 313 6 6.93 0.159998178482056 0 1 1 0 0.004339851 0.003736635 0.002976925 1000 1000 1000 0.004339851 0.003736635 0.002976925 1000 1000 1000 -0.004129302 -0.004511305 -0.004667697 -0.004005694 -0.002897294 1000 -0.004129302 -0.004511305 -0.004667697 -0.004005694 -0.002897294 1000
lala 14 0.075 0 second 14 1 314 5 5.625 0.319998025894165 0 0 -1 1 -0.003522006 -0.003268164 -0.003250665 -0.003603423 -0.003365773 1000 -0.003522006 -0.003268164 -0.003250665 -0.003603423 -0.003365773 1000 -0.004578799 -0.004308387 -0.003978408 -0.003516355 -0.00277924 1000 -0.004578799 -0.004308387 -0.003978408 -0.003516355 -0.00277924 1000
lala 17 0.6 0 second 11 1 315 6 5.130001 0.359997987747192 1 1 -1 0 -0.005910352 -0.005809272 -0.006403956 -0.005721989 -0.004349994 1000 -0.005910352 -0.005809272 -0.006403956 -0.005721989 -0.004349994 1000 -0.004912283 -0.005286228 -0.005443979 -0.005518676 -0.00588351 1000 -0.004912283 -0.005286228 -0.005443979 -0.005518676 -0.00588351 1000
lala 13 0.15 0 second 10 1 316 6 6.63 2.13999652862549 1 0 -1 0 -0.00468117 -0.004686744 -0.004516726 -0.004668104 -0.005256449 1000 -0.00468117 -0.004686744 -0.004516726 -0.004668104 -0.005256449 1000 -0.006011185 -0.005594372 -0.004419985 -0.004290259 -0.004470394 1000 -0.006011185 -0.005594372 -0.004419985 -0.004290259 -0.004470394 1000
lala 14 0.075 0 first 10 1 317 6 6.705 1.97999668121338 1 0 -1 1 -0.0049659 -0.006000832 -0.006265665 1000 1000 1000 -0.0049659 -0.006000832 -0.006265665 1000 1000 1000 -0.004845924 -0.004910993 -0.003995348 -0.003706507 -0.003995842 1000 -0.004845924 -0.004910993 -0.003995348 -0.003706507 -0.003995842 1000
