subject PestNr Step_Size_OnTrial Pest_Faster Pest_Interval Condition block trial velH velH_Pest Reaction_Time velH_Subject Start_Above Response_MotionEstimation RightOrLeftxRotations_first0 xRotations_first1 xRotations_first2 xRotations_first3 xRotations_first4 xRotations_first5 yRotations_first0 yRotations_first1 yRotations_first2 yRotations_first3 yRotations_first4 yRotations_first5 xRotations_second0 xRotations_second1 xRotations_second2 xRotations_second3 xRotations_second4 xRotations_second5 yRotations_second0 yRotations_second1 yRotations_second2 yRotations_second3 yRotations_second4 yRotations_second5
lala 1 1.2 1 first 0 1 1 3 3.99 1.17999720573425 0 1 1 0 -0.0263152 -0.02875249 -0.03066794 -0.030478 -0.03181499 1000 0.001915124 0.0003619556 -0.0003247378 -0.000449553 -0.001212953 1000 -0.0386292 -0.03580934 -0.03436771 -0.03410973 -0.03434041 1000 0.0009503186 -0.0005607565 -0.03436771 0.001767874 8.18836E-05 1000
lala 2 1.2 1 second 0 1 2 3 2.79 0.519997835159302 0 1 1 1 -0.0005157035 -0.003829877 -0.005833686 -0.006076961 -0.006423329 1000 -0.003290678 -0.003603772 -0.003064489 -0.002479122 -0.002489752 1000 -0.01008845 -0.009556506 -0.009165409 -0.00972275 -0.0103294 1000 -0.001473477 -0.0008687549 -0.009165409 -0.002184919 -0.001717983 1000
lala 3 1.2 1 first 0 1 3 3 1.59 0.259998083114624 0 1 1 1 -0.01034099 -0.01048846 -0.01203573 -0.01189748 -0.01110169 1000 -0.001631408 -0.002620883 -0.002385187 -0.002122461 -0.00171882 1000 -0.01091306 -0.01073277 -0.01075223 -0.01060162 -0.0105362 1000 -0.001645403 -0.001272776 -0.01075223 -0.001279146 -0.0009227047 1000
lala 4 1.2 1 second 0 1 4 3 0.99 1.79999685287476 0 1 1 0 -0.01050117 -0.01057669 -0.01040106 -0.009844126 -0.009901553 1000 -0.002773721 -0.001368097 -0.001474356 -0.002026138 -0.001826088 1000 -0.01113928 -0.01151742 -0.01155305 -0.01148911 -0.01220967 1000 -0.001171504 -0.0005907785 -0.01155305 -0.000855193 -0.001764507 1000
lala 5 2.4 0 second 0 1 5 3 0.99 0.439997911453247 0 1 -1 0 -0.01438595 -0.01525878 -0.01581647 -0.01549273 -0.01635612 1000 -0.007802413 -0.008394133 -0.008573422 -0.009865749 -0.01097662 1000 -0.01820631 -0.01908118 -0.01833537 -0.01727853 -0.01817125 1000 -0.01267483 -0.0120425 -0.01833537 -0.01152388 -0.01128269 1000
lala 6 1.2 0 second 0 1 6 3 2.19 0.419997930526733 0 1 -1 1 -0.01653195 -0.01590164 -0.01591973 -0.01582542 -0.01639945 1000 -0.01102341 -0.0105776 -0.01090217 -0.01090097 -0.00951972 1000 -0.01808135 -0.0179044 -0.01878253 -0.01859308 -0.01837499 1000 -0.006530473 -0.007097671 -0.01878253 -0.00652961 -0.006199774 1000
lala 7 1.2 1 first 0 1 7 3 3.39 0.519997835159302 0 1 1 1 -0.01598504 -0.0159228 -0.01628611 -0.01580067 -0.01553772 1000 -0.003357224 -0.004015494 -0.004252517 -0.004215114 -0.003679168 1000 -0.01641481 -0.0165938 -0.01653437 -0.0164747 -0.01559763 1000 -0.001820581 -0.001957262 -0.01653437 -0.001589005 -0.002121615 1000
lala 8 0.6 1 second 0 1 8 3 2.79 0.539997816085815 0 1 1 1 -0.01531607 -0.0154403 -0.01581432 -0.0159973 -0.01669453 1000 -0.003684952 -0.0026315 -0.001701072 -0.002970395 -0.003073053 1000 -0.0170691 -0.01670381 -0.01629244 -0.01647254 -0.01697098 1000 -0.001089667 -0.0005337267 -0.01629244 -0.0005383475 -0.0003444037 1000
lala 9 0.6 1 second 0 1 9 3 2.19 0.499997854232788 0 1 1 1 -0.0147486 -0.01549315 -0.01572884 -0.01565247 -0.01613239 1000 0.0004246267 0.0004181115 0.000892061 0.0004156615 -0.0001321556 1000 -0.01520955 -0.01486308 -0.01469277 -0.01457381 -0.01476164 1000 7.71116E-05 0.0009552289 -0.01469277 0.001419035 0.00135531 1000
lala 10 0.6 0 first 0 1 10 3 1.59 0.279998064041138 0 1 -1 1 -0.01197517 -0.01179278 -0.01216891 -0.01180225 -0.01104368 1000 0.005507037 0.003386915 0.003280404 0.004796262 0.00563863 1000 -0.01144201 -0.01123224 -0.01188467 -0.01212838 -0.01191193 1000 0.008707521 0.008636276 -0.01188467 0.009941265 0.009951936 1000
lala 11 0.3 0 second 0 1 11 3 1.89 0.459997892379761 0 1 -1 1 -0.007915601 -0.008110787 -0.008472745 -0.008360002 -0.007843526 1000 0.01085822 0.01078572 0.01067192 0.01168249 0.01292542 1000 -0.008073417 -0.00878397 -0.009713935 -0.01021374 -0.00993111 1000 0.01396361 0.0129569 -0.009713935 0.01356089 0.01362837 1000
lala 12 0.3 1 second 0 1 12 3 2.19 0.579997777938843 0 1 1 1 -0.009355253 -0.009248687 -0.009094664 -0.008915253 -0.008786269 1000 0.01173782 0.01317439 0.01389778 0.01344721 0.01463543 1000 -0.01084431 -0.01140237 -0.01148365 -0.0122695 -0.01289915 1000 0.01402777 0.01475354 -0.01148365 0.01335141 0.01426645 1000
lala 13 0.15 1 second 0 1 13 3 2.04 0.539997816085815 0 1 1 0 -0.00862937 -0.009341552 -0.009387488 -0.008497494 -0.00815202 1000 0.01438749 0.01337333 0.01388083 0.01469355 0.01471063 1000 -0.009690171 -0.009296892 -0.008884556 -0.008443762 -0.0085191 1000 0.01538563 0.01520872 -0.008884556 0.01530761 0.01373246 1000
lala 14 0.15 0 second 0 1 14 3 1.89 0.519997835159302 0 1 -1 1 -0.01066439 -0.01091625 -0.009210497 -0.009191659 -0.009890812 1000 0.01348511 0.01397443 0.01438487 0.01379343 0.01392058 1000 -0.01087589 -0.0105535 -0.009888082 -0.009681304 -0.009675572 1000 0.01401018 0.01452652 -0.009888082 0.01468564 0.01475992 1000
lala 15 0.075 0 first 0 1 15 3 1.965 0.339998006820679 0 1 -1 1 -0.007361693 -0.007948974 -0.009262039 -0.009553707 -0.01007437 1000 0.008489128 0.009419262 0.008384897 0.009150194 0.009498987 1000 -0.01025195 -0.01049319 -0.01005997 -0.009959028 -0.01057561 1000 0.00864658 0.009553662 -0.01005997 0.01070979 0.0103565 1000
lala 16 0.075 1 second 0 1 16 3 2.04 0.23999810218811 0 1 1 1 -0.009240436 -0.01036082 -0.01037487 -0.009777642 -0.009673584 1000 0.01307532 0.01304252 0.01435585 0.0151395 0.01513551 1000 -0.00900144 -0.009390518 -0.009867571 -0.01036645 -0.01072474 1000 0.01466413 0.0142649 -0.009867571 0.01315831 0.01341147 1000
lala 17 0.0375 0 first 0 1 17 3 2.0025 0.579997777938843 0 1 -1 0 -0.01029151 -0.009629097 -0.01015589 -0.01012589 -0.0103677 1000 0.01393974 0.01420022 0.01562956 0.01480132 0.01356743 1000 -0.01064372 -0.01051291 -0.0100717 -0.009831038 -0.01006715 1000 0.01368967 0.01452676 -0.0100717 0.01399055 0.0141805 1000
lala 18 0.01875 0 first 0 1 18 3 2.02125 0.259998083114624 0 1 -1 0 -0.01004261 -0.009946183 -0.01052071 -0.01045448 -0.01052013 1000 0.01522746 0.01580134 0.01562456 0.01554971 0.01615915 1000 -0.009351735 -0.009520145 -0.009750688 -0.009123159 -0.008290884 1000 0.01537339 0.01413061 -0.009750688 0.01389205 0.0143211 1000
lala 19 0.01875 0 second 0 1 19 3 2.04 0.519997835159302 0 1 -1 1 -0.009228323 -0.0089187 -0.009432614 -0.01045302 -0.01068947 1000 0.01466775 0.0155392 0.01477918 0.01383249 0.0147199 1000 -0.010672 -0.009931079 -0.01038825 -0.01045309 -0.01040174 1000 0.01504397 0.01510361 -0.01038825 0.01481144 0.01550058 1000
lala 20 0.01875 1 second 0 1 20 3 2.05875 0.859997510910034 0 1 1 1 -0.02149942 -0.02257082 -0.0207375 -0.01984587 -0.02069449 1000 0.007929428 0.008864746 0.01013095 0.01090049 0.01094858 1000 -0.02198612 -0.02200616 -0.02210268 -0.0222299 -0.02243609 1000 0.009907769 0.01028034 -0.02210268 0.008623002 0.009829096 1000
lala 21 0.009375 1 second 0 1 21 3 2.049375 0.839997529983521 0 1 1 0 -0.02345697 -0.02397564 -0.02411051 -0.02359297 -0.02305465 1000 0.0105925 0.01028267 0.01067012 0.01085783 0.009448114 1000 -0.0230236 -0.02364679 -0.02340846 -0.02338685 -0.0239076 1000 0.008675763 0.009914349 -0.02340846 0.01011854 0.01001333 1000
lala 22 0.009375 0 first 0 1 22 3 2.04 0.519997835159302 0 1 -1 1 -0.02529227 -0.02553293 -0.02489574 -0.0242865 -0.02496741 1000 0.008286627 0.009262705 0.009700263 0.009446138 0.009484013 1000 -0.02454582 -0.02414846 -0.02391485 -0.02377405 -0.02442381 1000 0.0098412 0.01035449 -0.02391485 0.01029414 0.009136209 1000
lala 23 0.0046875 0 first 0 1 23 3 2.044687 0.419997930526733 0 1 -1 1 -0.02416513 -0.02311753 -0.02292298 -0.02284919 -0.02192245 1000 0.009983394 0.009785964 0.008602987 0.00937987 0.009663356 1000 -0.02166253 -0.02137114 -0.02142892 -0.02140083 -0.02162049 1000 0.01082194 0.01064865 -0.02142892 0.01073903 0.009634458 1000
lala 24 0.0046875 1 first 0 1 24 3 2.049375 0.419997930526733 0 1 1 0 -0.02072665 -0.02069714 -0.02069752 -0.02066833 -0.02011867 1000 0.009474406 0.01003005 0.009090398 0.008851598 0.01014608 1000 -0.02001338 -0.01991916 -0.02038683 -0.02008635 -0.01950759 1000 0.01117727 0.01113019 -0.02038683 0.01141101 0.0106547 1000
lala 25 0.00234375 1 second 0 1 25 3 2.047031 0.879997491836548 0 1 1 1 -0.01217801 -0.01202656 -0.01222442 -0.01248517 -0.01287168 1000 0.003068915 0.004506312 0.005650083 0.005196088 0.004775535 1000 -0.01402057 -0.01287628 -0.01261306 -0.01285183 -0.01302989 1000 0.006941347 0.007056294 -0.01261306 0.006775686 0.007187887 1000
