subject PestNr Step_Size_OnTrial Pest_Faster Pest_Interval Condition block trial velH velH_Pest Reaction_Time velH_Subject Start_Above Response_MotionEstimation RightOrLeftxRotations_first0 xRotations_first1 xRotations_first2 xRotations_first3 xRotations_first4 xRotations_first5 yRotations_first0 yRotations_first1 yRotations_first2 yRotations_first3 yRotations_first4 yRotations_first5 xRotations_second0 xRotations_second1 xRotations_second2 xRotations_second3 xRotations_second4 xRotations_second5 yRotations_second0 yRotations_second1 yRotations_second2 yRotations_second3 yRotations_second4 yRotations_second5
lala 1 1.2 1 second 14 1 1 5 3.3 1.11999726295471 0 0 1 1 -0.02041441 -0.02000307 -0.0198922 -0.01947984 -0.01922565 1000 -0.02041441 -0.02000307 -0.0198922 -0.01947984 -0.01922565 1000 -0.01661086 -0.01657155 -0.01652249 -0.0155818 -0.01503643 1000 -0.01661086 -0.01657155 -0.01652249 -0.0155818 -0.01503643 1000
lala 1 1.2 0 second 5 1 2 6 7.98 0.919997453689575 -1 1 -1 1 -0.01408916 -0.01422885 -0.01325582 -0.01297612 -0.01315303 1000 -0.01408916 -0.01422885 -0.01325582 -0.01297612 -0.01315303 1000 -0.01103202 -0.01046738 -0.01016825 -0.009571457 -0.009915723 1000 -0.01103202 -0.01046738 -0.01016825 -0.009571457 -0.009915723 1000
lala 1 1.2 1 first 7 1 3 4 5.32 0.779997587203979 1 1 1 0 -0.009391905 -0.009668924 -0.01026188 1000 1000 1000 -0.009391905 -0.009668924 -0.01026188 1000 1000 1000 -0.01146402 -0.01090297 -0.01051017 -0.01059562 -0.01023106 1000 -0.01146402 -0.01090297 -0.01051017 -0.01059562 -0.01023106 1000
lala 1 1.2 1 first 15 1 4 5 6.65 0.39999794960022 0 1 1 0 -0.009933838 -0.01036712 -0.01008368 1000 1000 1000 -0.009933838 -0.01036712 -0.01008368 1000 1000 1000 -0.00824499 -0.007988615 -0.007862096 -0.007660425 -0.006757697 1000 -0.00824499 -0.007988615 -0.007862096 -0.007660425 -0.006757697 1000
lala 1 1.2 1 first 11 1 5 6 7.98 0.879997491836548 1 1 1 1 -0.003910812 -0.003920331 -0.003997341 1000 1000 1000 -0.003910812 -0.003920331 -0.003997341 1000 1000 1000 -0.002728282 -0.002701107 -0.00247172 -0.001977721 -0.001578264 1000 -0.002728282 -0.002701107 -0.00247172 -0.001977721 -0.001578264 1000
lala 1 1.2 0 second 16 1 6 6 3.96 1.19999718666077 0 0 -1 1 -0.001678657 -0.002148222 -0.00222501 -0.001595594 -0.001328805 1000 -0.001678657 -0.002148222 -0.00222501 -0.001595594 -0.001328805 1000 0.0006204639 0.001011247 0.001235379 0.001009455 0.0012816 1000 0.0006204639 0.001011247 0.001235379 0.001009455 0.0012816 1000
lala 1 1.2 1 first 13 1 7 4 5.32 0.61999773979187 0 1 1 0 -1.18955E-06 0.001389332 0.002426257 1000 1000 1000 -1.18955E-06 0.001389332 0.002426257 1000 1000 1000 0.003383755 0.003267197 0.003618073 0.004081381 0.003903394 1000 0.003383755 0.003267197 0.003618073 0.004081381 0.003903394 1000
lala 1 1.2 0 first 0 1 8 4 2.64 1.49999690055847 -1 0 -1 0 0.003804723 0.004405129 0.004387968 1000 1000 1000 0.003804723 0.004405129 0.004387968 1000 1000 1000 0.005759047 0.005536122 0.005168349 0.006038835 0.006296235 1000 0.005759047 0.005536122 0.005168349 0.006038835 0.006296235 1000
lala 1 1.2 1 first 8 1 9 5 3.3 1.27999711036682 1 0 1 1 0.007505717 0.007119652 0.006811232 1000 1000 1000 0.007505717 0.007119652 0.006811232 1000 1000 1000 0.009086265 0.00924958 0.009119657 0.009505025 0.01007455 1000 0.009086265 0.00924958 0.009119657 0.009505025 0.01007455 1000
lala 1 1.2 1 first 1 1 10 4 5.32 2.79999589920044 -1 1 1 0 0.01025719 0.01069558 0.01063377 1000 1000 1000 0.01025719 0.01069558 0.01063377 1000 1000 1000 0.01198756 0.01233801 0.01237755 0.01297406 0.01303326 1000 0.01198756 0.01233801 0.01237755 0.01297406 0.01303326 1000
lala 1 1.2 0 first 3 1 11 5 6.65 0.61999773979187 -1 1 -1 0 0.01405968 0.0138585 0.01363656 1000 1000 1000 0.01405968 0.0138585 0.01363656 1000 1000 1000 0.01372088 0.0141271 0.01559449 0.01582147 0.0156326 1000 0.01372088 0.0141271 0.01559449 0.01582147 0.0156326 1000
lala 1 1.2 0 first 12 1 12 4 2.64 1.7199969291687 0 0 -1 0 0.01518218 0.01454192 0.01451578 1000 1000 1000 0.01518218 0.01454192 0.01451578 1000 1000 1000 0.01601298 0.01569935 0.0156098 0.01639129 0.01698356 1000 0.01601298 0.01569935 0.0156098 0.01639129 0.01698356 1000
lala 2 1.2 1 second 1 1 13 4 4.12 1.11999726295471 -1 1 1 1 0.01771639 0.01796747 0.01840585 0.01800719 0.01808109 1000 0.01771639 0.01796747 0.01840585 0.01800719 0.01808109 1000 0.01821291 0.01834176 0.01845523 0.0196573 0.02038083 1000 0.01821291 0.01834176 0.01845523 0.0196573 0.02038083 1000
lala 3 1.2 0 first 1 1 14 4 2.92 2.01999664306641 -1 1 -1 1 0.02112458 0.02070827 0.02032572 1000 1000 1000 0.02112458 0.02070827 0.02032572 1000 1000 1000 0.02082467 0.0209479 0.02121857 0.0216717 0.02131128 1000 0.02082467 0.0209479 0.02121857 0.0216717 0.02131128 1000
lala 2 1.2 0 first 14 1 15 5 2.1 0.579997777938843 0 0 -1 1 0.02115327 0.02141733 0.02128444 1000 1000 1000 0.02115327 0.02141733 0.02128444 1000 1000 1000 0.02042793 0.02040369 0.02015701 0.02044687 0.02012361 1000 0.02042793 0.02040369 0.02015701 0.02044687 0.02012361 1000
lala 3 1.2 1 second 14 1 16 5 3.3 0.519997835159302 0 0 1 1 0.02224233 0.02256726 0.02290098 0.02167838 0.0194873 1000 0.02224233 0.02256726 0.02290098 0.02167838 0.0194873 1000 0.01990584 0.02004587 0.01984289 0.02024786 0.01977077 1000 0.01990584 0.02004587 0.01984289 0.02024786 0.01977077 1000
lala 1 1.2 0 second 4 1 17 6 3.96 1.13999724388123 -1 0 -1 1 0.02134165 0.02144241 0.02202872 0.02171668 0.02145214 1000 0.02134165 0.02144241 0.02202872 0.02171668 0.02145214 1000 0.02194296 0.02260287 0.02258425 0.02253386 0.02257044 1000 0.02194296 0.02260287 0.02258425 0.02253386 0.02257044 1000
lala 2 1.2 1 second 12 1 18 4 3.84 0.479997873306274 0 0 1 0 0.02276948 0.02291459 0.02382082 0.02394634 0.0238351 1000 0.02276948 0.02291459 0.02382082 0.02394634 0.0238351 1000 0.02349095 0.0233755 0.02317107 0.02306634 0.02256298 1000 0.02349095 0.0233755 0.02317107 0.02306634 0.02256298 1000
lala 4 1.2 0 first 1 1 19 4 4.12 0.39999794960022 -1 1 -1 1 0.02321394 0.02331053 0.02298621 1000 1000 1000 0.02321394 0.02331053 0.02298621 1000 1000 1000 0.02339912 0.02433371 0.02436087 0.02438736 0.02417488 1000 0.02339912 0.02433371 0.02436087 0.02438736 0.02417488 1000
lala 1 1.2 1 second 17 1 20 6 7.98 1.83999681472778 0 1 1 1 0.02428872 0.02447946 0.02441371 0.02466322 0.02430944 1000 0.02428872 0.02447946 0.02441371 0.02466322 0.02430944 1000 0.02507568 0.02511603 0.02489757 0.02460858 0.02553144 1000 0.02507568 0.02511603 0.02489757 0.02460858 0.02553144 1000
lala 3 1.2 0 second 12 1 21 4 2.64 0.579997777938843 0 0 -1 0 -0.007928697 -0.008039651 -0.008064075 -0.007764552 -0.007463362 1000 -0.007928697 -0.008039651 -0.008064075 -0.007764552 -0.007463362 1000 -0.009189257 -0.00896275 -0.008346784 -0.008288397 -0.007806959 1000 -0.009189257 -0.00896275 -0.008346784 -0.008288397 -0.007806959 1000
lala 5 1.2 0 first 1 1 22 4 5.32 0.779997587203979 -1 1 -1 1 -0.006701783 -0.006788657 -0.006297781 1000 1000 1000 -0.006701783 -0.006788657 -0.006297781 1000 1000 1000 -0.007784496 -0.007449183 -0.007159075 -0.007016269 -0.006429145 1000 -0.007784496 -0.007449183 -0.007159075 -0.007016269 -0.006429145 1000
lala 1 1.2 0 second 10 1 23 6 3.96 0.699997663497925 1 0 -1 0 -0.005040014 -0.005223375 -0.004923618 -0.00557406 -0.005636983 1000 -0.005040014 -0.005223375 -0.004923618 -0.00557406 -0.005636983 1000 -0.004637752 -0.004229003 -0.004371803 -0.004559495 -0.004528564 1000 -0.004637752 -0.004229003 -0.004371803 -0.004559495 -0.004528564 1000
lala 2 1.2 1 second 3 1 24 5 7.85 0.199998140335083 -1 1 1 1 -0.00606169 -0.005906778 -0.006065992 -0.005754604 -0.005771303 1000 -0.00606169 -0.005906778 -0.006065992 -0.005754604 -0.005771303 1000 -0.002647518 -0.002544088 -0.002829842 -0.003090434 -0.002621556 1000 -0.002647518 -0.002544088 -0.002829842 -0.003090434 -0.002621556 1000
lala 4 1.2 0 second 12 1 25 4 3.84 2.75999593734741 0 0 -1 0 -0.005284046 -0.005206503 -0.005481763 -0.005176139 -0.004736259 1000 -0.005284046 -0.005206503 -0.005481763 -0.005176139 -0.004736259 1000 -0.004695435 -0.005057344 -0.005068529 -0.005333111 -0.005075779 1000 -0.004695435 -0.005057344 -0.005068529 -0.005333111 -0.005075779 1000
lala 1 1.2 0 first 2 1 26 5 3.3 0.539997816085815 -1 0 -1 1 -0.00499705 -0.005369116 -0.005287877 1000 1000 1000 -0.00499705 -0.005369116 -0.005287877 1000 1000 1000 -0.007493686 -0.007680596 -0.007972199 -0.007374638 -0.00656055 1000 -0.007493686 -0.007680596 -0.007972199 -0.007374638 -0.00656055 1000
lala 2 1.2 1 first 0 1 27 4 3.84 2.01999664306641 -1 0 1 1 -0.007714322 -0.008007369 -0.008653307 1000 1000 1000 -0.007714322 -0.008007369 -0.008653307 1000 1000 1000 -0.008588669 -0.009013942 -0.008324838 -0.007704274 -0.007461039 1000 -0.008588669 -0.009013942 -0.008324838 -0.007704274 -0.007461039 1000
lala 2 1.2 1 second 17 1 28 6 6.780001 0.359997987747192 0 1 1 1 -0.007522704 -0.007432971 -0.007776101 -0.007707927 -0.007975133 1000 -0.007522704 -0.007432971 -0.007776101 -0.007707927 -0.007975133 1000 -0.007331675 -0.007579651 -0.008225696 -0.007668204 -0.007273995 1000 -0.007331675 -0.007579651 -0.008225696 -0.007668204 -0.007273995 1000
lala 2 1.2 1 second 11 1 29 6 6.780001 0.279998064041138 1 1 1 1 -0.00780628 -0.007919655 -0.007251645 -0.007380141 -0.007485732 1000 -0.00780628 -0.007919655 -0.007251645 -0.007380141 -0.007485732 1000 -0.007671921 -0.007943952 -0.007545984 -0.007743203 -0.008282443 1000 -0.007671921 -0.007943952 -0.007545984 -0.007743203 -0.008282443 1000
lala 2 1.2 1 second 5 1 30 6 9.18 0.479997873306274 -1 1 1 0 -0.008127846 -0.008152809 -0.008323996 -0.008487083 -0.008940306 1000 -0.008127846 -0.008152809 -0.008323996 -0.008487083 -0.008940306 1000 -0.007939721 -0.007732144 -0.007461625 -0.007637895 -0.007818543 1000 -0.007939721 -0.007732144 -0.007461625 -0.007637895 -0.007818543 1000
lala 6 1.2 1 first 1 1 31 4 6.52 0.299998044967651 -1 1 1 0 -0.008003082 -0.008088322 -0.008721475 1000 1000 1000 -0.008003082 -0.008088322 -0.008721475 1000 1000 1000 -0.00883132 -0.008373285 -0.008782288 -0.008554103 -0.00771729 1000 -0.00883132 -0.008373285 -0.008782288 -0.008554103 -0.00771729 1000
lala 1 1.2 0 first 6 1 32 4 2.64 0.39999794960022 1 0 -1 0 -0.008015734 -0.008370297 -0.00873139 1000 1000 1000 -0.008015734 -0.008370297 -0.00873139 1000 1000 1000 -0.007787029 -0.007764048 -0.007749915 -0.008234077 -0.008681306 1000 -0.007787029 -0.007764048 -0.007749915 -0.008234077 -0.008681306 1000
lala 2 1.2 1 second 2 1 33 5 4.5 0.839997529983521 -1 0 1 1 -0.007149712 -0.007311193 -0.007531797 -0.007977527 -0.007544168 1000 -0.007149712 -0.007311193 -0.007531797 -0.007977527 -0.007544168 1000 -0.006845022 -0.007101035 -0.00733764 -0.006778679 -0.006847367 1000 -0.006845022 -0.007101035 -0.00733764 -0.006778679 -0.006847367 1000
lala 2 1.2 1 first 10 1 34 6 5.16 3.91999483108521 1 0 1 1 -0.007082359 -0.006670113 -0.006384793 1000 1000 1000 -0.007082359 -0.006670113 -0.006384793 1000 1000 1000 -0.006005161 -0.005212474 -0.005206662 -0.005531014 -0.005582083 1000 -0.006005161 -0.005212474 -0.005206662 -0.005531014 -0.005582083 1000
lala 3 1.2 0 second 0 1 35 4 2.64 0.799997568130493 -1 0 -1 0 -0.004466961 -0.00459051 -0.004660151 -0.004857104 -0.005389893 1000 -0.004466961 -0.00459051 -0.004660151 -0.004857104 -0.005389893 1000 -0.005918506 -0.005167363 -0.004972684 -0.005244337 -0.005256063 1000 -0.005918506 -0.005167363 -0.004972684 -0.005244337 -0.005256063 1000
lala 2 1.2 0 second 8 1 36 5 2.1 0.559997797012329 1 0 -1 1 -0.004610655 -0.004879178 -0.004522483 -0.004904788 -0.004948173 1000 -0.004610655 -0.004879178 -0.004522483 -0.004904788 -0.004948173 1000 -0.005427544 -0.004710835 -0.004760834 -0.005007529 -0.00527803 1000 -0.005427544 -0.004710835 -0.004760834 -0.005007529 -0.00527803 1000
lala 2 1.2 1 second 15 1 37 5 5.45 0.359997987747192 0 1 1 1 -0.005039083 -0.004942759 -0.005080891 -0.005260657 -0.005558103 1000 -0.005039083 -0.004942759 -0.005080891 -0.005260657 -0.005558103 1000 -0.00642892 -0.006420833 -0.005673802 -0.005720264 -0.006049938 1000 -0.00642892 -0.006420833 -0.005673802 -0.005720264 -0.006049938 1000
lala 2 1.2 0 first 4 1 38 6 5.16 0.639997720718384 -1 0 -1 0 -0.006147983 -0.006529884 -0.006587858 1000 1000 1000 -0.006147983 -0.006529884 -0.006587858 1000 1000 1000 -0.006480391 -0.006672043 -0.006623268 -0.006783261 -0.007108598 1000 -0.006480391 -0.006672043 -0.006623268 -0.006783261 -0.007108598 1000
lala 5 1.2 1 second 12 1 39 4 5.04 0.899997472763062 0 0 1 0 -0.005580752 -0.005969814 -0.006336407 -0.005908421 -0.005924646 1000 -0.005580752 -0.005969814 -0.006336407 -0.005908421 -0.005924646 1000 -0.006128625 -0.006203715 -0.006032369 -0.006229697 -0.006287052 1000 -0.006128625 -0.006203715 -0.006032369 -0.006229697 -0.006287052 1000
lala 2 1.2 1 first 13 1 40 4 4.12 0.419997930526733 0 1 1 0 -0.00564417 -0.005792521 -0.005908316 1000 1000 1000 -0.00564417 -0.005792521 -0.005908316 1000 1000 1000 -0.005852171 -0.006014576 -0.006038801 -0.005887033 -0.005996931 1000 -0.005852171 -0.006014576 -0.006038801 -0.005887033 -0.005996931 1000
lala 3 1.2 0 second 10 1 41 6 3.96 0.419997930526733 1 0 -1 1 -0.005834621 -0.005311419 -0.005063123 -0.005749775 -0.006291312 1000 -0.005834621 -0.005311419 -0.005063123 -0.005749775 -0.006291312 1000 -0.006847062 -0.006267773 -0.006378518 -0.006540607 -0.006611576 1000 -0.006847062 -0.006267773 -0.006378518 -0.006540607 -0.006611576 1000
lala 3 1.2 1 first 11 1 42 6 5.580001 0.579997777938843 1 1 1 1 -0.007284828 -0.007309553 -0.006992768 1000 1000 1000 -0.007284828 -0.007309553 -0.006992768 1000 1000 1000 -0.008465767 -0.009044577 -0.009200796 -0.009301437 -0.009135887 1000 -0.008465767 -0.009044577 -0.009200796 -0.009301437 -0.009135887 1000
lala 4 1.2 0 second 11 1 43 6 4.380001 2.09999656677246 1 1 -1 0 -0.007601192 -0.007980054 -0.008856053 -0.008855809 -0.00868717 1000 -0.007601192 -0.007980054 -0.008856053 -0.008855809 -0.00868717 1000 -0.009696076 -0.009769864 -0.009672049 -0.009960457 -0.009724105 1000 -0.009696076 -0.009769864 -0.009672049 -0.009960457 -0.009724105 1000
lala 3 1.2 1 second 3 1 44 5 6.650001 0.299998044967651 -1 1 1 1 -0.009783254 -0.009673807 -0.009857845 -0.009885873 -0.01011175 1000 -0.009783254 -0.009673807 -0.009857845 -0.009885873 -0.01011175 1000 -0.008471986 -0.008669239 -0.00869011 -0.00818067 -0.008221993 1000 -0.008471986 -0.008669239 -0.00869011 -0.00818067 -0.008221993 1000
lala 6 1.2 1 first 12 1 45 4 3.84 0.419997930526733 0 0 1 1 -0.008091264 -0.008794651 -0.009484218 1000 1000 1000 -0.008091264 -0.008794651 -0.009484218 1000 1000 1000 -0.02262645 -0.02184648 -0.02065407 -0.02016944 -0.01898411 1000 -0.02262645 -0.02184648 -0.02065407 -0.02016944 -0.01898411 1000
lala 2 1.2 0 second 6 1 46 4 3.84 0.699997663497925 1 0 -1 1 -0.02214418 -0.02163361 -0.02053722 -0.02153741 -0.02105737 1000 -0.02214418 -0.02163361 -0.02053722 -0.02153741 -0.02105737 1000 -0.01002917 -0.009444798 -0.009109689 -0.009369079 -0.00940631 1000 -0.01002917 -0.009444798 -0.009109689 -0.009369079 -0.00940631 1000
lala 7 1.2 0 second 12 1 47 4 2.64 0.439997911453247 0 0 -1 0 -0.003647652 -0.003147765 -0.003170748 -0.002801356 -0.002390076 1000 -0.003647652 -0.003147765 -0.003170748 -0.002801356 -0.002390076 1000 -0.001198138 -0.001002842 -0.0003786324 0.0007515473 0.000605721 1000 -0.001198138 -0.001002842 -0.0003786324 0.0007515473 0.000605721 1000
lala 3 1.2 1 first 13 1 48 4 2.92 0.61999773979187 0 1 1 1 4.583265E-05 -4.812519E-05 -0.0004803146 1000 1000 1000 4.583265E-05 -4.812519E-05 -0.0004803146 1000 1000 1000 -0.0005059546 0.0002705602 0.0008359062 0.0002249922 -1.325441E-06 1000 -0.0005059546 0.0002705602 0.0008359062 0.0002249922 -1.325441E-06 1000
lala 3 1.2 0 second 8 1 49 5 3.3 0.379997968673706 1 0 -1 0 -0.0001971964 -0.0001931122 -0.000515237 -0.0003276495 1.535012E-05 1000 -0.0001971964 -0.0001931122 -0.000515237 -0.0003276495 1.535012E-05 1000 0.0008427341 0.0008077045 0.000953373 0.001006301 0.0006538536 1000 0.0008427341 0.0008077045 0.000953373 0.001006301 0.0006538536 1000
lala 4 1.2 1 second 10 1 50 6 5.16 0.159998178482056 1 0 1 0 0.005630139 0.005802494 0.00619269 0.006449083 0.006239699 1000 0.005630139 0.005802494 0.00619269 0.006449083 0.006239699 1000 0.006311149 0.006512106 0.006617222 0.007045036 0.006993671 1000 0.006311149 0.006512106 0.006617222 0.007045036 0.006993671 1000
lala 2 1.2 0 first 7 1 51 4 4.12 0.01999831199646 1 1 -1 1 0.007238927 0.006894968 0.00762528 1000 1000 1000 0.007238927 0.006894968 0.00762528 1000 1000 1000 0.00771343 0.008542814 0.008928548 0.008526213 0.008641101 1000 0.00771343 0.008542814 0.008928548 0.008526213 0.008641101 1000
lala 4 1.2 0 second 14 1 52 5 2.1 0.519997835159302 0 0 -1 0 0.007695348 0.00799452 0.007732446 0.008005233 0.008718758 1000 0.007695348 0.00799452 0.007732446 0.008005233 0.008718758 1000 0.00841688 0.008539345 0.008571662 0.008150022 0.008255711 1000 0.00841688 0.008539345 0.008571662 0.008150022 0.008255711 1000
lala 5 1.2 0 second 14 1 53 5 3.3 0.319998025894165 0 0 -1 1 0.007973731 0.008217099 0.008381505 0.007744433 0.008063673 1000 0.007973731 0.008217099 0.008381505 0.007744433 0.008063673 1000 0.008353452 0.00829686 0.008501646 0.008379332 0.008659324 1000 0.008353452 0.00829686 0.008501646 0.008379332 0.008659324 1000
lala 4 1.2 0 first 13 1 54 4 1.72 0.139998197555542 0 1 -1 1 0.00594071 0.005815199 0.00652012 1000 1000 1000 0.00594071 0.005815199 0.00652012 1000 1000 1000 0.005966687 0.007128595 0.007508187 0.007378071 0.007157728 1000 0.005966687 0.007128595 0.007508187 0.007378071 0.007157728 1000
lala 1 1.2 1 first 9 1 55 5 6.65 0.199998140335083 1 1 1 0 0.006888291 0.007067677 0.006928592 1000 1000 1000 0.006888291 0.007067677 0.006928592 1000 1000 1000 0.007529732 0.007454405 0.007232659 0.007257374 0.006882287 1000 0.007529732 0.007454405 0.007232659 0.007257374 0.006882287 1000
lala 3 1.2 0 first 2 1 56 5 3.3 0.119998216629028 -1 0 -1 1 0.007082058 0.006838404 0.00654187 1000 1000 1000 0.007082058 0.006838404 0.00654187 1000 1000 1000 0.005940442 0.005854174 0.006536793 0.006909661 0.006663918 1000 0.005940442 0.005854174 0.006536793 0.006909661 0.006663918 1000
lala 3 1.2 1 second 17 1 57 6 5.580001 0.339998006820679 0 1 1 1 0.005778317 0.005804007 0.005898308 0.006564576 0.006711842 1000 0.005778317 0.005804007 0.005898308 0.006564576 0.006711842 1000 0.0006634403 0.001160199 0.003347949 0.00632922 0.008034118 1000 0.0006634403 0.001160199 0.003347949 0.00632922 0.008034118 1000
lala 5 1.2 1 first 13 1 58 4 2.92 0.899997472763062 0 1 1 0 0.0211135 0.01837922 0.021008 1000 1000 1000 0.0211135 0.01837922 0.021008 1000 1000 1000 -0.0100225 -0.01076068 -0.01179531 -0.01069532 -0.008276351 1000 -0.0100225 -0.01076068 -0.01179531 -0.01069532 -0.008276351 1000
lala 8 1.2 1 first 12 1 59 4 3.84 0.539997816085815 0 0 1 1 -0.008612271 -0.008011092 -0.008028878 1000 1000 1000 -0.008612271 -0.008011092 -0.008028878 1000 1000 1000 -0.006883075 -0.006199156 -0.005358746 -0.004464045 -0.00375493 1000 -0.006883075 -0.006199156 -0.005358746 -0.004464045 -0.00375493 1000
lala 4 1.2 1 second 3 1 60 5 5.450001 0.379997968673706 -1 1 1 1 -0.003674238 -0.00284967 -0.001903412 -0.000935944 -0.001231709 1000 -0.003674238 -0.00284967 -0.001903412 -0.000935944 -0.001231709 1000 -0.001112977 -0.0006342285 -0.0002481104 -0.000249862 0.0002919256 1000 -0.001112977 -0.0006342285 -0.0002481104 -0.000249862 0.0002919256 1000
lala 4 1.2 1 second 17 1 61 6 4.380001 0.219998121261597 0 1 1 1 0.00119703 0.002079335 0.002849226 0.003462352 0.003391444 1000 0.00119703 0.002079335 0.002849226 0.003462352 0.003391444 1000 0.002485652 0.002164709 0.002804996 0.00421076 0.004448876 1000 0.002485652 0.002164709 0.002804996 0.00421076 0.004448876 1000
lala 5 1.2 0 first 17 1 62 6 3.180001 3.01999568939209 0 1 -1 0 0.004047354 0.003415617 0.003929989 1000 1000 1000 0.004047354 0.003415617 0.003929989 1000 1000 1000 0.004588414 0.004879901 0.005108972 0.005855278 0.007194784 1000 0.004588414 0.004879901 0.005108972 0.005855278 0.007194784 1000
lala 3 1.2 1 second 5 1 63 6 7.98 0.23999810218811 -1 1 1 0 0.006578525 0.006398516 0.005837034 0.00609793 0.007018182 1000 0.006578525 0.006398516 0.005837034 0.00609793 0.007018182 1000 0.0107338 0.009178777 0.01017043 0.01044726 0.009345064 1000 0.0107338 0.009178777 0.01017043 0.01044726 0.009345064 1000
lala 4 1.2 1 first 8 1 64 5 4.5 0.379997968673706 1 0 1 1 0.009694414 0.007677136 0.00705644 1000 1000 1000 0.009694414 0.007677136 0.00705644 1000 1000 1000 0.008675621 0.008951392 0.01074584 0.01133459 0.01168467 1000 0.008675621 0.008951392 0.01074584 0.01133459 0.01168467 1000
lala 2 1.2 0 first 16 1 65 6 5.16 0.519997835159302 0 0 -1 1 0.01255446 0.01178684 0.01212856 1000 1000 1000 0.01255446 0.01178684 0.01212856 1000 1000 1000 0.01314369 0.01307078 0.01284487 0.01339968 0.01465886 1000 0.01314369 0.01307078 0.01284487 0.01339968 0.01465886 1000
lala 6 1.2 0 first 17 1 66 6 4.380001 3.09999561309814 0 1 -1 0 0.01422215 0.01432569 0.0143492 1000 1000 1000 0.01422215 0.01432569 0.0143492 1000 1000 1000 0.01468414 0.01474924 0.01498052 0.0148811 0.01557183 1000 0.01468414 0.01474924 0.01498052 0.0148811 0.01557183 1000
lala 6 1.2 0 first 13 1 67 4 1.72 0.719997644424438 0 1 -1 1 0.01538125 0.01625567 0.01704127 1000 1000 1000 0.01538125 0.01625567 0.01704127 1000 1000 1000 0.01687993 0.01760004 0.01739422 0.01736433 0.01710349 1000 0.01687993 0.01760004 0.01739422 0.01736433 0.01710349 1000
lala 5 1.2 0 first 3 1 68 5 4.250001 0.519997835159302 -1 1 -1 0 0.01686138 0.01611418 0.01566132 1000 1000 1000 0.01686138 0.01611418 0.01566132 1000 1000 1000 0.01681042 0.01671037 0.01721642 0.01712699 0.01754541 1000 0.01681042 0.01671037 0.01721642 0.01712699 0.01754541 1000
lala 4 1.2 0 first 5 1 69 6 6.780001 1.83999681472778 -1 1 -1 0 0.01578875 0.01583313 0.01551011 1000 1000 1000 0.01578875 0.01583313 0.01551011 1000 1000 1000 0.0172057 0.01711865 0.01700833 0.01661788 0.01678178 1000 0.0172057 0.01711865 0.01700833 0.01661788 0.01678178 1000
lala 3 1.2 1 first 7 1 70 4 5.32 1.05999732017517 1 1 1 1 0.01631223 0.01638649 0.01718542 1000 1000 1000 0.01631223 0.01638649 0.01718542 1000 1000 1000 0.01549431 0.01587453 0.01654176 0.01645278 0.01646294 1000 0.01549431 0.01587453 0.01654176 0.01645278 0.01646294 1000
lala 3 1.2 0 second 16 1 71 6 6.36 0.259998083114624 0 0 -1 1 0.01345055 0.01380703 0.01378422 0.01316425 0.01274203 1000 0.01345055 0.01380703 0.01378422 0.01316425 0.01274203 1000 0.008971261 0.007664599 0.007438417 0.007480105 0.008499418 1000 0.008971261 0.007664599 0.007438417 0.007480105 0.008499418 1000
lala 7 1.2 1 second 1 1 72 4 5.32 3.43999528884888 -1 1 1 1 0.007961961 0.00744763 0.007596533 0.006942184 0.008463355 1000 0.007961961 0.00744763 0.007596533 0.006942184 0.008463355 1000 0.008418986 0.008569521 0.008208409 0.008230688 0.008046761 1000 0.008418986 0.008569521 0.008208409 0.008230688 0.008046761 1000
lala 5 1.2 0 first 10 1 73 6 3.96 0.519997835159302 1 0 -1 1 0.01271101 0.01186654 0.01128216 1000 1000 1000 0.01271101 0.01186654 0.01128216 1000 1000 1000 0.01469932 0.01531648 0.01538738 0.01539893 0.01632783 1000 0.01469932 0.01531648 0.01538738 0.01539893 0.01632783 1000
lala 6 1.2 1 second 10 1 74 6 5.16 0.39999794960022 1 0 1 1 0.01468947 0.01539813 0.01636601 0.01648525 0.01647587 1000 0.01468947 0.01539813 0.01636601 0.01648525 0.01647587 1000 0.01645499 0.01600104 0.01589435 0.01562799 0.01605131 1000 0.01645499 0.01600104 0.01589435 0.01562799 0.01605131 1000
lala 5 1.2 1 second 11 1 75 6 5.580001 0.739997625350952 1 1 1 1 0.01590121 0.01587821 0.01630332 0.01728407 0.01698039 1000 0.01590121 0.01587821 0.01630332 0.01728407 0.01698039 1000 0.01638309 0.01618831 0.01618345 0.01628725 0.01561433 1000 0.01638309 0.01618831 0.01618345 0.01628725 0.01561433 1000
lala 6 1.2 0 first 11 1 76 6 4.380001 0.499997854232788 1 1 -1 1 0.01692977 0.01635314 0.01610932 1000 1000 1000 0.01692977 0.01635314 0.01610932 1000 1000 1000 0.01614336 0.01644662 0.01624742 0.0167893 0.01757422 1000 0.01614336 0.01644662 0.01624742 0.0167893 0.01757422 1000
lala 6 1.2 1 first 3 1 77 5 5.450001 1.99999666213989 -1 1 1 1 0.01686976 0.01651379 0.01668193 1000 1000 1000 0.01686976 0.01651379 0.01668193 1000 1000 1000 0.01699127 0.01651871 0.01636791 0.01586599 0.01652417 1000 0.01699127 0.01651871 0.01636791 0.01586599 0.01652417 1000
lala 5 1.2 0 second 8 1 78 5 3.3 0.519997835159302 1 0 -1 0 0.01544482 0.01523356 0.01484998 0.01553386 0.01588743 1000 0.01544482 0.01523356 0.01484998 0.01553386 0.01588743 1000 0.01538244 0.01553867 0.01546003 0.01575176 0.01536688 1000 0.01538244 0.01553867 0.01546003 0.01575176 0.01536688 1000
lala 7 1.2 0 first 3 1 79 5 4.250001 0.559997797012329 -1 1 -1 0 0.01479888 0.01473973 0.01510823 1000 1000 1000 0.01479888 0.01473973 0.01510823 1000 1000 1000 0.004826612 0.005851901 0.006178105 0.007545176 0.008689069 1000 0.004826612 0.005851901 0.006178105 0.007545176 0.008689069 1000
lala 7 1.2 0 second 13 1 80 4 2.92 1.0999972820282 0 1 -1 1 0.002573532 0.004867003 0.007119203 0.006574564 0.004005782 1000 0.002573532 0.004867003 0.007119203 0.006574564 0.004005782 1000 0.01030721 0.00934819 0.008766629 0.00985554 0.009456203 1000 0.01030721 0.00934819 0.008766629 0.00985554 0.009456203 1000
lala 7 1.2 1 second 10 1 81 6 3.96 0.599997758865356 1 0 1 0 0.01126872 0.0108969 0.01089454 0.01076929 0.01033034 1000 0.01126872 0.0108969 0.01089454 0.01076929 0.01033034 1000 0.009269759 0.009321869 0.01019452 0.01030926 0.009925521 1000 0.009269759 0.009321869 0.01019452 0.01030926 0.009925521 1000
lala 3 1.2 1 second 4 1 82 6 6.36 0.61999773979187 -1 0 1 0 0.009972452 0.01001486 0.009839154 0.01015847 0.009871539 1000 0.009972452 0.01001486 0.009839154 0.01015847 0.009871539 1000 0.01101015 0.01204202 0.01228105 0.0121047 0.01130771 1000 0.01101015 0.01204202 0.01228105 0.0121047 0.01130771 1000
lala 5 1.2 1 second 5 1 83 6 7.98 0.199998140335083 -1 1 1 0 0.009407089 0.009773529 0.009504272 0.009747495 0.01018037 1000 0.009407089 0.009773529 0.009504272 0.009747495 0.01018037 1000 0.01051327 0.01063771 0.01023583 0.01037488 0.009963006 1000 0.01051327 0.01063771 0.01023583 0.01037488 0.009963006 1000
lala 8 1.2 0 first 3 1 84 5 5.450001 0.339998006820679 -1 1 -1 0 0.009968675 0.009308366 0.01071748 1000 1000 1000 0.009968675 0.009308366 0.01071748 1000 1000 1000 0.006971953 0.007260757 0.007970756 0.008085712 0.008444973 1000 0.006971953 0.007260757 0.007970756 0.008085712 0.008444973 1000
lala 9 1.2 1 second 12 1 85 4 2.64 1.3999969959259 0 0 1 0 0.008294664 0.008307872 0.008208304 0.007975699 0.007453755 1000 0.008294664 0.008307872 0.008208304 0.007975699 0.007453755 1000 0.007537941 0.007239508 0.006251739 0.00646117 0.008464158 1000 0.007537941 0.007239508 0.006251739 0.00646117 0.008464158 1000
lala 8 1.2 1 first 13 1 86 4 4.12 1.69999694824219 0 1 1 0 0.005319839 0.006088754 0.007165451 1000 1000 1000 0.005319839 0.006088754 0.007165451 1000 1000 1000 0.00779559 0.004042398 0.007753761 0.006754435 0.006269159 1000 0.00779559 0.004042398 0.007753761 0.006754435 0.006269159 1000
lala 7 1.2 1 first 11 1 87 6 5.580001 0.459997892379761 1 1 1 0 0.001511783 0.0004507391 -0.0003271318 1000 1000 1000 0.001511783 0.0004507391 -0.0003271318 1000 1000 1000 0.005471772 0.00595165 0.006652041 0.007532032 0.007223341 1000 0.005471772 0.00595165 0.006652041 0.007532032 0.007223341 1000
lala 4 1.2 0 second 4 1 88 6 5.16 0.379997968673706 -1 0 -1 0 0.007364502 0.007690331 0.006919095 0.006833968 0.007744516 1000 0.007364502 0.007690331 0.006919095 0.006833968 0.007744516 1000 0.009277874 0.009251837 0.009367622 0.009248778 0.009829774 1000 0.009277874 0.009251837 0.009367622 0.009248778 0.009829774 1000
lala 3 1.2 1 first 15 1 89 5 4.25 1.35999703407288 0 1 1 1 0.01022964 0.01059292 0.01131571 1000 1000 1000 0.01022964 0.01059292 0.01131571 1000 1000 1000 0.01171756 0.01273017 0.01281809 0.01289505 0.01263837 1000 0.01171756 0.01273017 0.01281809 0.01289505 0.01263837 1000
lala 9 1.2 0 first 13 1 90 4 2.92 0.899997472763062 0 1 -1 1 0.01402966 0.01530026 0.01512199 1000 1000 1000 0.01402966 0.01530026 0.01512199 1000 1000 1000 0.01424932 0.01430507 0.01461399 0.01432132 0.014487 1000 0.01424932 0.01430507 0.01461399 0.01432132 0.014487 1000
lala 6 1.2 1 second 8 1 91 5 4.5 2.53999614715576 1 0 1 1 0.01445352 0.01454779 0.01458017 0.01470034 0.0142407 1000 0.01445352 0.01454779 0.01458017 0.01470034 0.0142407 1000 0.01489302 0.01506222 0.01419546 0.01379393 0.01423607 1000 0.01489302 0.01506222 0.01419546 0.01379393 0.01423607 1000
lala 4 1.2 0 second 2 1 92 5 4.5 1.15999722480774 -1 0 -1 1 0.01456848 0.01341165 0.0117169 0.01025221 0.00898326 1000 0.01456848 0.01341165 0.0117169 0.01025221 0.00898326 1000 0.01163132 0.01211336 0.01286921 0.01227181 0.01174961 1000 0.01163132 0.01211336 0.01286921 0.01227181 0.01174961 1000
lala 5 1.2 1 first 2 1 93 5 5.7 9.88009119033813 -1 0 1 1 0.01258394 0.01295521 0.0127275 1000 1000 1000 0.01258394 0.01295521 0.0127275 1000 1000 1000 0.0103998 0.01068185 0.01117927 0.01076134 0.01026804 1000 0.0103998 0.01068185 0.01117927 0.01076134 0.01026804 1000
lala 8 1.2 0 first 10 1 94 6 2.76 0.0999982357025146 1 0 -1 1 0.008873605 0.01002188 0.01073332 1000 1000 1000 0.008873605 0.01002188 0.01073332 1000 1000 1000 0.009809013 0.01008522 0.01128748 0.01164143 0.01170377 1000 0.009809013 0.01008522 0.01128748 0.01164143 0.01170377 1000
lala 7 1.2 0 second 8 1 95 5 3.3 0.899997472763062 1 0 -1 1 0.01138198 0.01156115 0.01139514 0.01119875 0.011508 1000 0.01138198 0.01156115 0.01139514 0.01119875 0.011508 1000 0.01246541 0.01288555 0.01283568 0.01291336 0.0127559 1000 0.01246541 0.01288555 0.01283568 0.01291336 0.0127559 1000
lala 10 1.2 0 first 12 1 96 4 1.44 0.01999831199646 0 0 -1 1 0.01364079 0.01384773 0.01344246 1000 1000 1000 0.01364079 0.01384773 0.01344246 1000 1000 1000 0.0134956 0.01385681 0.01440388 0.01511376 0.0147673 1000 0.0134956 0.01385681 0.01440388 0.01511376 0.0147673 1000
lala 3 1.2 1 second 6 1 97 4 5.04 0.079998254776001 1 0 1 1 0.01437867 0.01506355 0.01520792 0.01513835 0.01537922 1000 0.01437867 0.01506355 0.01520792 0.01513835 0.01537922 1000 0.01415999 0.01443079 0.01458497 0.01478253 0.01569252 1000 0.01415999 0.01443079 0.01458497 0.01478253 0.01569252 1000
lala 9 1.2 0 second 10 1 98 6 3.96 0.559997797012329 1 0 -1 1 0.0157289 0.0159744 0.01583557 0.01618827 0.01622895 1000 0.0157289 0.0159744 0.01583557 0.01618827 0.01622895 1000 0.01447544 0.0146237 0.01499716 0.01520999 0.01572593 1000 0.01447544 0.0146237 0.01499716 0.01520999 0.01572593 1000
lala 6 1.2 1 first 14 1 99 5 4.5 0.339998006820679 0 0 1 0 0.01544588 0.01522277 0.01559133 1000 1000 1000 0.01544588 0.01522277 0.01559133 1000 1000 1000 0.01144926 0.01198878 0.01335709 0.0138474 0.0150051 1000 0.01144926 0.01198878 0.01335709 0.0138474 0.0150051 1000
lala 10 0.6 1 second 13 1 100 4 3.52 0.0999982357025146 0 1 1 1 0.003008408 0.002850657 0.002469435 0.00348301 0.004060358 1000 0.003008408 0.002850657 0.002469435 0.00348301 0.004060358 1000 0.005018115 0.004706481 0.005498725 0.005622318 0.0055993 1000 0.005018115 0.004706481 0.005498725 0.005622318 0.0055993 1000
lala 2 1.2 1 second 9 1 101 5 5.45 0.0999982357025146 1 1 1 0 0.004773317 0.00522295 0.006134056 0.006582735 0.006613562 1000 0.004773317 0.00522295 0.006134056 0.006582735 0.006613562 1000 0.006352508 0.006401444 0.006141172 0.006793271 0.007235008 1000 0.006352508 0.006401444 0.006141172 0.006793271 0.007235008 1000
lala 11 0.3 0 first 13 1 102 4 3.22 0.39999794960022 0 1 -1 1 0.007361518 0.007462986 0.007187157 1000 1000 1000 0.007361518 0.007462986 0.007187157 1000 1000 1000 0.008544736 0.008898737 0.009624558 0.009660535 0.009584214 1000 0.008544736 0.008898737 0.009624558 0.009660535 0.009584214 1000
lala 3 1.2 1 second 9 1 103 5 4.25 0.23999810218811 1 1 1 1 0.01019788 0.01005563 0.01036621 0.01037144 0.01037773 1000 0.01019788 0.01005563 0.01036621 0.01037144 0.01037773 1000 0.01152658 0.01175185 0.01221767 0.0120534 0.01191331 1000 0.01152658 0.01175185 0.01221767 0.0120534 0.01191331 1000
lala 9 1.2 1 second 3 1 104 5 6.650001 0.559997797012329 -1 1 1 1 0.01294045 0.01270298 0.0129235 0.01291733 0.01333693 1000 0.01294045 0.01270298 0.0129235 0.01291733 0.01333693 1000 0.01333978 0.01336604 0.01305799 0.01314888 0.01399542 1000 0.01333978 0.01336604 0.01305799 0.01314888 0.01399542 1000
lala 4 1.2 1 second 7 1 105 4 4.12 0.23999810218811 1 1 1 0 0.01332589 0.01438248 0.0148511 0.01493655 0.01506008 1000 0.01332589 0.01438248 0.0148511 0.01493655 0.01506008 1000 0.01415187 0.01451875 0.01456438 0.01458068 0.01509858 1000 0.01415187 0.01451875 0.01456438 0.01458068 0.01509858 1000
lala 8 1.2 0 first 1 1 106 4 4.12 1.51999688148499 -1 1 -1 0 0.0161601 0.01647876 0.01643056 1000 1000 1000 0.0161601 0.01647876 0.01643056 1000 1000 1000 0.01532342 0.01591993 0.01703481 0.01723654 0.01716913 1000 0.01532342 0.01591993 0.01703481 0.01723654 0.01716913 1000
lala 7 1.2 1 first 17 1 107 6 5.580001 1.37999701499939 0 1 1 0 0.01869249 0.01829941 0.0180642 1000 1000 1000 0.01869249 0.01829941 0.0180642 1000 1000 1000 0.01873164 0.01899862 0.01893077 0.01911266 0.01901893 1000 0.01873164 0.01899862 0.01893077 0.01911266 0.01901893 1000
lala 4 1.2 1 first 15 1 108 5 3.05 0.579997777938843 0 1 1 1 0.01881396 0.01906765 0.01862914 1000 1000 1000 0.01881396 0.01906765 0.01862914 1000 1000 1000 0.001914424 0.0003149502 -0.003690659 -0.004685611 -0.003639075 1000 0.001914424 0.0003149502 -0.003690659 -0.004685611 -0.003639075 1000
lala 8 1.2 0 first 11 1 109 6 4.380001 0.959997415542603 1 1 -1 1 0.0100316 0.01105102 0.01228258 1000 1000 1000 0.0100316 0.01105102 0.01228258 1000 1000 1000 -0.007020784 -0.01022246 -0.01183797 -0.01170904 -0.009821455 1000 -0.007020784 -0.01022246 -0.01183797 -0.01170904 -0.009821455 1000
lala 4 1.2 1 second 6 1 110 4 3.84 1.23999714851379 1 0 1 1 0.003433391 0.004418049 0.004301575 0.003559951 0.00367799 1000 0.003433391 0.004418049 0.004301575 0.003559951 0.00367799 1000 0.004637646 0.00546099 0.005949596 0.007189868 0.008143578 1000 0.004637646 0.00546099 0.005949596 0.007189868 0.008143578 1000
lala 5 1.2 0 first 15 1 111 5 1.85 0.23999810218811 0 1 -1 1 0.009943108 0.01005796 0.009757509 1000 1000 1000 0.009943108 0.01005796 0.009757509 1000 1000 1000 0.01072466 0.01063548 0.01082687 0.01173367 0.01181751 1000 0.01072466 0.01063548 0.01082687 0.01173367 0.01181751 1000
lala 10 0.6 1 second 3 1 112 5 6.050001 0.359997987747192 -1 1 1 0 0.01319156 0.01245124 0.01230962 0.01244685 0.01257804 1000 0.01319156 0.01245124 0.01230962 0.01244685 0.01257804 1000 0.0135571 0.01360319 0.01387954 0.01352719 0.01354603 1000 0.0135571 0.01360319 0.01387954 0.01352719 0.01354603 1000
lala 5 1.2 1 second 4 1 113 6 6.36 0.279998064041138 -1 0 1 0 0.01409179 0.01437029 0.0140121 0.01467817 0.01552024 1000 0.01409179 0.01437029 0.0140121 0.01467817 0.01552024 1000 0.01492711 0.01461389 0.01463529 0.01491589 0.01515331 1000 0.01492711 0.01461389 0.01463529 0.01491589 0.01515331 1000
lala 11 0.6 0 first 3 1 114 5 5.450001 0.359997987747192 -1 1 -1 1 0.01523755 0.01529865 0.01443899 1000 1000 1000 0.01523755 0.01529865 0.01443899 1000 1000 1000 0.0138974 0.01374608 0.01415357 0.01389557 0.01367789 1000 0.0138974 0.01374608 0.01415357 0.01389557 0.01367789 1000
lala 8 1.2 1 second 8 1 115 5 4.5 0.159998178482056 1 0 1 1 0.0119416 0.01208412 0.01169208 0.01143303 0.01214067 1000 0.0119416 0.01208412 0.01169208 0.01143303 0.01214067 1000 0.0113242 0.01097166 0.01096878 0.01130054 0.01131115 1000 0.0113242 0.01097166 0.01096878 0.01130054 0.01131115 1000
lala 6 1.2 1 second 4 1 116 6 5.16 0.319998025894165 -1 0 1 0 0.01036705 0.01068449 0.01111505 0.01106168 0.01076701 1000 0.01036705 0.01068449 0.01111505 0.01106168 0.01076701 1000 0.01152832 0.01162119 0.01237122 0.01178728 0.01138256 1000 0.01152832 0.01162119 0.01237122 0.01178728 0.01138256 1000
lala 12 0.3 0 first 3 1 117 5 5.750001 0.419997930526733 -1 1 -1 1 0.01263032 0.01270031 0.01187951 1000 1000 1000 0.01263032 0.01270031 0.01187951 1000 1000 1000 0.0106926 0.01053647 0.01011183 0.01078031 0.01080635 1000 0.0106926 0.01053647 0.01011183 0.01078031 0.01080635 1000
lala 9 1.2 0 first 8 1 118 5 3.3 0.659997701644897 1 0 -1 1 0.01031684 0.01009702 0.01032791 1000 1000 1000 0.01031684 0.01009702 0.01032791 1000 1000 1000 0.01006124 0.009473289 0.009145031 0.01013594 0.01049825 1000 0.01006124 0.009473289 0.009145031 0.01013594 0.01049825 1000
lala 8 1.2 0 first 17 1 119 6 4.380001 0.539997816085815 0 1 -1 0 0.01004725 0.009489483 0.008565238 1000 1000 1000 0.01004725 0.009489483 0.008565238 1000 1000 1000 0.008665605 0.008785732 0.009153359 0.009138864 0.00796932 1000 0.008665605 0.008785732 0.009153359 0.009138864 0.00796932 1000
lala 5 1.2 0 second 6 1 120 4 2.64 0.639997720718384 1 0 -1 1 0.0006034228 0.003475307 0.009701072 0.01222762 0.01039532 1000 0.0006034228 0.003475307 0.009701072 0.01222762 0.01039532 1000 0.005064423 0.005926229 0.00565889 0.003608596 0.002360827 1000 0.005064423 0.005926229 0.00565889 0.003608596 0.002360827 1000
lala 11 0.6 0 second 12 1 121 4 2.04 0.679997682571411 0 0 -1 1 0.008608597 0.008908915 0.009838574 0.01143111 0.01189074 1000 0.008608597 0.008908915 0.009838574 0.01143111 0.01189074 1000 0.01174031 0.01176922 0.01258928 0.0126089 0.01302683 1000 0.01174031 0.01176922 0.01258928 0.0126089 0.01302683 1000
lala 6 1.2 1 first 6 1 122 4 3.84 0.819997549057007 1 0 1 1 0.01414562 0.01388313 0.0131312 1000 1000 1000 0.01414562 0.01388313 0.0131312 1000 1000 1000 0.01521499 0.01518124 0.01538929 0.01593542 0.01580212 1000 0.01521499 0.01518124 0.01538929 0.01593542 0.01580212 1000
lala 6 1.2 1 second 2 1 123 5 4.5 0.279998064041138 -1 0 1 1 0.01663284 0.01624674 0.01607147 0.017112 0.01731097 1000 0.01663284 0.01624674 0.01607147 0.017112 0.01731097 1000 0.01773211 0.01722642 0.0173883 0.01703655 0.01663664 1000 0.01773211 0.01722642 0.0173883 0.01703655 0.01663664 1000
lala 9 1.2 1 first 11 1 124 6 5.580001 1.83999681472778 1 1 1 0 0.006335804 0.010705 0.01293589 1000 1000 1000 0.006335804 0.010705 0.01293589 1000 1000 1000 -0.001368511 -0.003020007 -0.003620462 -0.003847226 -0.003819846 1000 -0.001368511 -0.003020007 -0.003620462 -0.003847226 -0.003819846 1000
lala 9 1.2 1 second 1 1 125 4 5.32 0.679997682571411 -1 1 1 0 -0.003056978 -0.003086566 -0.003307087 -0.002902179 -0.003124245 1000 -0.003056978 -0.003086566 -0.003307087 -0.002902179 -0.003124245 1000 -0.006044225 -0.006215431 -0.005449336 -0.005440158 -0.008150795 1000 -0.006044225 -0.006215431 -0.005449336 -0.005440158 -0.008150795 1000
lala 10 0.6 0 second 8 1 126 5 3.9 1.81999683380127 1 0 -1 1 -0.009306609 -0.008970547 -0.008511274 -0.008455292 -0.008817996 1000 -0.009306609 -0.008970547 -0.008511274 -0.008455292 -0.008817996 1000 -0.01085266 -0.01122739 -0.01090159 -0.01013097 -0.01054073 1000 -0.01085266 -0.01122739 -0.01090159 -0.01013097 -0.01054073 1000
lala 13 0.3 0 first 3 1 127 5 6.050001 0.499997854232788 -1 1 -1 0 0.001607484 0.00120913 0.0007628187 1000 1000 1000 0.001607484 0.00120913 0.0007628187 1000 1000 1000 -0.009431715 -0.006183244 -0.003559768 -0.004137852 -0.003946648 1000 -0.009431715 -0.006183244 -0.003559768 -0.004137852 -0.003946648 1000
lala 7 1.2 0 first 14 1 128 5 3.3 0.519997835159302 0 0 -1 0 -0.002068477 -0.0005460356 0.0002139232 1000 1000 1000 -0.002068477 -0.0005460356 0.0002139232 1000 1000 1000 -0.001846418 -0.001260928 -0.001115853 -0.001327129 -0.001914001 1000 -0.001846418 -0.001260928 -0.001115853 -0.001327129 -0.001914001 1000
lala 10 0.6 1 second 11 1 129 6 4.980001 0.219998121261597 1 1 1 0 -0.003979596 -0.004282359 -0.003902646 -0.003878705 -0.003895217 1000 -0.003979596 -0.004282359 -0.003902646 -0.003878705 -0.003895217 1000 -0.002742497 -0.002472279 -0.002077018 -0.002392601 -0.002735539 1000 -0.002742497 -0.002472279 -0.002077018 -0.002392601 -0.002735539 1000
lala 10 1.2 1 first 10 1 130 6 5.16 0.539997816085815 1 0 1 1 -0.002255118 -0.00220564 -0.002227979 1000 1000 1000 -0.002255118 -0.00220564 -0.002227979 1000 1000 1000 -0.001513791 -0.001296246 -0.001071544 -0.001010371 -0.000790522 1000 -0.001513791 -0.001296246 -0.001071544 -0.001010371 -0.000790522 1000
lala 12 0.15 0 second 13 1 131 4 3.37 0.279998064041138 0 1 -1 1 -0.0008820657 -0.0005376929 -0.0005568197 -0.0007969584 -0.00115838 1000 -0.0008820657 -0.0005376929 -0.0005568197 -0.0007969584 -0.00115838 1000 0.0003117178 5.231404E-05 0.0005366739 0.001130638 0.001159315 1000 0.0003117178 5.231404E-05 0.0005366739 0.001130638 0.001159315 1000
lala 6 1.2 1 first 5 1 132 6 6.780001 0.61999773979187 -1 1 1 1 -0.0002865604 -0.0004129154 -0.0007208972 1000 1000 1000 -0.0002865604 -0.0004129154 -0.0007208972 1000 1000 1000 0.0005221615 0.0008445812 0.001024381 0.0009407912 0.0007319254 1000 0.0005221615 0.0008445812 0.001024381 0.0009407912 0.0007319254 1000
lala 4 1.2 1 second 16 1 133 6 7.559999 1.77999687194824 0 0 1 0 0.002207359 0.002366463 0.002422269 0.002151318 0.002521481 1000 0.002207359 0.002366463 0.002422269 0.002151318 0.002521481 1000 0.002901723 0.002931492 0.002783946 0.002743264 0.002346708 1000 0.002901723 0.002931492 0.002783946 0.002743264 0.002346708 1000
lala 11 0.6 1 second 10 1 134 6 4.56 0.979997396469116 1 0 1 1 0.00380322 0.003764882 0.003904339 0.003890685 0.003478857 1000 0.00380322 0.003764882 0.003904339 0.003890685 0.003478857 1000 0.006260069 0.007158397 0.008120369 0.008507637 0.00757199 1000 0.006260069 0.007158397 0.008120369 0.008507637 0.00757199 1000
lala 6 1.2 1 first 15 1 135 5 3.05 0.479997873306274 0 1 1 1 0.005917719 0.005589813 0.007076538 1000 1000 1000 0.005917719 0.005589813 0.007076538 1000 1000 1000 0.007864661 0.007722388 0.006618885 0.008119218 0.008421249 1000 0.007864661 0.007722388 0.006618885 0.008119218 0.008421249 1000
lala 7 1.2 1 second 4 1 136 6 3.96 0.339998006820679 -1 0 1 1 0.006922208 0.007155409 0.00703221 0.007800848 0.008217415 1000 0.006922208 0.007155409 0.00703221 0.007800848 0.008217415 1000 0.008855956 0.009435647 0.009928875 0.00988947 0.01014727 1000 0.008855956 0.009435647 0.009928875 0.00988947 0.01014727 1000
lala 12 0.6 1 first 12 1 137 4 2.64 0.479997873306274 0 0 1 1 0.01032557 0.01075063 0.01033036 1000 1000 1000 0.01032557 0.01075063 0.01033036 1000 1000 1000 0.00825953 0.008626283 0.008559179 0.008735604 0.009034173 1000 0.00825953 0.008626283 0.008559179 0.008735604 0.009034173 1000
lala 11 0.6 0 first 11 1 138 6 4.380001 0.339998006820679 1 1 -1 1 0.0082569 0.00848639 0.008762002 1000 1000 1000 0.0082569 0.00848639 0.008762002 1000 1000 1000 0.008135623 0.008094748 0.007794386 0.008303652 0.008960802 1000 0.008135623 0.008094748 0.007794386 0.008303652 0.008960802 1000
lala 7 1.2 0 second 2 1 139 5 3.3 0.439997911453247 -1 0 -1 0 0.007197678 0.006733795 0.007374152 0.007601528 0.007491947 1000 0.007197678 0.006733795 0.007374152 0.007601528 0.007491947 1000 0.00672466 0.006269412 0.006498194 0.006395992 0.006668602 1000 0.00672466 0.006269412 0.006498194 0.006395992 0.006668602 1000
lala 7 1.2 0 first 6 1 140 4 2.64 0.479997873306274 1 0 -1 1 0.007151522 0.007090824 0.007163002 1000 1000 1000 0.007151522 0.007090824 0.007163002 1000 1000 1000 0.008772178 0.008651201 0.008471938 0.008853059 0.008562768 1000 0.008772178 0.008651201 0.008471938 0.008853059 0.008562768 1000
lala 13 0.15 1 second 13 1 141 4 3.52 2.91999578475952 0 1 1 1 0.007956247 0.008191315 0.008115834 0.008661799 0.009097064 1000 0.007956247 0.008191315 0.008115834 0.008661799 0.009097064 1000 0.01003477 0.009870067 0.009681633 0.009217931 0.008873226 1000 0.01003477 0.009870067 0.009681633 0.009217931 0.008873226 1000
lala 8 1.2 0 second 6 1 142 4 3.84 0.479997873306274 1 0 -1 0 0.006786304 0.006885162 0.007096267 0.007130068 0.007709736 1000 0.006786304 0.006885162 0.007096267 0.007130068 0.007709736 1000 0.009730186 0.009438167 0.007731695 0.00660846 0.006674362 1000 0.009730186 0.009438167 0.007731695 0.00660846 0.006674362 1000
lala 13 0.3 0 second 12 1 143 4 2.34 0.359997987747192 0 0 -1 1 0.007859951 0.007606947 0.007484323 0.006924666 0.006751665 1000 0.007859951 0.007606947 0.007484323 0.006924666 0.006751665 1000 0.007573109 0.008000896 0.008013322 0.008084157 0.008290497 1000 0.007573109 0.008000896 0.008013322 0.008084157 0.008290497 1000
lala 12 0.3 1 second 11 1 144 6 4.680001 0.359997987747192 1 1 1 1 0.008424669 0.008756772 0.008462575 0.008336405 0.008395339 1000 0.008424669 0.008756772 0.008462575 0.008336405 0.008395339 1000 0.007846871 0.00706732 0.006690239 0.006564477 0.006447761 1000 0.007846871 0.00706732 0.006690239 0.006564477 0.006447761 1000
lala 10 0.6 1 second 1 1 145 4 4.72 1.37999701499939 -1 1 1 0 0.006007268 0.006346866 0.007288222 0.007791302 0.006980458 1000 0.006007268 0.006346866 0.007288222 0.007791302 0.006980458 1000 0.007296477 0.007491318 0.008370365 0.008248689 0.008255205 1000 0.007296477 0.007491318 0.008370365 0.008248689 0.008255205 1000
lala 9 1.2 1 first 6 1 146 4 5.04 0.259998083114624 1 0 1 0 0.006499785 0.006008556 0.006673085 1000 1000 1000 0.006499785 0.006008556 0.006673085 1000 1000 1000 0.006487219 0.007045055 0.006889092 0.005500788 0.004705016 1000 0.006487219 0.007045055 0.006889092 0.005500788 0.004705016 1000
lala 7 1.2 0 first 15 1 147 5 1.85 0.0999982357025146 0 1 -1 0 0.004685735 0.005789604 0.005423336 1000 1000 1000 0.004685735 0.005789604 0.005423336 1000 1000 1000 0.002491622 0.00415851 0.005043197 0.004982148 0.004702278 1000 0.002491622 0.00415851 0.005043197 0.004982148 0.004702278 1000
lala 14 0.15 0 first 12 1 148 4 2.49 0.199998140335083 0 0 -1 0 0.003628854 0.003542162 0.003477961 1000 1000 1000 0.003628854 0.003542162 0.003477961 1000 1000 1000 0.001171113 0.001573665 0.001495232 0.001208125 0.001016587 1000 0.001171113 0.001573665 0.001495232 0.001208125 0.001016587 1000
lala 4 1.2 1 second 9 1 149 5 3.05 0.379997968673706 1 1 1 0 0.001053209 0.0009650464 0.000644099 0.001071501 0.001404253 1000 0.001053209 0.0009650464 0.000644099 0.001071501 0.001404253 1000 0.0005316376 0.0006958267 0.0004451272 0.0002803162 0.0002161496 1000 0.0005316376 0.0006958267 0.0004451272 0.0002803162 0.0002161496 1000
lala 8 1.2 0 first 15 1 150 5 3.05 0.01999831199646 0 1 -1 0 -0.002932224 -0.001970455 -0.001306443 -0.0006024239 -1.048232E-05 0.0001121717 -0.002932224 -0.001970455 -0.001306443 -0.0006024239 -1.048232E-05 0.0001121717 0.002973408 0.00588588 0.006429929 0.008169473 0.008929781 1000 0.002973408 0.00588588 0.006429929 0.008169473 0.008929781 1000
lala 9 1.2 1 second 15 1 151 5 4.25 4.99999380111694 0 1 1 1 0.008536545 0.00915282 0.009406154 0.01023982 0.01014198 1000 0.008536545 0.00915282 0.009406154 0.01023982 0.01014198 1000 0.0108111 0.01096712 0.01110658 0.01107937 0.01161047 1000 0.0108111 0.01096712 0.01110658 0.01107937 0.01161047 1000
lala 15 0.15 1 second 12 1 152 4 2.64 0.01999831199646 0 0 1 1 0.01274255 0.01332265 0.0129984 0.01215146 0.01166407 1000 0.01274255 0.01332265 0.0129984 0.01215146 0.01166407 1000 0.009742736 0.008509762 0.008817636 0.01076499 0.0125526 1000 0.009742736 0.008509762 0.008817636 0.01076499 0.0125526 1000
lala 11 0.6 0 second 1 1 153 4 4.12 0.61999773979187 -1 1 -1 1 0.005133645 -0.0002296784 -0.004818318 -0.005003917 -0.003646587 1000 0.005133645 -0.0002296784 -0.004818318 -0.005003917 -0.003646587 1000 0.003834503 0.000339451 7.611037E-05 0.0009374018 0.001075132 1000 0.003834503 0.000339451 7.611037E-05 0.0009374018 0.001075132 1000
lala 16 0.075 1 second 12 1 154 4 2.565 0.01999831199646 0 0 1 1 0.002136887 0.001687532 0.002303725 0.00216068 0.001476784 1000 0.002136887 0.001687532 0.002303725 0.00216068 0.001476784 1000 -0.001135324 -0.0006857005 -0.0001882811 -7.574572E-05 -0.0001755304 1000 -0.001135324 -0.0006857005 -0.0001882811 -7.574572E-05 -0.0001755304 1000
lala 5 1.2 1 second 16 1 155 6 6.36 0.139998197555542 0 0 1 1 2.053756E-06 0.0004727267 0.0007083236 0.001469285 0.001586945 1000 2.053756E-06 0.0004727267 0.0007083236 0.001469285 0.001586945 1000 0.003157533 0.003630187 0.003769262 0.003804587 0.004776916 1000 0.003157533 0.003630187 0.003769262 0.003804587 0.004776916 1000
lala 9 1.2 1 first 17 1 156 6 5.580001 0.179998159408569 0 1 1 1 0.004799193 0.004406172 0.00520921 1000 1000 1000 0.004799193 0.004406172 0.00520921 1000 1000 1000 0.006565917 0.00637543 0.006981593 0.007754714 0.008070267 1000 0.006565917 0.00637543 0.006981593 0.007754714 0.008070267 1000
lala 10 0.6 1 first 6 1 157 4 4.44 0.299998044967651 1 0 1 0 0.009837453 0.009407986 0.009035829 1000 1000 1000 0.009837453 0.009407986 0.009035829 1000 1000 1000 0.009858378 0.01002184 0.01010209 0.01013646 0.01023358 1000 0.009858378 0.01002184 0.01010209 0.01013646 0.01023358 1000
lala 11 0.6 0 first 8 1 158 5 4.5 0.319998025894165 1 0 -1 1 0.01114732 0.01083477 0.01014381 1000 1000 1000 0.01114732 0.01083477 0.01014381 1000 1000 1000 0.01177731 0.01099084 0.01115911 0.01214181 0.01270074 1000 0.01177731 0.01099084 0.01115911 0.01214181 0.01270074 1000
lala 10 0.6 1 second 17 1 159 6 4.980001 0.219998121261597 0 1 1 1 0.01335394 0.01336885 0.01460307 0.01483935 0.01441637 1000 0.01335394 0.01336885 0.01460307 0.01483935 0.01441637 1000 0.01359159 0.0130875 0.01331912 0.01291973 0.01279747 1000 0.01359159 0.0130875 0.01331912 0.01291973 0.01279747 1000
lala 13 0.15 1 second 11 1 160 6 4.530001 0.379997968673706 1 1 1 0 0.01192403 0.01214535 0.01227969 0.01216738 0.01218061 1000 0.01192403 0.01214535 0.01227969 0.01216738 0.01218061 1000 0.01195473 0.01124592 0.0116266 0.01235543 0.01219318 1000 0.01195473 0.01124592 0.0116266 0.01235543 0.01219318 1000
lala 8 1.2 0 second 2 1 161 5 4.5 0.439997911453247 -1 0 -1 0 0.008924907 0.007961254 0.005997983 0.005096801 0.003983871 1000 0.008924907 0.007961254 0.005997983 0.005096801 0.003983871 1000 -0.004354433 -0.0009469343 0.00131934 0.001643692 0.00266635 1000 -0.004354433 -0.0009469343 0.00131934 0.001643692 0.00266635 1000
lala 11 0.6 0 second 6 1 162 4 3.84 0.479997873306274 1 0 -1 0 0.01404272 0.01414401 0.01568577 0.01705094 0.01762292 1000 0.01404272 0.01414401 0.01568577 0.01705094 0.01762292 1000 0.01824158 0.01767278 0.01766266 0.01717455 0.01759148 1000 0.01824158 0.01767278 0.01766266 0.01717455 0.01759148 1000
lala 5 1.2 1 first 7 1 163 4 2.92 0.419997930526733 1 1 1 1 0.02031226 0.02039346 0.02020519 1000 1000 1000 0.02031226 0.02039346 0.02020519 1000 1000 1000 0.01990798 0.0202154 0.01979473 0.01980989 0.01924665 1000 0.01990798 0.0202154 0.01979473 0.01980989 0.01924665 1000
lala 8 1.2 0 first 4 1 164 6 2.76 0.419997930526733 -1 0 -1 0 0.02011702 0.02100138 0.02062547 1000 1000 1000 0.02011702 0.02100138 0.02062547 1000 1000 1000 0.02013402 0.02072872 0.02087883 0.02074055 0.02052107 1000 0.02013402 0.02072872 0.02087883 0.02074055 0.02052107 1000
lala 5 1.2 1 first 9 1 165 5 1.85 0.01999831199646 1 1 1 1 0.01941953 0.01943699 0.0200854 1000 1000 1000 0.01941953 0.01943699 0.0200854 1000 1000 1000 0.01870138 0.0191107 0.0196022 0.01932748 0.01934453 1000 0.01870138 0.0191107 0.0196022 0.01932748 0.01934453 1000
lala 14 0.15 0 first 11 1 166 6 4.380001 0.739997625350952 1 1 -1 0 0.01897086 0.01980602 0.01974439 1000 1000 1000 0.01897086 0.01980602 0.01974439 1000 1000 1000 0.01822968 0.01849396 0.01864499 0.01851556 0.01853439 1000 0.01822968 0.01849396 0.01864499 0.01851556 0.01853439 1000
lala 12 0.3 0 second 1 1 167 4 4.42 0.499997854232788 -1 1 -1 1 0.01924451 0.01897405 0.01859576 0.01863851 0.01791136 1000 0.01924451 0.01897405 0.01859576 0.01863851 0.01791136 1000 0.01854528 0.01870288 0.01949813 0.01933069 0.0189646 1000 0.01854528 0.01870288 0.01949813 0.01933069 0.0189646 1000
lala 13 0.3 1 second 1 1 168 4 4.72 0.61999773979187 -1 1 1 0 0.01832251 0.01893402 0.01941308 0.01913506 0.01893158 1000 0.01832251 0.01893402 0.01941308 0.01913506 0.01893158 1000 0.02034305 0.02019404 0.01975084 0.0197406 0.01947862 1000 0.02034305 0.02019404 0.01975084 0.0197406 0.01947862 1000
lala 10 0.6 0 second 15 1 169 5 3.65 0.99999737739563 0 1 -1 0 0.02457751 0.02511306 0.02583233 0.0266169 0.02541532 1000 0.02457751 0.02511306 0.02583233 0.0266169 0.02541532 1000 0.0273361 0.02832909 0.02861582 0.02589252 0.01964275 1000 0.0273361 0.02832909 0.02861582 0.02589252 0.01964275 1000
lala 15 0.075 0 first 11 1 170 6 4.455001 0.299998044967651 1 1 -1 1 0.005248253 0.005437213 0.005244134 1000 1000 1000 0.005248253 0.005437213 0.005244134 1000 1000 1000 -0.007485693 -0.002877253 -0.001511319 0.00336079 0.008391379 1000 -0.007485693 -0.002877253 -0.001511319 0.00336079 0.008391379 1000
lala 6 1.2 0 first 7 1 171 4 1.72 0.01999831199646 1 1 -1 1 0.01366591 0.01049534 0.01199338 1000 1000 1000 0.01366591 0.01049534 0.01199338 1000 1000 1000 0.004125691 0.004359479 0.005202204 0.005432635 0.005842079 1000 0.004125691 0.004359479 0.005202204 0.005432635 0.005842079 1000
lala 6 1.2 0 first 16 1 172 6 5.16 0.799997568130493 0 0 -1 1 0.004439528 0.00527416 0.005595764 1000 1000 1000 0.004439528 0.00527416 0.005595764 1000 1000 1000 0.006575629 0.00649048 0.007059036 0.007016151 0.007395501 1000 0.006575629 0.00649048 0.007059036 0.007016151 0.007395501 1000
lala 16 0.075 1 first 11 1 173 6 4.530001 0.639997720718384 1 1 1 1 0.008021985 0.008697921 0.0080679 1000 1000 1000 0.008021985 0.008697921 0.0080679 1000 1000 1000 0.00843141 0.01037468 0.0105154 0.01260943 0.01428402 1000 0.00843141 0.01037468 0.0105154 0.01260943 0.01428402 1000
lala 17 0.0375 0 first 11 1 174 6 4.492501 0.319998025894165 1 1 -1 1 0.01854946 0.01996814 0.02043789 1000 1000 1000 0.01854946 0.01996814 0.02043789 1000 1000 1000 0.02043048 0.02065974 0.02037641 0.02067892 0.02038102 1000 0.02043048 0.02065974 0.02037641 0.02067892 0.02038102 1000
lala 14 0.15 1 second 1 1 175 4 4.57 2.159996509552 -1 1 1 1 0.0242503 0.02446724 0.0245453 0.0244027 0.02380968 1000 0.0242503 0.02446724 0.0245453 0.0244027 0.02380968 1000 0.01296743 0.008800883 0.008779904 0.004953283 0.0009578947 1000 0.01296743 0.008800883 0.008779904 0.004953283 0.0009578947 1000
lala 17 0.075 0 second 12 1 176 4 2.49 1.37999701499939 0 0 -1 1 0.005012818 0.005776898 0.005071301 0.00295972 0.002360337 1000 0.005012818 0.005776898 0.005071301 0.00295972 0.002360337 1000 0.004084196 0.002718646 0.00214765 0.003310996 0.003289457 1000 0.004084196 0.002718646 0.00214765 0.003310996 0.003289457 1000
lala 14 0.3 1 first 3 1 177 5 6.350001 0.61999773979187 -1 1 1 0 0.001938639 0.002023086 0.002954844 1000 1000 1000 0.001938639 0.002023086 0.002954844 1000 1000 1000 0.009514683 0.008929177 0.008779584 0.01166354 0.01056441 1000 0.009514683 0.008929177 0.008779584 0.01166354 0.01056441 1000
lala 4 1.2 1 first 0 1 178 4 3.84 0.939997434616089 -1 0 1 1 0.0125699 0.01257886 0.01341213 1000 1000 1000 0.0125699 0.01257886 0.01341213 1000 1000 1000 0.0145139 0.0151236 0.01413672 0.01253213 0.01089133 1000 0.0145139 0.0151236 0.01413672 0.01253213 0.01089133 1000
lala 6 1.2 0 second 9 1 179 5 1.65 0.439997911453247 1 1 -1 1 0.01320446 0.0137467 0.01356236 0.01322485 0.01350959 1000 0.01320446 0.0137467 0.01356236 0.01322485 0.01350959 1000 0.009415285 0.009272093 0.009690881 0.01037148 0.01090929 1000 0.009415285 0.009272093 0.009690881 0.01037148 0.01090929 1000
lala 5 1.2 0 first 0 1 180 4 2.64 0.199998140335083 -1 0 -1 0 0.01247645 0.01218154 0.01233044 1000 1000 1000 0.01247645 0.01218154 0.01233044 1000 1000 1000 0.01409661 0.01370725 0.01445685 0.01541693 0.01579978 1000 0.01409661 0.01370725 0.01445685 0.01541693 0.01579978 1000
lala 8 1.2 1 first 14 1 181 5 4.5 0.379997968673706 0 0 1 0 0.01696246 0.0168663 0.01728076 1000 1000 1000 0.01696246 0.0168663 0.01728076 1000 1000 1000 0.01744689 0.0175454 0.01808715 0.01851479 0.0183291 1000 0.01744689 0.0175454 0.01808715 0.01851479 0.0183291 1000
lala 12 0.6 1 second 10 1 182 6 3.96 0.459997892379761 1 0 1 0 0.01897181 0.01891505 0.01892024 0.01904346 0.01990138 1000 0.01897181 0.01891505 0.01892024 0.01904346 0.01990138 1000 0.02018929 0.02000228 0.01980283 0.0199449 0.02014317 1000 0.02018929 0.02000228 0.01980283 0.0199449 0.02014317 1000
lala 15 0.15 0 first 1 1 183 4 4.42 0.339998006820679 -1 1 -1 1 0.02014349 0.02037467 0.02086155 1000 1000 1000 0.02014349 0.02037467 0.02086155 1000 1000 1000 0.01609405 0.0172452 0.01800436 0.01804849 0.01767527 1000 0.01609405 0.0172452 0.01800436 0.01804849 0.01767527 1000
lala 18 0.0375 1 second 12 1 184 4 2.5275 1.25999712944031 0 0 1 1 0.01648721 0.01671812 0.01647649 0.01648822 0.01752208 1000 0.01648721 0.01671812 0.01647649 0.01648822 0.01752208 1000 0.01751629 0.01789767 0.01842525 0.01808225 0.01819996 1000 0.01751629 0.01789767 0.01842525 0.01808225 0.01819996 1000
lala 12 0.3 0 first 6 1 185 4 4.14 0.659997701644897 1 0 -1 0 0.02024381 0.02045135 0.02046397 1000 1000 1000 0.02024381 0.02045135 0.02046397 1000 1000 1000 0.0184611 0.01883488 0.01852216 0.01818482 0.01828472 1000 0.0184611 0.01883488 0.01852216 0.01818482 0.01828472 1000
lala 7 1.2 0 second 9 1 186 5 2.85 0.519997835159302 1 1 -1 0 0.0319954 0.03808095 0.04270669 0.03690296 0.0171349 1000 0.0319954 0.03808095 0.04270669 0.03690296 0.0171349 1000 -0.01113276 -0.01094268 -0.009596236 -0.01000751 -0.01184629 1000 -0.01113276 -0.01094268 -0.009596236 -0.01000751 -0.01184629 1000
lala 14 0.075 1 first 13 1 187 4 3.445 0.279998064041138 0 1 1 0 -0.009838887 -0.009347777 -0.008797016 1000 1000 1000 -0.009838887 -0.009347777 -0.008797016 1000 1000 1000 -0.002565217 -0.002348289 -0.002074246 -0.001929441 -0.000827563 1000 -0.002565217 -0.002348289 -0.002074246 -0.001929441 -0.000827563 1000
lala 6 1.2 1 second 0 1 188 4 3.84 0.139998197555542 -1 0 1 1 0.0008854084 0.000826954 0.0009269349 0.001167059 0.001060571 1000 0.0008854084 0.000826954 0.0009269349 0.001167059 0.001060571 1000 0.002594243 0.003639465 0.004996117 0.005570577 0.005791226 1000 0.002594243 0.003639465 0.004996117 0.005570577 0.005791226 1000
lala 9 1.2 1 second 2 1 189 5 5.7 0.779997587203979 -1 0 1 1 0.01296774 0.01187546 0.01183397 0.01210016 0.01231165 1000 0.01296774 0.01187546 0.01183397 0.01210016 0.01231165 1000 0.009785614 0.009160791 0.0110125 0.01244254 0.01097536 1000 0.009785614 0.009160791 0.0110125 0.01244254 0.01097536 1000
lala 9 1.2 0 first 4 1 190 6 3.96 0.379997968673706 -1 0 -1 1 0.01468842 0.01645566 0.01771006 1000 1000 1000 0.01468842 0.01645566 0.01771006 1000 1000 1000 -0.0258672 -0.02042354 -0.01521811 -0.01528769 -0.01907677 1000 -0.0258672 -0.02042354 -0.01521811 -0.01528769 -0.01907677 1000
lala 10 1.2 0 second 4 1 191 6 5.16 0.119998216629028 -1 0 -1 1 -0.02387297 -0.01900795 -0.01357549 -0.01148301 -0.0114606 1000 -0.02387297 -0.01900795 -0.01357549 -0.01148301 -0.0114606 1000 -0.004601884 -0.003488671 -0.003257336 -0.002830392 -0.002492104 1000 -0.004601884 -0.003488671 -0.003257336 -0.002830392 -0.002492104 1000
lala 13 0.3 1 first 6 1 192 4 4.440001 1.03999733924866 1 0 1 1 -0.001619091 -0.00283868 -0.002618443 1000 1000 1000 -0.001619091 -0.00283868 -0.002618443 1000 1000 1000 -5.366146E-05 0.0005520174 0.0007232074 0.0004271014 0.0003512259 1000 -5.366146E-05 0.0005520174 0.0007232074 0.0004271014 0.0003512259 1000
lala 16 0.075 1 second 1 1 193 4 4.495 1.93999671936035 -1 1 1 1 0.002938818 0.003688018 0.004583508 0.005074197 0.005104655 1000 0.002938818 0.003688018 0.004583508 0.005074197 0.005104655 1000 0.007053639 0.00717691 0.007313868 0.007084201 0.007511256 1000 0.007053639 0.00717691 0.007313868 0.007084201 0.007511256 1000
lala 12 0.6 0 second 8 1 194 5 5.1 0.01999831199646 1 0 -1 1 0.01442518 0.01466682 0.01471059 0.01452578 0.01500945 1000 0.01442518 0.01466682 0.01471059 0.01452578 0.01500945 1000 0.01638682 0.01707842 0.01696216 0.01705844 0.01662264 1000 0.01638682 0.01707842 0.01696216 0.01705844 0.01662264 1000
lala 17 0.0375 1 second 1 1 195 4 4.4575 0.01999831199646 -1 1 1 1 0.01236275 0.01199044 0.01173694 0.01223685 0.01265109 1000 0.01236275 0.01199044 0.01173694 0.01223685 0.01265109 1000 0.0126156 0.01261697 0.01261911 0.01246651 0.01267552 1000 0.0126156 0.01261697 0.01261911 0.01246651 0.01267552 1000
lala 15 0.075 0 first 13 1 196 4 3.37 0.199998140335083 0 1 -1 1 0.01330426 0.01340194 0.01259042 1000 1000 1000 0.01330426 0.01340194 0.01259042 1000 1000 1000 0.01130081 0.01129732 0.0116494 0.01117729 0.01117467 1000 0.01130081 0.01129732 0.0116494 0.01117729 0.01117467 1000
lala 16 0.0375 0 first 13 1 197 4 3.4075 3.29999542236328 0 1 -1 0 0.01117067 0.0104398 0.01043164 1000 1000 1000 0.01117067 0.0104398 0.01043164 1000 1000 1000 0.01022299 0.009854245 0.009138418 0.008471491 0.007684274 1000 0.01022299 0.009854245 0.009138418 0.008471491 0.007684274 1000
lala 8 1.2 0 second 9 1 198 5 4.05 3.43999528884888 1 1 -1 1 0.003924758 0.004027718 0.004811669 0.004903288 0.004852267 1000 0.003924758 0.004027718 0.004811669 0.004903288 0.004852267 1000 0.00561955 0.005949013 0.006078122 0.005737022 0.005880575 1000 0.00561955 0.005949013 0.006078122 0.005737022 0.005880575 1000
lala 11 2.4 0 first 4 1 199 6 7.56 0.539997816085815 -1 0 -1 0 0.01153089 0.01184653 0.01191195 1000 1000 1000 0.01153089 0.01184653 0.01191195 1000 1000 1000 0.01237527 0.01274267 0.01342946 0.01401937 0.01406411 1000 0.01237527 0.01274267 0.01342946 0.01401937 0.01406411 1000
lala 7 1.2 0 second 0 1 200 4 2.64 0.199998140335083 -1 0 -1 0 0.01213266 0.01423925 0.0143249 0.0140588 0.01537664 1000 0.01213266 0.01423925 0.0143249 0.0140588 0.01537664 1000 0.0191176 0.02035773 0.02174025 0.0218281 0.02260768 1000 0.0191176 0.02035773 0.02174025 0.0218281 0.02260768 1000
lala 10 0.6 1 second 2 1 201 5 5.1 0.299998044967651 -1 0 1 0 0.02321222 0.02303564 0.02411029 0.02491342 0.02583966 1000 0.02321222 0.02303564 0.02411029 0.02491342 0.02583966 1000 0.01553054 0.01564201 0.01597013 0.01697168 0.01776804 1000 0.01553054 0.01564201 0.01597013 0.01697168 0.01776804 1000
lala 18 0.01875 0 first 11 1 202 6 4.511251 0.23999810218811 1 1 -1 1 0.01262112 0.0120318 0.01326858 1000 1000 1000 0.01262112 0.0120318 0.01326858 1000 1000 1000 -0.0002234221 -0.001238018 -0.00302016 -0.001212276 0.004328358 1000 -0.0002234221 -0.001238018 -0.00302016 -0.001212276 0.004328358 1000
lala 11 0.6 1 first 2 1 203 5 4.5 0.01999831199646 -1 0 1 0 -0.02301694 -0.02158124 -0.01612789 1000 1000 1000 -0.02301694 -0.02158124 -0.01612789 1000 1000 1000 -0.003697351 -0.002243383 -0.002219803 -0.002341075 -0.003454748 1000 -0.003697351 -0.002243383 -0.002219803 -0.002341075 -0.003454748 1000
lala 13 1.2 0 second 8 1 204 5 6.3 2.77999591827393 1 0 -1 0 -0.01562133 -0.01410171 -0.01490892 -0.01301345 -0.008797195 1000 -0.01562133 -0.01410171 -0.01490892 -0.01301345 -0.008797195 1000 -0.0009653937 -0.0004981459 0.0007316869 0.002106266 0.002390416 1000 -0.0009653937 -0.0004981459 0.0007316869 0.002106266 0.002390416 1000
lala 12 4.8 1 second 4 1 205 6 12.36 0.119998216629028 -1 0 1 0 0.012912 0.01386851 0.01374203 0.0137496 0.01433042 1000 0.012912 0.01386851 0.01374203 0.0137496 0.01433042 1000 0.01590723 0.01636918 0.01727069 0.01758384 0.01824882 1000 0.01590723 0.01636918 0.01727069 0.01758384 0.01824882 1000
lala 9 1.2 0 second 14 1 206 5 3.3 0.339998006820679 0 0 -1 1 0.02122448 0.02072681 0.02066671 0.02094757 0.02106163 1000 0.02122448 0.02072681 0.02066671 0.02094757 0.02106163 1000 0.01957363 0.01832759 0.01829017 0.01906276 0.01971873 1000 0.01957363 0.01832759 0.01829017 0.01906276 0.01971873 1000
lala 7 1.2 1 first 16 1 207 6 6.36 0.739997625350952 0 0 1 0 0.02368424 0.02524259 0.02480857 1000 1000 1000 0.02368424 0.02524259 0.02480857 1000 1000 1000 0.02277372 0.02219446 0.02186425 0.02222785 0.02242369 1000 0.02277372 0.02219446 0.02186425 0.02222785 0.02242369 1000
lala 8 1.2 0 second 0 1 208 4 3.84 1.01999735832214 -1 0 -1 0 0.02363134 0.02239636 0.02211899 0.02247606 0.02343632 1000 0.02363134 0.02239636 0.02211899 0.02247606 0.02343632 1000 0.02134379 0.02421226 0.0266676 0.02571951 0.02444186 1000 0.02134379 0.02421226 0.0266676 0.02571951 0.02444186 1000
lala 7 1.2 0 second 7 1 209 4 2.92 0.279998064041138 1 1 -1 0 0.01491121 0.01698334 0.01410776 0.01093131 0.008673794 1000 0.01491121 0.01698334 0.01410776 0.01093131 0.008673794 1000 0.01025047 0.01023836 0.01124108 0.009560517 0.009819966 1000 0.01025047 0.01023836 0.01124108 0.009560517 0.009819966 1000
lala 7 1.2 0 first 5 1 210 6 5.580001 0.39999794960022 -1 1 -1 1 0.009612489 0.01019456 0.009570266 1000 1000 1000 0.009612489 0.01019456 0.009570266 1000 1000 1000 0.01005469 0.01132228 0.01187345 0.01174677 0.01174093 1000 0.01005469 0.01132228 0.01187345 0.01174677 0.01174093 1000
lala 13 0.6 1 first 10 1 211 6 3.36 0.939997434616089 1 0 1 0 0.01367035 0.01315303 0.01229957 1000 1000 1000 0.01367035 0.01315303 0.01229957 1000 1000 1000 0.0155953 0.01535737 0.0150227 0.01611836 0.01654938 1000 0.0155953 0.01535737 0.0150227 0.01611836 0.01654938 1000
lala 9 1.2 1 first 9 1 212 5 5.25 0.599997758865356 1 1 1 1 0.01904175 0.01967736 0.0197719 1000 1000 1000 0.01904175 0.01967736 0.0197719 1000 1000 1000 0.01908187 0.01934013 0.01946825 0.01990511 0.01954559 1000 0.01908187 0.01934013 0.01946825 0.01990511 0.01954559 1000
lala 10 0.6 1 second 9 1 213 5 4.65 0.139998197555542 1 1 1 1 0.01783052 0.01686365 0.01773986 0.01963144 0.02109164 1000 0.01783052 0.01686365 0.01773986 0.01963144 0.02109164 1000 0.02196601 0.02264228 0.02180363 0.02092063 0.02189585 1000 0.02196601 0.02264228 0.02180363 0.02092063 0.02189585 1000
lala 12 0.6 0 second 2 1 214 5 3.9 0.23999810218811 -1 0 -1 0 0.02164489 0.02038103 0.01919049 0.01933118 0.01902018 1000 0.02164489 0.02038103 0.01919049 0.01933118 0.01902018 1000 0.01490387 0.01563887 0.01574651 0.0159259 0.01559979 1000 0.01490387 0.01563887 0.01574651 0.0159259 0.01559979 1000
lala 8 1.2 0 second 16 1 215 6 5.16 1.93999671936035 0 0 -1 1 0.01576973 0.01724369 0.01789053 0.01800352 0.01769177 1000 0.01576973 0.01724369 0.01789053 0.01800352 0.01769177 1000 0.01801812 0.01752168 0.01703572 0.0168447 0.01800898 1000 0.01801812 0.01752168 0.01703572 0.0168447 0.01800898 1000
lala 10 0.6 1 first 14 1 216 5 3.9 7.36003351211548 0 0 1 0 0.01292617 0.01307919 0.01280223 1000 1000 1000 0.01292617 0.01307919 0.01280223 1000 1000 1000 0.01179899 0.01197905 0.01201552 0.01135609 0.01103642 1000 0.01179899 0.01197905 0.01201552 0.01135609 0.01103642 1000
lala 11 0.6 0 first 17 1 217 6 4.380001 0.639997720718384 0 1 -1 0 0.01629843 0.0160696 0.01551705 1000 1000 1000 0.01629843 0.0160696 0.01551705 1000 1000 1000 0.01517668 0.01526308 0.01567938 0.01524675 0.01534767 1000 0.01517668 0.01526308 0.01567938 0.01524675 0.01534767 1000
lala 8 1.2 0 first 7 1 218 4 4.12 0.379997968673706 1 1 -1 1 0.01664157 0.01649338 0.01664035 1000 1000 1000 0.01664157 0.01649338 0.01664035 1000 1000 1000 0.0150614 0.01515887 0.01537093 0.01516294 0.01545518 1000 0.0150614 0.01515887 0.01537093 0.01516294 0.01545518 1000
lala 13 2.4 1 second 4 1 219 6 9.960001 2.75999593734741 -1 0 1 0 0.01811271 0.01827516 0.01829227 0.01805512 0.01803859 1000 0.01811271 0.01827516 0.01829227 0.01805512 0.01803859 1000 0.01788889 0.01824554 0.01803866 0.01789997 0.01885678 1000 0.01788889 0.01824554 0.01803866 0.01789997 0.01885678 1000
lala 14 0.15 0 second 6 1 220 4 4.29 0.959997415542603 1 0 -1 0 0.01256662 0.01374425 0.01310042 0.01125767 0.009629039 1000 0.01256662 0.01374425 0.01310042 0.01125767 0.009629039 1000 0.0002529315 0.0005627528 0.000735737 0.0005611139 0.002904513 1000 0.0002529315 0.0005627528 0.000735737 0.0005611139 0.002904513 1000
lala 14 1.2 0 second 10 1 221 6 2.16 0.01999831199646 1 0 -1 1 0.004698948 0.004068851 0.004285429 0.006154069 0.007568986 1000 0.004698948 0.004068851 0.004285429 0.006154069 0.007568986 1000 0.0110111 0.01056792 0.01090714 0.01136543 0.01267385 1000 0.0110111 0.01056792 0.01090714 0.01136543 0.01267385 1000
lala 11 0.6 1 first 9 1 222 5 4.05 0.499997854232788 1 1 1 0 0.01062479 0.01021539 0.01005633 1000 1000 1000 0.01062479 0.01021539 0.01005633 1000 1000 1000 0.0127345 0.01307181 0.01480079 0.015598 0.01538995 1000 0.0127345 0.01307181 0.01480079 0.015598 0.01538995 1000
lala 8 1.2 0 second 5 1 223 6 6.780001 4.91999387741089 -1 1 -1 1 0.01473547 0.01507844 0.01519151 0.01552009 0.01547487 1000 0.01473547 0.01507844 0.01519151 0.01552009 0.01547487 1000 0.01523364 0.01604195 0.01659636 0.01671815 0.01670326 1000 0.01523364 0.01604195 0.01659636 0.01671815 0.01670326 1000
lala 15 0.15 1 second 3 1 224 5 6.200001 1.57999682426453 -1 1 1 0 0.00697298 0.006775814 0.006619977 0.006747443 0.006541305 1000 0.00697298 0.006775814 0.006619977 0.006747443 0.006541305 1000 0.005234547 0.005044947 0.00506955 0.004776439 0.005020318 1000 0.005234547 0.005044947 0.00506955 0.004776439 0.005020318 1000
lala 14 2.4 1 second 8 1 225 5 8.700001 0.839997529983521 1 0 1 1 0.004550042 0.00129688 0.005212655 0.005127517 0.004480085 1000 0.004550042 0.00129688 0.005212655 0.005127517 0.004480085 1000 0.01195639 0.01510332 0.01882849 0.02283801 0.02213511 1000 0.01195639 0.01510332 0.01882849 0.02283801 0.02213511 1000
lala 12 0.3 1 first 17 1 226 6 4.680001 0.279998064041138 0 1 1 0 0.014366 0.01073127 0.01349086 1000 1000 1000 0.014366 0.01073127 0.01349086 1000 1000 1000 0.007301301 0.007730198 0.008203972 0.007969681 0.008631565 1000 0.007301301 0.007730198 0.008203972 0.007969681 0.008631565 1000
lala 9 1.2 1 first 7 1 227 4 5.32 0.0399982929229736 1 1 1 0 0.004846126 0.005956799 0.00524497 1000 1000 1000 0.004846126 0.005956799 0.00524497 1000 1000 1000 0.002002817 0.001374181 0.0001427985 -7.158239E-05 -0.0006533018 1000 0.002002817 0.001374181 0.0001427985 -7.158239E-05 -0.0006533018 1000
lala 12 0.6 0 second 9 1 228 5 3.45 0.159998178482056 1 1 -1 0 -0.003842321 -0.003793134 -0.00305033 -0.001683715 -0.001048869 1000 -0.003842321 -0.003793134 -0.00305033 -0.001683715 -0.001048869 1000 -0.0009507377 -0.002887224 -0.005093426 -0.005497603 -0.004840778 1000 -0.0009507377 -0.002887224 -0.005093426 -0.005497603 -0.004840778 1000
lala 11 0.3 1 second 14 1 229 5 3.6 0.01999831199646 0 0 1 0 -0.003695088 -0.003489437 -0.003300148 -0.003631677 -0.003970124 1000 -0.003695088 -0.003489437 -0.003300148 -0.003631677 -0.003970124 1000 -0.003975836 -0.003200387 -0.002738528 -0.00259067 -0.002430355 1000 -0.003975836 -0.003200387 -0.002738528 -0.00259067 -0.002430355 1000
lala 14 2.4 1 second 4 1 230 6 7.560001 2.95999574661255 -1 0 1 1 -0.003336495 -0.003581726 -0.00425039 -0.004472937 -0.004976196 1000 -0.003336495 -0.003581726 -0.00425039 -0.004472937 -0.004976196 1000 -0.007850581 -0.009655032 -0.01163805 -0.0117062 -0.01160569 1000 -0.007850581 -0.009655032 -0.01163805 -0.0117062 -0.01160569 1000
lala 13 0.15 1 second 17 1 231 6 4.530001 0.379997968673706 0 1 1 1 -0.01742945 -0.01763234 -0.01764194 -0.0180158 -0.01820475 1000 -0.01742945 -0.01763234 -0.01764194 -0.0180158 -0.01820475 1000 -0.01734664 -0.015644 -0.01449663 -0.01354251 -0.01316445 1000 -0.01734664 -0.015644 -0.01449663 -0.01354251 -0.01316445 1000
lala 12 0.3 0 second 14 1 232 5 3.3 5.39999341964722 0 0 -1 1 0.006729331 0.003647189 0.001734402 0.0004514239 -0.001224532 1000 0.006729331 0.003647189 0.001734402 0.0004514239 -0.001224532 1000 0.002046429 0.003394412 0.004734016 0.006519946 0.007479121 1000 0.002046429 0.003394412 0.004734016 0.006519946 0.007479121 1000
lala 13 0.3 1 first 9 1 233 5 3.75 4.17999458312988 1 1 1 0 -0.002559506 -0.002927488 -0.002630933 1000 1000 1000 -0.002559506 -0.002927488 -0.002630933 1000 1000 1000 -0.0008234628 0.0005916131 0.001015553 0.0003546904 -0.001094665 1000 -0.0008234628 0.0005916131 0.001015553 0.0003546904 -0.001094665 1000
lala 17 0.0375 0 first 13 1 234 4 3.445 0.759997606277466 0 1 -1 0 0.001286542 0.0007554893 0.002533327 1000 1000 1000 0.001286542 0.0007554893 0.002533327 1000 1000 1000 -0.02122565 -0.03591883 -0.03964739 -0.03110357 -0.01725249 1000 -0.02122565 -0.03591883 -0.03964739 -0.03110357 -0.01725249 1000
lala 9 1.2 1 second 0 1 235 4 5.04 0.319998025894165 -1 0 1 1 -0.005334374 -0.006022322 -0.006887807 -0.008525579 -0.009395219 1000 -0.005334374 -0.006022322 -0.006887807 -0.008525579 -0.009395219 1000 -0.01089938 -0.009953848 -0.009706256 -0.009497943 -0.009971225 1000 -0.01089938 -0.009953848 -0.009706256 -0.009497943 -0.009971225 1000
lala 19 0.01875 1 first 11 1 236 6 4.530001 0.499997854232788 1 1 1 1 -0.006832501 -0.006818949 -0.005928512 1000 1000 1000 -0.006832501 -0.006818949 -0.005928512 1000 1000 1000 -0.005676143 -0.005296578 -0.004952651 -0.005023444 -0.004933309 1000 -0.005676143 -0.005296578 -0.004952651 -0.005023444 -0.004933309 1000
lala 20 0.009375 0 first 11 1 237 6 4.520626 0.339998006820679 1 1 -1 1 -0.004345541 -0.003824185 -0.00354415 1000 1000 1000 -0.004345541 -0.003824185 -0.00354415 1000 1000 1000 0.0001438657 -0.0002567426 -0.001556671 -0.001415943 -0.001914569 1000 0.0001438657 -0.0002567426 -0.001556671 -0.001415943 -0.001914569 1000
lala 18 0.0375 1 first 1 1 238 4 4.42 0.01999831199646 -1 1 1 1 -0.002831181 -0.003558685 -0.003907363 1000 1000 1000 -0.002831181 -0.003558685 -0.003907363 1000 1000 1000 0.001195538 0.001548981 0.001806472 0.002485457 0.002803163 1000 0.001195538 0.001548981 0.001806472 0.002485457 0.002803163 1000
lala 11 0.3 1 second 15 1 239 5 3.95 0.01999831199646 0 1 1 0 0.002567302 0.003502186 0.003842001 0.003783574 0.00349385 1000 0.002567302 0.003502186 0.003842001 0.003783574 0.00349385 1000 0.003892752 0.003740416 0.003140191 0.003307574 0.003592781 1000 0.003892752 0.003740416 0.003140191 0.003307574 0.003592781 1000
lala 10 0.6 1 second 7 1 240 4 4.72 0.259998083114624 1 1 1 0 0.004412598 0.004495136 0.004609156 0.004181962 0.00412266 1000 0.004412598 0.004495136 0.004609156 0.004181962 0.00412266 1000 0.004227019 0.004286462 0.004040274 0.004810223 0.004980171 1000 0.004227019 0.004286462 0.004040274 0.004810223 0.004980171 1000
lala 9 1.2 0 second 5 1 241 6 7.98 0.319998025894165 -1 1 -1 0 -5.268191E-05 0.0005497426 0.0009251987 0.001220425 0.002176349 1000 -5.268191E-05 0.0005497426 0.0009251987 0.001220425 0.002176349 1000 0.003051656 0.003257024 0.003531585 0.003866525 0.003831507 1000 0.003051656 0.003257024 0.003531585 0.003866525 0.003831507 1000
lala 18 0.0375 1 second 13 1 242 4 3.4825 2.87999582290649 0 1 1 0 0.003628794 0.00362225 0.003527668 0.003025464 0.002879237 1000 0.003628794 0.00362225 0.003527668 0.003025464 0.002879237 1000 0.000464396 -0.0003426438 0.0001754807 0.001089227 0.001208858 1000 0.000464396 -0.0003426438 0.0001754807 0.001089227 0.001208858 1000
lala 15 0.6 1 second 10 1 243 6 2.76 2.53999614715576 1 0 1 0 -0.006491018 -0.006633523 -0.006073709 -0.006069587 -0.006386299 1000 -0.006491018 -0.006633523 -0.006073709 -0.006069587 -0.006386299 1000 -0.006995561 -0.006879371 -0.00703954 -0.007201606 -0.007771427 1000 -0.006995561 -0.006879371 -0.00703954 -0.007201606 -0.007771427 1000
lala 19 0.0375 1 first 1 1 244 4 4.3825 0.559997797012329 -1 1 1 1 -0.004456405 -0.003594275 -0.003225819 1000 1000 1000 -0.004456405 -0.003594275 -0.003225819 1000 1000 1000 0.001881657 0.002086862 0.001497029 0.001035246 0.001414495 1000 0.001881657 0.002086862 0.001497029 0.001035246 0.001414495 1000
lala 11 0.6 1 first 7 1 245 4 4.12 1.3999969959259 1 1 1 0 0.002700698 0.002837665 0.002482264 1000 1000 1000 0.002700698 0.002837665 0.002482264 1000 1000 1000 0.02057763 0.02309917 0.02498311 0.02461342 0.02622938 1000 0.02057763 0.02309917 0.02498311 0.02461342 0.02622938 1000
lala 10 0.6 0 first 0 1 246 4 4.44 0.219998121261597 -1 0 -1 1 0.01500506 0.01628521 0.01592456 1000 1000 1000 0.01500506 0.01628521 0.01592456 1000 1000 1000 0.016726 0.01667883 0.01773218 0.01871586 0.01865004 1000 0.016726 0.01667883 0.01773218 0.01871586 0.01865004 1000
lala 15 1.2 1 first 8 1 247 5 7.500001 0.39999794960022 1 0 1 1 0.01740228 0.01737167 0.01683887 1000 1000 1000 0.01740228 0.01737167 0.01683887 1000 1000 1000 0.0179384 0.01757252 0.01689523 0.0173125 0.01752441 1000 0.0179384 0.01757252 0.01689523 0.0173125 0.01752441 1000
lala 19 0.01875 0 first 13 1 248 4 3.46375 5.83999872207642 0 1 -1 0 0.0173622 0.01682233 0.01715881 1000 1000 1000 0.0173622 0.01682233 0.01715881 1000 1000 1000 0.01504834 0.01503493 0.01491183 0.01466913 0.01400673 1000 0.01504834 0.01503493 0.01491183 0.01466913 0.01400673 1000
lala 16 1.2 1 second 8 1 249 5 6.300001 0.279998064041138 1 0 1 1 0.01022278 0.01014411 0.009554048 0.01007702 0.01019508 1000 0.01022278 0.01014411 0.009554048 0.01007702 0.01019508 1000 0.008675836 0.009211564 0.009856453 0.01083085 0.01070978 1000 0.008675836 0.009211564 0.009856453 0.01083085 0.01070978 1000
lala 19 0.01875 0 first 12 1 250 4 2.50875 0.199998140335083 0 0 -1 1 0.003183071 0.01702499 0.01131399 0.006960333 0.005045665 0.004156251 0.003183071 0.01702499 0.01131399 0.006960333 0.005045665 0.004156251 0.004798926 0.005086775 0.00486199 0.004835692 0.005264871 1000 0.004798926 0.005086775 0.00486199 0.004835692 0.005264871 1000
lala 20 0.009375 0 first 13 1 251 4 3.473125 0.139998197555542 0 1 -1 0 0.004802358 0.005649181 0.005561777 1000 1000 1000 0.004802358 0.005649181 0.005561777 1000 1000 1000 0.006855193 0.00779731 0.008147826 0.007959083 0.007832998 1000 0.006855193 0.00779731 0.008147826 0.007959083 0.007832998 1000
lala 14 0.15 1 second 17 1 252 6 4.380001 0.079998254776001 0 1 1 0 0.006630114 0.006055581 0.005849058 0.006279104 0.006257023 1000 0.006630114 0.006055581 0.005849058 0.006279104 0.006257023 1000 0.007818864 0.007793765 0.007413031 0.007570419 0.007503695 1000 0.007818864 0.007793765 0.007413031 0.007570419 0.007503695 1000
lala 20 0.009375 0 second 12 1 253 4 2.518125 0.159998178482056 0 0 -1 0 0.006741154 0.006641817 0.006529034 0.006975518 0.006757806 1000 0.006741154 0.006641817 0.006529034 0.006975518 0.006757806 1000 0.00880896 0.008553129 0.008168878 0.008642186 0.009347576 1000 0.00880896 0.008553129 0.008168878 0.008642186 0.009347576 1000
lala 12 0.15 0 first 15 1 254 5 3.8 0.23999810218811 0 1 -1 0 0.00803419 0.0088169 0.009218339 1000 1000 1000 0.00803419 0.0088169 0.009218339 1000 1000 1000 0.01045716 0.01047274 0.01085675 0.01091995 0.01117709 1000 0.01045716 0.01047274 0.01085675 0.01091995 0.01117709 1000
lala 20 0.075 0 first 1 1 255 4 4.3075 0.39999794960022 -1 1 -1 0 0.01037706 0.0105559 0.01085171 1000 1000 1000 0.01037706 0.0105559 0.01085171 1000 1000 1000 0.01236632 0.01285423 0.01303408 0.01349077 0.01317613 1000 0.01236632 0.01285423 0.01303408 0.01349077 0.01317613 1000
lala 21 0.0046875 1 first 11 1 256 6 4.525313 0.379997968673706 1 1 1 1 0.01286994 0.01374411 0.01346955 1000 1000 1000 0.01286994 0.01374411 0.01346955 1000 1000 1000 0.0138529 0.01496068 0.01514906 0.01540359 0.01558658 1000 0.0138529 0.01496068 0.01514906 0.01540359 0.01558658 1000
lala 15 2.4 0 first 4 1 257 6 5.160001 0.339998006820679 -1 0 -1 1 0.01533651 0.01573599 0.01521074 1000 1000 1000 0.01533651 0.01573599 0.01521074 1000 1000 1000 0.01645917 0.01653613 0.01631846 0.01642378 0.01693031 1000 0.01645917 0.01653613 0.01631846 0.01642378 0.01693031 1000
lala 10 2.4 1 first 5 1 258 6 10.38 0.319998025894165 -1 1 1 1 0.0163965 0.01606564 0.0164237 1000 1000 1000 0.0163965 0.01606564 0.0164237 1000 1000 1000 0.02033804 0.02220741 0.02293937 0.02099864 0.02023092 1000 0.02033804 0.02220741 0.02293937 0.02099864 0.02023092 1000
lala 13 0.075 1 first 15 1 259 5 3.875 0.219998121261597 0 1 1 0 0.01808547 0.01553659 0.01581568 1000 1000 1000 0.01808547 0.01553659 0.01581568 1000 1000 1000 0.01190988 0.01154344 0.01159843 0.01233342 0.01333979 1000 0.01190988 0.01154344 0.01159843 0.01233342 0.01333979 1000
lala 9 1.2 1 second 16 1 260 6 6.36 0.0999982357025146 0 0 1 0 0.01085668 0.01110738 0.01142612 0.01152051 0.01110922 1000 0.01085668 0.01110738 0.01142612 0.01152051 0.01110922 1000 0.0111281 0.01107431 0.01152407 0.01146358 0.01230374 1000 0.0111281 0.01107431 0.01152407 0.01146358 0.01230374 1000
lala 16 0.3 1 first 10 1 261 6 2.46 0.39999794960022 1 0 1 0 0.01096036 0.01028269 0.009904832 1000 1000 1000 0.01096036 0.01028269 0.009904832 1000 1000 1000 0.01236464 0.01217125 0.01246122 0.01245957 0.01263815 1000 0.01236464 0.01217125 0.01246122 0.01245957 0.01263815 1000
lala 16 0.15 1 second 3 1 262 5 6.050001 0.219998121261597 -1 1 1 0 0.01139143 0.01180421 0.01153039 0.0110247 0.01148918 1000 0.01139143 0.01180421 0.01153039 0.0110247 0.01148918 1000 0.01089029 0.01034804 0.01045477 0.01012158 0.01042291 1000 0.01089029 0.01034804 0.01045477 0.01012158 0.01042291 1000
lala 21 0.009375 0 second 13 1 263 4 3.4825 0.579997777938843 0 1 -1 0 0.01192209 0.01030281 0.009424995 0.009469393 0.007834176 1000 0.01192209 0.01030281 0.009424995 0.009469393 0.007834176 1000 0.01274335 0.01331412 0.01380138 0.01322358 0.01314412 1000 0.01274335 0.01331412 0.01380138 0.01322358 0.01314412 1000
lala 14 0.15 1 first 9 1 264 5 3.6 0.519997835159302 1 1 1 0 0.009067908 0.009625953 0.009901802 1000 1000 1000 0.009067908 0.009625953 0.009901802 1000 1000 1000 0.01115669 0.01084338 0.01066652 0.01056403 0.01003195 1000 0.01115669 0.01084338 0.01066652 0.01056403 0.01003195 1000
lala 16 1.2 1 first 4 1 265 6 6.360001 0.0599982738494873 -1 0 1 0 0.008386682 0.008586329 0.008867642 1000 1000 1000 0.008386682 0.008586329 0.008867642 1000 1000 1000 0.009619481 0.009341274 0.009235239 0.008945318 0.008794279 1000 0.009619481 0.009341274 0.009235239 0.008945318 0.008794279 1000
lala 21 0.009375 1 first 12 1 266 4 2.5275 3.33999538421631 0 0 1 0 0.008070855 0.007463982 0.006662003 1000 1000 1000 0.008070855 0.007463982 0.006662003 1000 1000 1000 0.004211603 0.003831335 0.003820353 0.003396385 0.003769497 1000 0.004211603 0.003831335 0.003820353 0.003396385 0.003769497 1000
lala 22 0.009375 0 second 13 1 267 4 3.491875 0.579997777938843 0 1 -1 0 -0.007571874 -0.007384828 -0.007532134 -0.008002158 -0.008388673 1000 -0.007571874 -0.007384828 -0.007532134 -0.008002158 -0.008388673 1000 -0.01115852 -0.01162621 -0.01146961 -0.01145034 -0.01144947 1000 -0.01115852 -0.01162621 -0.01146961 -0.01145034 -0.01144947 1000
lala 21 0.0375 1 second 1 1 268 4 4.345 2.13999652862549 -1 1 1 1 -0.02331042 -0.02282735 -0.0225099 -0.02248037 -0.02322698 1000 -0.02331042 -0.02282735 -0.0225099 -0.02248037 -0.02322698 1000 -0.02158157 -0.02044307 -0.01822254 -0.01525634 -0.01175424 1000 -0.02158157 -0.02044307 -0.01822254 -0.01525634 -0.01175424 1000
lala 13 0.15 0 first 14 1 269 5 3.45 0.379997968673706 0 0 -1 0 0.003046805 0.003457734 0.001125949 1000 1000 1000 0.003046805 0.003457734 0.001125949 1000 1000 1000 0.003655162 0.004126595 0.004891427 0.004205975 0.004103806 1000 0.003655162 0.004126595 0.004891427 0.004205975 0.004103806 1000
lala 17 0.6 1 second 4 1 270 6 5.760001 0.479997873306274 -1 0 1 0 0.003952316 0.003754593 0.003880871 0.004761866 0.004777852 1000 0.003952316 0.003754593 0.003880871 0.004761866 0.004777852 1000 0.00630712 0.006576922 0.007637526 0.007693295 0.007345297 1000 0.00630712 0.006576922 0.007637526 0.007693295 0.007345297 1000
lala 23 0.01875 0 first 13 1 271 4 3.510625 0.339998006820679 0 1 -1 1 0.009714196 0.009503054 0.009319377 1000 1000 1000 0.009714196 0.009503054 0.009319377 1000 1000 1000 0.009501556 0.009605438 0.009318748 0.009719273 0.01009638 1000 0.009501556 0.009605438 0.009318748 0.009719273 0.01009638 1000
lala 17 0.3 1 first 10 1 272 6 2.16 0.23999810218811 1 0 1 1 0.00935169 0.009131185 0.009118134 1000 1000 1000 0.00935169 0.009131185 0.009118134 1000 1000 1000 0.008031835 0.007407328 0.007287968 0.00757686 0.007378028 1000 0.008031835 0.007407328 0.007287968 0.00757686 0.007378028 1000
lala 18 0.6 0 first 4 1 273 6 5.160001 0.01999831199646 -1 0 -1 0 0.007089837 0.006699992 0.00651331 1000 1000 1000 0.007089837 0.006699992 0.00651331 1000 1000 1000 0.004929672 0.004491539 0.004989388 0.005211948 0.005184968 1000 0.004929672 0.004491539 0.004989388 0.005211948 0.005184968 1000
lala 17 0.15 1 second 3 1 274 5 5.900001 0.479997873306274 -1 1 1 0 0.005207027 0.00529883 0.005175563 0.005359943 0.0062265 1000 0.005207027 0.00529883 0.005175563 0.005359943 0.0062265 1000 0.004840545 0.004439058 0.004144003 0.003983902 0.003485526 1000 0.004840545 0.004439058 0.004144003 0.003983902 0.003485526 1000
lala 15 0.15 1 first 9 1 275 5 3.45 0.39999794960022 1 1 1 0 0.001926023 0.002004826 0.002495774 1000 1000 1000 0.001926023 0.002004826 0.002495774 1000 1000 1000 0.00109223 0.0003008007 -0.0001003958 8.055006E-05 -0.000139838 1000 0.00109223 0.0003008007 -0.0001003958 8.055006E-05 -0.000139838 1000
lala 15 0.15 0 first 17 1 276 6 4.230001 0.499997854232788 0 1 -1 1 0.001250755 0.003831144 0.004808606 1000 1000 1000 0.001250755 0.003831144 0.004808606 1000 1000 1000 0.01535753 0.01630279 0.01543854 0.01197315 0.009604199 1000 0.01535753 0.01630279 0.01543854 0.01197315 0.009604199 1000
lala 15 0.075 1 second 6 1 277 4 4.365 0.519997835159302 1 0 1 0 0.005616901 0.00635704 0.006701637 0.006904216 0.007319186 1000 0.005616901 0.00635704 0.006701637 0.006904216 0.007319186 1000 0.008940188 0.008796555 0.008342192 0.008217096 0.00746791 1000 0.008940188 0.008796555 0.008342192 0.008217096 0.00746791 1000
lala 22 0.01875 0 second 1 1 278 4 4.32625 0.179998159408569 -1 1 -1 1 0.006607268 0.006199721 0.005939752 0.004653439 0.004348146 1000 0.006607268 0.006199721 0.005939752 0.004653439 0.004348146 1000 0.001856031 0.002123285 0.003001879 0.00324723 0.003154973 1000 0.001856031 0.002123285 0.003001879 0.00324723 0.003154973 1000
lala 16 0.075 1 second 17 1 279 6 4.305001 0.739997625350952 0 1 1 1 0.004919451 0.004475574 0.004449678 0.005955125 0.007560175 1000 0.004919451 0.004475574 0.004449678 0.005955125 0.007560175 1000 0.002963958 0.003114035 0.003874845 0.004349046 0.004172849 1000 0.002963958 0.003114035 0.003874845 0.004349046 0.004172849 1000
lala 17 0.0375 0 first 17 1 280 6 4.267501 1.59999680519104 0 1 -1 0 0.007041511 0.006995108 0.00749981 1000 1000 1000 0.007041511 0.006995108 0.00749981 1000 1000 1000 -0.01422755 -0.01385983 -0.01335981 -0.01294043 -0.01256711 1000 -0.01422755 -0.01385983 -0.01335981 -0.01294043 -0.01256711 1000
lala 18 0.3 1 second 3 1 281 5 5.600001 0.679997682571411 -1 1 1 0 -0.01080189 -0.0109622 -0.01116991 -0.01168984 -0.01132943 1000 -0.01080189 -0.0109622 -0.01116991 -0.01168984 -0.01132943 1000 -0.0115067 -0.01112029 -0.009436825 -0.008151291 -0.01116575 1000 -0.0115067 -0.01112029 -0.009436825 -0.008151291 -0.01116575 1000
lala 16 0.15 1 second 9 1 282 5 3.3 0.379997968673706 1 1 1 1 0.01384282 0.01510381 0.01241215 0.00610156 0.005928689 1000 0.01384282 0.01510381 0.01241215 0.00610156 0.005928689 1000 0.0114414 0.01229783 0.01377001 0.01434742 0.01480573 1000 0.0114414 0.01229783 0.01377001 0.01434742 0.01480573 1000
lala 17 0.3 0 first 9 1 283 5 3 5.25999355316162 1 1 -1 0 0.01654337 0.0166105 0.01690142 1000 1000 1000 0.01654337 0.0166105 0.01690142 1000 1000 1000 0.01457527 0.01512156 0.01600292 0.01639602 0.01671536 1000 0.01457527 0.01512156 0.01600292 0.01639602 0.01671536 1000
lala 22 0.0046875 1 first 12 1 284 4 2.522813 2.75999593734741 0 0 1 0 0.01643988 0.01578197 0.01547833 1000 1000 1000 0.01643988 0.01578197 0.01547833 1000 1000 1000 0.0118861 0.0115525 0.01160976 0.01075906 0.01132572 1000 0.0118861 0.0115525 0.01160976 0.01075906 0.01132572 1000
lala 14 0.0375 0 first 15 1 285 5 3.8375 0.339998006820679 0 1 -1 1 0.008211628 0.008678953 0.009281666 1000 1000 1000 0.008211628 0.008678953 0.009281666 1000 1000 1000 0.001096103 0.00212247 0.003000299 0.00295368 0.002835328 1000 0.001096103 0.00212247 0.003000299 0.00295368 0.002835328 1000
lala 15 0.01875 0 first 15 1 286 5 3.85625 0.01999831199646 0 1 -1 1 0.00617618 0.006322539 0.006284246 1000 1000 1000 0.00617618 0.006322539 0.006284246 1000 1000 1000 0.006649316 0.006619669 0.006131884 0.006670644 0.007630977 1000 0.006649316 0.006619669 0.006131884 0.006670644 0.007630977 1000
lala 11 0.3 1 first 0 1 287 4 4.74 0.839997529983521 -1 0 1 0 0.007340859 0.007318888 0.007818647 1000 1000 1000 0.007340859 0.007318888 0.007818647 1000 1000 1000 -0.005914858 -0.003277409 -0.006466632 -0.004763911 -0.004161027 1000 -0.005914858 -0.003277409 -0.006466632 -0.004763911 -0.004161027 1000
lala 18 0.3 0 first 10 1 288 6 1.98 0.23999810218811 1 0 -1 1 -0.002472562 -0.0001391994 -0.006251094 1000 1000 1000 -0.002472562 -0.0001391994 -0.006251094 1000 1000 1000 -0.005622597 -0.005594597 -0.006789521 -0.005813092 -0.005721344 1000 -0.005622597 -0.005594597 -0.006789521 -0.005813092 -0.005721344 1000
lala 23 0.0046875 0 second 12 1 289 4 2.518125 3.43999528884888 0 0 -1 1 -0.002138968 -0.00197468 -0.00129758 -0.001404744 -0.001456559 1000 -0.002138968 -0.00197468 -0.00129758 -0.001404744 -0.001456559 1000 -0.000477982 0.0002900037 -0.0002323242 -0.0002412257 -0.0003632137 1000 -0.000477982 0.0002900037 -0.0002323242 -0.0002412257 -0.0003632137 1000
lala 16 0.01875 0 first 15 1 290 5 3.875 0.379997968673706 0 1 -1 0 -9.667427E-05 -0.001414156 -0.001779004 1000 1000 1000 -9.667427E-05 -0.001414156 -0.001779004 1000 1000 1000 -0.001064324 -0.0005903468 -0.000891738 -0.001033075 -0.001184517 1000 -0.001064324 -0.0005903468 -0.000891738 -0.001033075 -0.001184517 1000
lala 23 0.009375 1 first 1 1 291 4 4.335625 0.219998121261597 -1 1 1 1 -0.004932272 -0.00498798 -0.004110158 1000 1000 1000 -0.004932272 -0.00498798 -0.004110158 1000 1000 1000 -0.00218295 -0.002052305 -0.001920141 -0.0007851011 -0.001305905 1000 -0.00218295 -0.002052305 -0.001920141 -0.0007851011 -0.001305905 1000
lala 10 0.6 0 first 16 1 292 6 5.76 2.39999628067017 0 0 -1 0 -0.003579739 -0.001953454 -0.00219887 1000 1000 1000 -0.003579739 -0.001953454 -0.00219887 1000 1000 1000 -0.002553386 -0.003190954 -0.003045531 -0.003444762 -0.00356205 1000 -0.002553386 -0.003190954 -0.003045531 -0.003444762 -0.00356205 1000
lala 16 0.0375 1 first 6 1 293 4 4.3275 1.65999698638916 1 0 1 0 -0.003889307 -0.003923708 -0.004343363 1000 1000 1000 -0.003889307 -0.003923708 -0.004343363 1000 1000 1000 -0.004373075 -0.005077375 -0.005075537 -0.004684714 -0.003466455 1000 -0.004373075 -0.005077375 -0.005075537 -0.004684714 -0.003466455 1000
lala 17 0.0375 1 second 6 1 294 4 4.29 0.39999794960022 1 0 1 0 -0.0002930047 -0.001918036 -0.003532547 -0.002810977 -0.001037616 1000 -0.0002930047 -0.001918036 -0.003532547 -0.002810977 -0.001037616 1000 0.0005356374 0.00118154 0.001161792 0.001150155 0.001080158 1000 0.0005356374 0.00118154 0.001161792 0.001150155 0.001080158 1000
lala 19 0.3 0 second 4 1 295 6 5.460001 1.0999972820282 -1 0 -1 0 -0.0007990604 -0.0004878611 -0.000221614 0.0005952444 0.001154938 1000 -0.0007990604 -0.0004878611 -0.000221614 0.0005952444 0.001154938 1000 0.002932537 0.002532867 0.001944961 0.002129191 0.002236359 1000 0.002932537 0.002532867 0.001944961 0.002129191 0.002236359 1000
lala 12 0.6 1 first 7 1 296 4 3.52 3.81999492645264 1 1 1 1 0.001255984 0.001208068 0.001072536 1000 1000 1000 0.001255984 0.001208068 0.001072536 1000 1000 1000 -3.111596E-05 0.0002399648 8.277421E-05 -0.000374992 -0.0005086649 1000 -3.111596E-05 0.0002399648 8.277421E-05 -0.000374992 -0.0005086649 1000
lala 11 0.3 1 first 16 1 297 6 6.06 8.08004999160767 0 0 1 1 -0.01251702 -0.01222175 -0.01216925 1000 1000 1000 -0.01251702 -0.01222175 -0.01216925 1000 1000 1000 -0.008553066 -0.008310217 -0.008415841 -0.008216693 -0.007465472 1000 -0.008553066 -0.008310217 -0.008415841 -0.008216693 -0.007465472 1000
lala 20 0.3 0 second 4 1 298 6 5.760001 0.739997625350952 -1 0 -1 1 0.004937871 0.003810412 0.00239361 0.0012945 0.0003529625 1000 0.004937871 0.003810412 0.00239361 0.0012945 0.0003529625 1000 -0.003382052 -0.003965564 -0.004331583 -0.0040381 -0.004145283 1000 -0.003382052 -0.003965564 -0.004331583 -0.0040381 -0.004145283 1000
lala 13 0.3 0 first 2 1 299 5 4.2 1.81999683380127 -1 0 -1 0 -0.0101216 -0.01090033 -0.01131897 1000 1000 1000 -0.0101216 -0.01090033 -0.01131897 1000 1000 1000 -0.01985659 -0.0237016 -0.02605172 -0.02708374 -0.02719427 1000 -0.01985659 -0.0237016 -0.02605172 -0.02708374 -0.02719427 1000
lala 19 0.6 0 first 3 1 300 5 5.000001 0.01999831199646 -1 1 -1 1 -0.0128465 -0.01121637 -0.009789743 -0.009474522 -0.01048012 -0.009847121 -0.0128465 -0.01121637 -0.009789743 -0.009474522 -0.01048012 -0.009847121 -0.004644541 -0.003790189 -0.003369949 -0.002959137 -0.003320162 1000 -0.004644541 -0.003790189 -0.003369949 -0.002959137 -0.003320162 1000
lala 18 0.0375 1 second 6 1 301 4 4.252501 0.319998025894165 1 0 1 0 -0.001640389 -0.003274346 -0.006359041 -0.01030388 -0.01252094 1000 -0.001640389 -0.003274346 -0.006359041 -0.01030388 -0.01252094 1000 -0.01074746 -0.01056102 -0.0105205 -0.009828201 -0.008752972 1000 -0.01074746 -0.01056102 -0.0105205 -0.009828201 -0.008752972 1000
lala 14 0.15 0 second 14 1 302 5 3.6 0.459997892379761 0 0 -1 0 0.03039829 0.02869641 0.02629681 0.01636459 -0.0004344842 1000 0.03039829 0.02869641 0.02629681 0.01636459 -0.0004344842 1000 0.0166231 0.01723471 0.01876891 0.01540643 0.0005746592 1000 0.0166231 0.01723471 0.01876891 0.01540643 0.0005746592 1000
lala 22 0.00234375 1 first 11 1 303 6 4.52297 0.01999831199646 1 1 1 1 -0.002048933 -0.003603352 -0.007415284 1000 1000 1000 -0.002048933 -0.003603352 -0.007415284 1000 1000 1000 0.005603482 0.005696879 0.005828998 0.006523835 0.00686783 1000 0.005603482 0.005696879 0.005828998 0.006523835 0.00686783 1000
lala 24 0.00234375 0 first 12 1 304 4 2.520469 3.87999486923218 0 0 -1 0 0.00690104 0.008009287 0.00812025 1000 1000 1000 0.00690104 0.008009287 0.00812025 1000 1000 1000 0.02012102 0.02014574 0.01881246 0.01927513 0.0174473 1000 0.02012102 0.02014574 0.01881246 0.01927513 0.0174473 1000
lala 18 0.01875 1 second 17 1 305 6 4.286251 0.01999831199646 0 1 1 0 0.007573491 0.009275679 0.01194695 0.01067116 0.007563316 1000 0.007573491 0.009275679 0.01194695 0.01067116 0.007563316 1000 0.009993628 0.008517726 0.007478894 0.004236455 0.00650736 1000 0.009993628 0.008517726 0.007478894 0.004236455 0.00650736 1000
lala 12 0.15 1 second 0 1 306 4 4.59 1.17999720573425 -1 0 1 1 0.007971103 0.008173669 0.009001456 0.009438176 0.009884345 1000 0.007971103 0.008173669 0.009001456 0.009438176 0.009884345 1000 0.01097443 0.01081277 0.01109468 0.01157969 0.01108629 1000 0.01097443 0.01081277 0.01109468 0.01157969 0.01108629 1000
lala 23 0.00234375 1 second 11 1 307 6 4.520626 0.299998044967651 1 1 1 0 0.01742837 0.01701673 0.01843482 0.01843508 0.01729262 1000 0.01742837 0.01701673 0.01843482 0.01843508 0.01729262 1000 0.0131129 0.01310461 0.01302332 0.0133229 0.01394354 1000 0.0131129 0.01310461 0.01302332 0.0133229 0.01394354 1000
lala 24 0.0046875 1 second 1 1 308 4 4.330938 0.219998121261597 -1 1 1 1 0.0191727 0.01910817 0.01953362 0.01774834 0.01669452 1000 0.0191727 0.01910817 0.01953362 0.01774834 0.01669452 1000 0.01395081 0.01388578 0.0140126 0.0141254 0.01456039 1000 0.01395081 0.01388578 0.0140126 0.0141254 0.01456039 1000
lala 11 1.2 0 second 5 1 309 6 9.180001 0.0999982357025146 -1 1 -1 1 0.01604095 0.01633682 0.01549345 0.01526147 0.01544226 1000 0.01604095 0.01633682 0.01549345 0.01526147 0.01544226 1000 0.01579584 0.01511658 0.01588835 0.01638798 0.01753342 1000 0.01579584 0.01511658 0.01588835 0.01638798 0.01753342 1000
lala 12 0.15 1 first 16 1 310 6 5.91 0.339998006820679 0 0 1 0 0.02056364 0.02052957 0.02109194 1000 1000 1000 0.02056364 0.02052957 0.02109194 1000 1000 1000 0.02154588 0.02193485 0.02232634 0.0229443 0.02304516 1000 0.02154588 0.02193485 0.02232634 0.0229443 0.02304516 1000
lala 18 0.15 0 first 9 1 311 5 3.15 0.359997987747192 1 1 -1 0 0.02233851 0.02037028 0.01859332 1000 1000 1000 0.02233851 0.02037028 0.01859332 1000 1000 1000 0.001750893 -0.002241379 -0.004272937 -0.004025613 -0.003522961 1000 0.001750893 -0.002241379 -0.004272937 -0.004025613 -0.003522961 1000
lala 15 0.15 1 first 14 1 312 5 3.75 0.279998064041138 0 0 1 1 0.0007920193 0.0005111839 -0.0008255022 1000 1000 1000 0.0007920193 0.0005111839 -0.0008255022 1000 1000 1000 0.0009178091 0.00237116 0.002218375 0.002591072 0.002324257 1000 0.0009178091 0.00237116 0.002218375 0.002591072 0.002324257 1000
lala 19 0.075 0 first 6 1 313 4 4.177501 0.299998044967651 1 0 -1 1 0.001857307 0.001512367 0.001528463 1000 1000 1000 0.001857307 0.001512367 0.001528463 1000 1000 1000 0.003706148 0.003620146 0.004181724 0.004645695 0.00443343 1000 0.003706148 0.003620146 0.004181724 0.004645695 0.00443343 1000
lala 19 0.15 1 first 9 1 314 5 3.3 0.359997987747192 1 1 1 0 0.005884683 0.005711679 0.006684166 1000 1000 1000 0.005884683 0.005711679 0.006684166 1000 1000 1000 0.006527516 0.007606276 0.008056209 0.008329518 0.008304275 1000 0.006527516 0.007606276 0.008056209 0.008329518 0.008304275 1000
lala 20 0.075 0 first 9 1 315 5 3.225 2.79999589920044 1 1 -1 0 0.008320537 0.008180762 0.00804114 1000 1000 1000 0.008320537 0.008180762 0.00804114 1000 1000 1000 0.01094332 0.0105046 0.01112545 0.01205104 0.01177091 1000 0.01094332 0.0105046 0.01112545 0.01205104 0.01177091 1000
lala 20 0.3 1 second 3 1 316 5 5.300001 2.49999618530273 -1 1 1 0 0.01682523 0.01799693 0.01881892 0.01944327 0.02005764 1000 0.01682523 0.01799693 0.01881892 0.01944327 0.02005764 1000 0.02168882 0.02136971 0.02108284 0.02141287 0.02140866 1000 0.02168882 0.02136971 0.02108284 0.02141287 0.02140866 1000
lala 21 0.0375 1 second 9 1 317 5 3.2625 0.99999737739563 1 1 1 1 0.02344842 0.02356558 0.0232664 0.02346547 0.02283426 1000 0.02344842 0.02356558 0.0232664 0.02346547 0.02283426 1000 0.01913354 0.01778711 0.01666917 0.01457847 0.01183718 1000 0.01913354 0.01778711 0.01666917 0.01457847 0.01183718 1000
lala 19 0.15 0 first 10 1 318 6 2.13 0.719997644424438 1 0 -1 0 0.002001226 0.001603961 0.001745559 1000 1000 1000 0.002001226 0.001603961 0.001745559 1000 1000 1000 0.0339973 0.03118073 0.0282956 0.02991829 0.02933314 1000 0.0339973 0.03118073 0.0282956 0.02991829 0.02933314 1000
lala 24 0.00234375 1 first 11 1 319 6 4.518282 0.379997968673706 1 1 1 0 0.0007038721 -9.920875E-05 0.0008923942 1000 1000 1000 0.0007038721 -9.920875E-05 0.0008923942 1000 1000 1000 -0.000765469 -0.0004990798 -0.0008108376 -0.00189731 -0.0008014665 1000 -0.000765469 -0.0004990798 -0.0008108376 -0.00189731 -0.0008014665 1000
lala 17 0.01875 0 second 15 1 320 5 3.89375 3.35999536514282 0 1 -1 0 -0.003744876 -0.003453892 -0.003453498 -0.005231678 -0.007037632 1000 -0.003744876 -0.003453892 -0.003453498 -0.005231678 -0.007037632 1000 0.006497158 0.008507608 0.008133764 0.009049468 0.01371941 1000 0.006497158 0.008507608 0.008133764 0.009049468 0.01371941 1000
lala 25 0.0046875 0 first 1 1 321 4 4.326251 0.23999810218811 -1 1 -1 0 0.01408121 0.01226039 0.01139249 1000 1000 1000 0.01408121 0.01226039 0.01139249 1000 1000 1000 0.00899865 0.009199858 0.009166964 0.008885026 0.009223783 1000 0.00899865 0.009199858 0.009166964 0.008885026 0.009223783 1000
lala 25 0.0046875 0 second 11 1 322 6 4.513595 0.679997682571411 1 1 -1 1 0.01996993 0.01688746 0.0142309 0.01243921 0.007662913 1000 0.01996993 0.01688746 0.0142309 0.01243921 0.007662913 1000 0.008269537 0.008752446 0.005206012 -0.0006499764 -0.002503783 1000 0.008269537 0.008752446 0.005206012 -0.0006499764 -0.002503783 1000
lala 20 0.0375 1 second 6 1 323 4 4.215001 0.01999831199646 1 0 1 0 -0.01609456 -0.0148671 -0.01377081 -0.01384237 -0.01338731 1000 -0.01609456 -0.0148671 -0.01377081 -0.01384237 -0.01338731 1000 -0.01212033 -0.01193097 -0.01123193 -0.01067728 -0.01010903 1000 -0.01212033 -0.01193097 -0.01123193 -0.01067728 -0.01010903 1000
lala 13 0.15 0 second 0 1 324 4 4.44 3.11999559402466 -1 0 -1 0 -0.001841698 -0.0001475791 -0.0009022242 -0.003071697 -0.008029912 1000 -0.001841698 -0.0001475791 -0.0009022242 -0.003071697 -0.008029912 1000 -0.01559814 -0.01604962 -0.0180574 -0.02044953 -0.02095127 1000 -0.01559814 -0.01604962 -0.0180574 -0.02044953 -0.02095127 1000
lala 19 0.009375 1 second 17 1 325 6 4.276876 0.23999810218811 0 1 1 1 -0.01235315 -0.01330713 -0.0169793 -0.02007692 -0.02228803 1000 -0.01235315 -0.01330713 -0.0169793 -0.02007692 -0.02228803 1000 -0.00772305 -0.006321396 -0.005498388 -0.002125511 -0.002071341 1000 -0.00772305 -0.006321396 -0.005498388 -0.002125511 -0.002071341 1000
