subject PestNr Step_Size_OnTrial Pest_Faster Pest_Interval Condition block trial velH velH_Pest Reaction_Time velH_Subject Start_Above Response_MotionEstimation RightOrLeftxRotations_first0 xRotations_first1 xRotations_first2 xRotations_first3 xRotations_first4 xRotations_first5 yRotations_first0 yRotations_first1 yRotations_first2 yRotations_first3 yRotations_first4 yRotations_first5 xRotations_second0 xRotations_second1 xRotations_second2 xRotations_second3 xRotations_second4 xRotations_second5 yRotations_second0 yRotations_second1 yRotations_second2 yRotations_second3 yRotations_second4 yRotations_second5
lala 1 1.2 1 second 0 1 1 3 3.99 0.519997835159302 0 1 1 0 0.003736274 0.005255198 0.007150535 0.008026097 0.008578612 1000 -0.01401608 -0.009079613 0.000351446 0.005460974 0.006382821 1000 0.007718264 0.007700712 0.007262437 0.00711745 0.007181898 1000 0.003160577 0.003047588 0.007262437 0.002325466 0.0024348 1000
lala 2 1.2 1 second 0 1 2 3 2.79 1.13999724388123 0 1 1 1 -0.01400567 -0.01562977 -0.0150564 -0.01650643 -0.01763078 1000 -0.1048168 -0.09086362 -0.06755938 -0.05033391 -0.03246907 1000 -0.02298206 -0.02285551 -0.02308942 -0.02428432 -0.02495571 1000 0.002570527 0.003216365 -0.02308942 0.004966301 0.004379975 1000
lala 3 1.2 1 second 0 1 3 3 1.59 0.459997892379761 0 1 1 1 -0.02274935 -0.02219273 -0.02137737 -0.02169646 -0.02149688 1000 0.007759617 0.008189665 0.007596977 0.007809673 0.007765865 1000 -0.02300111 -0.0231177 -0.02291741 -0.02304795 -0.02313927 1000 0.008346883 0.00804815 -0.02291741 0.008575458 0.008880214 1000
lala 4 1.2 1 first 0 1 4 3 0.99 2.07999658584595 0 1 1 0 -0.01331769 -0.002404333 -0.002062319 -0.001882214 -0.00347885 1000 -0.002551107 -0.00535091 -0.006474311 -0.006504524 -0.003970259 1000 -0.00674854 -0.008023773 -0.008235113 -0.009719991 -0.008458792 1000 -0.005578052 -0.004836107 -0.008235113 -0.005084144 -0.004358483 1000
lala 5 2.4 0 second 0 1 5 3 0.99 1.21999716758728 0 1 -1 1 -0.0006006612 -0.0004861236 -0.001732312 -0.002766002 -0.002746277 1000 0.000905932 -9.022218E-06 -0.000678022 -0.001152663 -0.002191076 1000 -0.00706606 -0.007212773 -0.007332445 -0.00802135 -0.008305779 1000 -0.002516982 -0.00269053 -0.007332445 -0.002821385 -0.003252858 1000
lala 6 1.2 1 second 0 1 6 3 2.19 0.459997892379761 0 1 1 1 -0.01301932 -0.01315973 -0.01284788 -0.01256906 -0.01259425 1000 -0.001387998 -0.001304784 -0.001360138 -0.001511513 -0.001407437 1000 -0.01335157 -0.01385418 -0.01353154 -0.01378232 -0.01392784 1000 -0.001079891 -0.00100528 -0.01353154 -0.001220613 -0.0005644105 1000
lala 7 0.6 1 first 0 1 7 3 1.59 0.739997625350952 0 1 1 1 -0.01445398 -0.01517317 -0.01595016 -0.01680636 -0.01714677 1000 -0.00136686 -0.0007949063 -0.002060582 -0.002151832 -0.001732588 1000 -0.01659253 -0.01680952 -0.0164773 -0.01689025 -0.01723481 1000 -0.001069146 -0.001419186 -0.0164773 -0.001153902 -0.001384071 1000
lala 8 0.6 0 second 0 1 8 3 0.99 0.639997720718384 0 1 -1 1 -0.0195626 -0.01909016 -0.01906333 -0.01864412 -0.01857596 1000 -0.001983422 -0.002461136 -0.002419261 -0.001558972 -0.002291213 1000 -0.01767182 -0.01750777 -0.01730722 -0.01753048 -0.0172966 1000 -0.001158216 -0.0009285483 -0.01730722 -0.001249609 -0.0005931922 1000
lala 9 0.3 0 second 0 1 9 3 1.29 1.29999709129334 0 1 -1 0 -0.01915135 -0.01970013 -0.01941724 -0.0188401 -0.01822024 1000 -0.001053976 -0.001124553 -0.0008645984 -0.0003782714 -0.0006278311 1000 -0.01786662 -0.01806703 -0.01814391 -0.01841525 -0.0185789 1000 -0.001394037 -0.0008800222 -0.01814391 -0.001559781 -0.00141243 1000
lala 10 0.3 1 second 0 1 10 3 1.59 0.639997720718384 0 1 1 0 0.02129901 0.0260278 0.02293769 0.01874612 0.0189626 1000 -0.001997404 -0.003117329 0.00105641 0.00325767 -0.0006826755 1000 0.01927353 0.01844876 0.01705078 0.01590573 0.01601134 1000 -0.002486648 -0.001423178 0.01705078 -0.0008320828 9.69411E-05 1000
lala 11 0.15 1 second 0 1 11 3 1.44 0.379997968673706 0 1 1 1 0.01802425 0.01745465 0.01752811 0.0177926 0.01823042 1000 -0.0002759324 -0.0001038867 0.0002955841 0.0001984783 0.0004172726 1000 0.01815575 0.0180406 0.01802999 0.01820846 0.01839132 1000 0.0009392035 0.001114509 0.01802999 0.002056531 0.001939571 1000
lala 12 0.15 0 first 0 1 12 3 1.29 0.159998178482056 0 1 -1 0 0.01825147 0.01788191 0.0179363 0.01787 0.01766973 1000 0.001535992 0.0008540005 0.001699541 0.0004837037 0.0008347689 1000 0.01741024 0.01838219 0.01848155 0.01890427 0.01886126 1000 0.0005877621 0.0008180168 0.01848155 0.0008953316 0.0004845344 1000
lala 13 0.075 0 first 0 1 13 3 1.365 0.339998006820679 0 1 -1 0 0.01775127 0.01876588 0.01951452 0.01962331 0.0194596 1000 0.0008316797 0.0003204443 0.0007309144 0.001267284 -0.0002631099 1000 0.01830604 0.01847852 0.0193704 0.01940898 0.0197025 1000 0.001081503 0.0008529833 0.0193704 0.0004014945 0.001613947 1000
lala 14 0.075 1 second 0 1 14 3 1.44 0.459997892379761 0 1 1 1 0.01978038 0.01920073 0.01897272 0.01842333 0.01763809 1000 -0.0001656854 -0.0001864151 0.0003843058 -0.0001451585 0.0001126982 1000 0.01761329 0.01776955 0.017528 0.01760193 0.01711845 1000 0.001100373 0.0010186 0.017528 0.001103429 0.0002372291 1000
lala 15 0.0375 0 first 0 1 15 3 1.4025 0.219998121261597 0 1 -1 1 0.016078 0.0157254 0.01545635 0.01579728 0.01591884 1000 0.001766125 0.001301677 0.001928132 0.001104713 0.00185496 1000 0.01532684 0.0157008 0.01601164 0.01551518 0.01551021 1000 0.002870413 0.001812041 0.01601164 0.002096689 0.002076981 1000
lala 16 0.01875 1 first 0 1 16 3 1.42125 0.139998197555542 0 1 1 1 0.01591302 0.01626246 0.01557071 0.01517741 0.01464604 1000 0.002088564 0.002867352 0.001641459 0.002113207 0.002423786 1000 0.01582154 0.01568718 0.01575835 0.01525675 0.01496973 1000 0.003321346 0.002859875 0.01575835 0.003190048 0.002920219 1000
lala 17 0.009375 0 first 0 1 17 3 1.411875 0.559997797012329 0 1 -1 1 0.0009912117 0.004354348 0.00501174 0.003475593 0.00442911 1000 0.00418099 -0.002449448 0.0104576 0.005888157 -0.0009424447 1000 0.004118656 0.003485172 0.003032569 0.002944052 0.002786416 1000 0.001818746 0.001981519 0.003032569 0.001713428 0.001745809 1000
lala 18 0.0046875 0 first 0 1 18 3 1.416563 0.159998178482056 0 1 -1 1 0.003421258 0.005125991 0.007030709 0.008420034 0.009249148 1000 -0.0001547586 -0.0004353437 0.0007760851 0.0006932301 0.0005695266 1000 0.006894036 0.006799509 0.006831545 0.007132675 0.007143185 1000 0.0003234279 0.0005831057 0.006831545 0.0005240317 0.0007724782 1000
lala 19 0.0046875 0 first 0 1 19 3 1.42125 0.0599982738494873 0 1 -1 0 0.004763469 0.005635494 0.006334983 0.006132156 0.005417835 1000 0.001741972 0.001002426 0.0008088526 0.001019691 0.001013922 1000 -0.002179328 0.004201494 0.005079127 0.005016729 0.00617092 1000 0.0007019712 -0.003967667 0.005079127 -0.0059682 -0.006499535 1000
lala 20 0.0046875 1 first 0 1 20 3 1.425938 1.19999718666077 0 1 1 0 0.01652054 0.02307145 0.02956287 0.03179721 0.0322895 1000 -0.002247146 0.0008606213 0.005706267 0.006739886 0.005832622 1000 0.009668251 0.00886752 0.008201686 0.007398759 0.006835166 1000 0.005567633 0.004538243 0.008201686 0.003067831 0.003562679 1000
lala 21 0.00234375 1 second 0 1 21 3 1.423594 0.359997987747192 0 1 1 0 -2.834078E-05 -0.000406516 -0.0007150281 -8.234572E-05 0.000656882 1000 0.004324847 0.004159017 0.004609209 0.004852484 0.004605412 1000 0.0002521761 6.239593E-05 -0.0004651624 -0.0005855951 -0.0003434761 1000 0.005206806 0.004707721 -0.0004651624 0.004825829 0.005317044 1000
