subject PestNr Step_Size_OnTrial Pest_Faster Pest_Interval Condition block trial velH velH_Pest Reaction_Time velH_Subject Start_Above Response_MotionEstimation RightOrLeftxRotations_first0 xRotations_first1 xRotations_first2 xRotations_first3 xRotations_first4 xRotations_first5 yRotations_first0 yRotations_first1 yRotations_first2 yRotations_first3 yRotations_first4 yRotations_first5 xRotations_second0 xRotations_second1 xRotations_second2 xRotations_second3 xRotations_second4 xRotations_second5 yRotations_second0 yRotations_second1 yRotations_second2 yRotations_second3 yRotations_second4 yRotations_second5
lala 1 1.2 0 second 16 1 1 6 3.96 1.95999670028687 0 0 -1 0 0.006322029 0.008425904 0.009627796 0.009984538 0.01051467 1000 0.006322029 0.008425904 0.009627796 0.009984538 0.01051467 1000 0.01066951 0.01128606 0.01105937 0.01034936 0.00990588 1000 0.01066951 0.01128606 0.01105937 0.01034936 0.00990588 1000
lala 1 1.2 1 second 17 1 2 6 7.98 0.23999810218811 0 1 1 1 -0.0005398163 -0.0006964662 -0.0004267465 -0.0003811182 -0.0004026259 1000 -0.0005398163 -0.0006964662 -0.0004267465 -0.0003811182 -0.0004026259 1000 -0.00133718 -0.001261201 -0.001219603 -0.001757904 -0.001572918 1000 -0.00133718 -0.001261201 -0.001219603 -0.001757904 -0.001572918 1000
lala 1 1.2 1 second 11 1 3 6 7.98 0.299998044967651 1 1 1 1 -0.004129495 -0.004007508 -0.004316474 -0.003983159 -0.003971473 1000 -0.004129495 -0.004007508 -0.004316474 -0.003983159 -0.003971473 1000 -0.003374103 -0.00365234 -0.003827919 -0.004242123 -0.004042733 1000 -0.003374103 -0.00365234 -0.003827919 -0.004242123 -0.004042733 1000
lala 1 1.2 1 second 1 1 4 4 5.32 0.359997987747192 -1 1 1 0 -0.005373156 0.003373503 0.008475514 0.01268425 0.01386348 1000 -0.005373156 0.003373503 0.008475514 0.01268425 0.01386348 1000 0.009955816 0.009466277 0.009313956 0.008710872 0.008209668 1000 0.009955816 0.009466277 0.009313956 0.008710872 0.008209668 1000
lala 1 1.2 1 second 2 1 5 5 3.3 1.73999691009521 -1 0 1 0 0.005326317 0.004449425 0.003963898 0.003818361 0.003577528 1000 0.005326317 0.004449425 0.003963898 0.003818361 0.003577528 1000 0.003461251 0.003520745 0.003638724 0.004154378 0.004182025 1000 0.003461251 0.003520745 0.003638724 0.004154378 0.004182025 1000
lala 2 1.2 1 second 17 1 6 6 6.780001 0.599997758865356 0 1 1 1 0.02611474 0.02866689 0.03110823 0.03370097 0.03497544 1000 0.02611474 0.02866689 0.03110823 0.03370097 0.03497544 1000 0.03420409 0.0335616 0.03348015 0.03344354 0.03374913 1000 0.03420409 0.0335616 0.03348015 0.03344354 0.03374913 1000
lala 1 1.2 0 first 0 1 7 4 2.64 0.359997987747192 -1 0 -1 1 0.01007324 0.006622562 0.007989698 1000 1000 1000 0.01007324 0.006622562 0.007989698 1000 1000 1000 0.002624906 0.002872469 0.002560636 0.002374057 0.002078074 1000 0.002624906 0.002872469 0.002560636 0.002374057 0.002078074 1000
lala 2 1.2 1 second 1 1 8 4 4.12 0.439997911453247 -1 1 1 0 0.002195433 0.002108248 0.002266033 0.002321108 0.002424782 1000 0.002195433 0.002108248 0.002266033 0.002321108 0.002424782 1000 0.002494075 0.002587248 0.0022982 0.002116658 0.002162669 1000 0.002494075 0.002587248 0.0022982 0.002116658 0.002162669 1000
lala 2 1.2 1 second 11 1 9 6 6.780001 0.379997968673706 1 1 1 1 0.001361286 0.001565198 0.001453797 0.001719449 0.001606988 1000 0.001361286 0.001565198 0.001453797 0.001719449 0.001606988 1000 0.001593484 0.001210435 0.0008032019 0.0004523665 0.0002728781 1000 0.001593484 0.001210435 0.0008032019 0.0004523665 0.0002728781 1000
lala 1 1.2 1 first 3 1 10 5 6.65 1.45999693870544 -1 1 1 0 0.0001029117 0.0004514526 0.0005831839 1000 1000 1000 0.0001029117 0.0004514526 0.0005831839 1000 1000 1000 0.000713549 0.0005868577 0.0007231662 0.0005338214 0.0007790935 1000 0.000713549 0.0005868577 0.0007231662 0.0005338214 0.0007790935 1000
lala 1 1.2 1 first 13 1 11 4 5.32 0.339998006820679 0 1 1 0 0.002375648 0.002291239 0.002734697 1000 1000 1000 0.002375648 0.002291239 0.002734697 1000 1000 1000 0.002496511 0.002623449 0.002403276 0.002191366 0.001944075 1000 0.002496511 0.002623449 0.002403276 0.002191366 0.001944075 1000
lala 1 1.2 1 second 5 1 12 6 7.98 0.319998025894165 -1 1 1 1 0.001953515 0.001681459 0.001629137 0.001373709 0.001581804 1000 0.001953515 0.001681459 0.001629137 0.001373709 0.001581804 1000 0.00109832 0.001212912 0.0009745683 0.001056232 0.001157873 1000 0.00109832 0.001212912 0.0009745683 0.001056232 0.001157873 1000
lala 2 1.2 1 second 13 1 13 4 4.12 0.439997911453247 0 1 1 0 0.001743219 0.001613018 0.00159695 0.001280442 0.001222132 1000 0.001743219 0.001613018 0.00159695 0.001280442 0.001222132 1000 0.001676322 0.001900557 0.001634335 0.001466276 0.00141489 1000 0.001676322 0.001900557 0.001634335 0.001466276 0.00141489 1000
lala 1 1.2 0 first 12 1 14 4 2.64 0.23999810218811 0 0 -1 0 0.001044663 0.0009532768 0.0007282711 1000 1000 1000 0.001044663 0.0009532768 0.0007282711 1000 1000 1000 0.001804904 0.001488408 0.001441947 0.001343568 0.001446996 1000 0.001804904 0.001488408 0.001441947 0.001343568 0.001446996 1000
lala 2 1.2 1 second 0 1 15 4 3.84 0.439997911453247 -1 0 1 1 0.001908254 0.001918883 0.001773497 0.001941857 0.002022039 1000 0.001908254 0.001918883 0.001773497 0.001941857 0.002022039 1000 0.001553129 0.001087902 0.001232441 0.001368863 0.001147557 1000 0.001553129 0.001087902 0.001232441 0.001368863 0.001147557 1000
lala 2 1.2 1 first 3 1 16 5 5.45 0.299998044967651 -1 1 1 0 0.002317067 0.002159991 0.002085332 1000 1000 1000 0.002317067 0.002159991 0.002085332 1000 1000 1000 0.001364423 0.001804295 0.002336958 0.002390425 0.001969683 1000 0.001364423 0.001804295 0.002336958 0.002390425 0.001969683 1000
lala 2 1.2 1 first 12 1 17 4 3.84 0.359997987747192 0 0 1 0 0.001698352 0.001482902 0.001967594 1000 1000 1000 0.001698352 0.001482902 0.001967594 1000 1000 1000 0.002223182 0.002150523 0.001785788 0.001426038 0.001410513 1000 0.002223182 0.002150523 0.001785788 0.001426038 0.001410513 1000
lala 1 1.2 1 second 8 1 18 5 3.3 0.459997892379761 1 0 1 0 0.001519563 0.00182209 0.001798631 0.002074682 0.002047365 1000 0.001519563 0.00182209 0.001798631 0.002074682 0.002047365 1000 0.001789534 0.001233759 0.001124872 0.0009052223 0.001427326 1000 0.001789534 0.001233759 0.001124872 0.0009052223 0.001427326 1000
lala 2 1.2 1 second 5 1 19 6 6.780001 0.459997892379761 -1 1 1 0 0.002231018 0.002395705 0.00221598 0.001852324 0.001953774 1000 0.002231018 0.002395705 0.00221598 0.001852324 0.001953774 1000 0.00151894 0.001612127 0.001842103 0.001974848 0.001739357 1000 0.00151894 0.001612127 0.001842103 0.001974848 0.001739357 1000
lala 1 1.2 0 second 4 1 20 6 3.96 1.01999735832214 -1 0 -1 1 0.001980983 0.002013915 0.002128426 0.002310027 0.002413103 1000 0.001980983 0.002013915 0.002128426 0.002310027 0.002413103 1000 0.002709755 0.002369933 0.002235721 0.002029784 0.002264647 1000 0.002709755 0.002369933 0.002235721 0.002029784 0.002264647 1000
lala 3 1.2 0 second 0 1 21 4 2.64 0.579997777938843 -1 0 -1 1 0.003824147 0.004415214 0.004783144 0.004890536 0.00488229 1000 0.003824147 0.004415214 0.004783144 0.004890536 0.00488229 1000 0.00403116 0.00389381 0.004085794 0.00427183 0.004241249 1000 0.00403116 0.00389381 0.004085794 0.00427183 0.004241249 1000
lala 4 1.2 0 second 0 1 22 4 3.84 0.39999794960022 -1 0 -1 1 0.003568538 0.00349808 0.003188396 0.003299912 0.003709808 1000 0.003568538 0.00349808 0.003188396 0.003299912 0.003709808 1000 0.0037732 0.003584829 0.003763205 0.003582761 0.003594685 1000 0.0037732 0.003584829 0.003763205 0.003582761 0.003594685 1000
lala 3 1.2 0 second 12 1 23 4 2.64 0.959997415542603 0 0 -1 0 0.003313945 0.003642295 0.003912606 0.003807451 0.003747355 1000 0.003313945 0.003642295 0.003912606 0.003807451 0.003747355 1000 0.003217104 0.003287321 0.00334109 0.00324719 0.003098544 1000 0.003217104 0.003287321 0.00334109 0.00324719 0.003098544 1000
lala 3 1.2 1 second 11 1 24 6 5.580001 0.39999794960022 1 1 1 1 0.003937179 0.003884426 0.003682456 0.003755007 0.003696567 1000 0.003937179 0.003884426 0.003682456 0.003755007 0.003696567 1000 0.00350459 0.003569623 0.003388857 0.003391531 0.003370965 1000 0.00350459 0.003569623 0.003388857 0.003391531 0.003370965 1000
lala 2 1.2 0 first 8 1 25 5 2.1 0.0999982357025146 1 0 -1 0 0.001749046 0.002050482 0.002334511 1000 1000 1000 0.001749046 0.002050482 0.002334511 1000 1000 1000 0.002567901 0.002480553 0.002539943 0.002590054 0.002526953 1000 0.002567901 0.002480553 0.002539943 0.002590054 0.002526953 1000
lala 1 1.2 0 second 6 1 26 4 2.64 0.379997968673706 1 0 -1 1 0.002122857 0.002248969 0.002653664 0.003086957 0.002873309 1000 0.002122857 0.002248969 0.002653664 0.003086957 0.002873309 1000 0.002211479 0.002033508 0.002279396 0.002589919 0.002634801 1000 0.002211479 0.002033508 0.002279396 0.002589919 0.002634801 1000
lala 3 1.2 0 first 17 1 27 6 5.580001 0.639997720718384 0 1 -1 0 0.00271693 0.002806431 0.002792004 1000 1000 1000 0.00271693 0.002806431 0.002792004 1000 1000 1000 0.002444197 0.002590073 0.002651724 0.002662634 0.002685477 1000 0.002444197 0.002590073 0.002651724 0.002662634 0.002685477 1000
lala 3 1.2 0 first 5 1 28 6 5.580001 0.559997797012329 -1 1 -1 1 0.0006810649 0.001011815 0.0005477699 1000 1000 1000 0.0006810649 0.001011815 0.0005477699 1000 1000 1000 0.002171773 0.002063474 0.002435877 0.001980623 0.001243584 1000 0.002171773 0.002063474 0.002435877 0.001980623 0.001243584 1000
lala 2 1.2 1 first 2 1 29 5 2.1 0.259998083114624 -1 0 1 0 0.001897229 0.002655034 0.002643406 1000 1000 1000 0.001897229 0.002655034 0.002643406 1000 1000 1000 0.002388092 0.002160253 0.002743056 0.003130992 0.003296056 1000 0.002388092 0.002160253 0.002743056 0.003130992 0.003296056 1000
lala 2 1.2 1 second 16 1 30 6 5.16 1.55999684333801 0 0 1 0 -0.04915293 -0.0205035 -0.001882944 0.005976961 0.01062783 1000 -0.04915293 -0.0205035 -0.001882944 0.005976961 0.01062783 1000 0.005120707 0.002817164 -0.0007587388 0.002553418 0.004664135 1000 0.005120707 0.002817164 -0.0007587388 0.002553418 0.004664135 1000
lala 3 1.2 0 second 16 1 31 6 3.96 0.23999810218811 0 0 -1 0 0.006190497 0.00625964 0.00660288 0.006755109 0.00708528 1000 0.006190497 0.00625964 0.00660288 0.006755109 0.00708528 1000 0.006966631 0.006819897 0.007045506 0.007264465 0.007214247 1000 0.006966631 0.006819897 0.007045506 0.007264465 0.007214247 1000
lala 3 1.2 1 first 13 1 32 4 2.92 0.659997701644897 0 1 1 1 0.00825192 0.00917842 0.009313129 1000 1000 1000 0.00825192 0.00917842 0.009313129 1000 1000 1000 0.009202876 0.009525828 0.009715733 0.009510194 0.009252596 1000 0.009202876 0.009525828 0.009715733 0.009510194 0.009252596 1000
lala 3 1.2 0 first 8 1 33 5 3.3 0.119998216629028 1 0 -1 0 0.009948122 0.009375274 0.009182638 1000 1000 1000 0.009948122 0.009375274 0.009182638 1000 1000 1000 0.01005917 0.009835032 0.009876057 0.0102192 0.01024505 1000 0.01005917 0.009835032 0.009876057 0.0102192 0.01024505 1000
lala 5 1.2 0 second 0 1 34 4 5.04 4.59999418258667 -1 0 -1 1 0.00983453 0.01002339 0.0101087 0.01031846 0.0104445 1000 0.00983453 0.01002339 0.0101087 0.01031846 0.0104445 1000 0.01029221 0.01011332 0.01050393 0.01061064 0.01042776 1000 0.01029221 0.01011332 0.01050393 0.01061064 0.01042776 1000
lala 3 1.2 0 second 3 1 35 5 4.25 0.299998044967651 -1 1 -1 0 0.01727152 0.01802836 0.01871796 0.01902393 0.0191789 1000 0.01727152 0.01802836 0.01871796 0.01902393 0.0191789 1000 0.01902281 0.01839698 0.01845434 0.01844345 0.01866365 1000 0.01902281 0.01839698 0.01845434 0.01844345 0.01866365 1000
lala 2 1.2 0 first 4 1 36 6 5.16 0.859997510910034 -1 0 -1 0 0.01912202 0.01911953 0.01880738 1000 1000 1000 0.01912202 0.01911953 0.01880738 1000 1000 1000 0.01919362 0.01915165 0.01939576 0.01927822 0.01919019 1000 0.01919362 0.01915165 0.01939576 0.01927822 0.01919019 1000
lala 3 1.2 0 second 2 1 37 5 1.65 0.259998083114624 -1 0 -1 0 0.0005748774 -0.0005322674 0.002995054 0.01371311 0.02857437 1000 0.0005748774 -0.0005322674 0.002995054 0.01371311 0.02857437 1000 0.03085121 0.02817773 0.02503575 0.02540403 0.02537021 1000 0.03085121 0.02817773 0.02503575 0.02540403 0.02537021 1000
lala 1 1.2 1 second 7 1 38 4 5.32 0.599997758865356 1 1 1 0 0.01519684 0.01357412 0.01265453 0.01270445 0.01283944 1000 0.01519684 0.01357412 0.01265453 0.01270445 0.01283944 1000 0.01238776 0.01256621 0.01222692 0.01179332 0.01164755 1000 0.01238776 0.01256621 0.01222692 0.01179332 0.01164755 1000
lala 4 1.2 1 first 3 1 39 5 5.45 0.439997911453247 -1 1 1 0 0.01151719 0.01180904 0.01154758 1000 1000 1000 0.01151719 0.01180904 0.01154758 1000 1000 1000 0.01177226 0.01172926 0.01187242 0.01176916 0.01133616 1000 0.01177226 0.01172926 0.01187242 0.01176916 0.01133616 1000
lala 4 1.2 1 first 12 1 40 4 3.84 1.61999702453613 0 0 1 0 0.01117829 0.01150833 0.01188992 1000 1000 1000 0.01117829 0.01150833 0.01188992 1000 1000 1000 0.01133133 0.0111341 0.01109872 0.01090914 0.01125618 1000 0.01133133 0.0111341 0.01109872 0.01090914 0.01125618 1000
lala 1 1.2 1 second 14 1 41 5 3.3 0.679997682571411 0 0 1 0 0.01226907 0.01235513 0.01296423 0.0134656 0.01341197 1000 0.01226907 0.01235513 0.01296423 0.0134656 0.01341197 1000 0.0122789 0.01250891 0.01239955 0.01245481 0.01259095 1000 0.0122789 0.01250891 0.01239955 0.01245481 0.01259095 1000
lala 4 1.2 1 second 8 1 42 5 4.5 0.279998064041138 1 0 1 1 0.01262733 0.0126041 0.01234212 0.01243034 0.01236491 1000 0.01262733 0.0126041 0.01234212 0.01243034 0.01236491 1000 0.01305169 0.01285679 0.01292783 0.01297544 0.01332372 1000 0.01305169 0.01285679 0.01292783 0.01297544 0.01332372 1000
lala 4 1.2 1 second 13 1 43 4 1.72 0.539997816085815 0 1 1 1 0.0124545 0.01263104 0.01281759 0.01274604 0.01255394 1000 0.0124545 0.01263104 0.01281759 0.01274604 0.01255394 1000 0.01219837 0.01248148 0.01276709 0.01278441 0.01269615 1000 0.01219837 0.01248148 0.01276709 0.01278441 0.01269615 1000
lala 1 1.2 0 first 9 1 44 5 6.65 0.539997816085815 1 1 -1 0 0.01097264 0.01088759 0.01059643 1000 1000 1000 0.01097264 0.01088759 0.01059643 1000 1000 1000 0.009678847 0.01038505 0.009953044 0.009648114 0.009535949 1000 0.009678847 0.01038505 0.009953044 0.009648114 0.009535949 1000
lala 2 1.2 1 second 14 1 45 5 2.1 0.679997682571411 0 0 1 1 0.00639423 0.005915195 0.006983848 0.006511981 0.006066666 1000 0.00639423 0.005915195 0.006983848 0.006511981 0.006066666 1000 0.008759961 0.00856636 0.008446376 0.008569691 0.008897822 1000 0.008759961 0.00856636 0.008446376 0.008569691 0.008897822 1000
lala 4 1.2 1 second 16 1 46 6 5.16 0.319998025894165 0 0 1 1 0.008877177 0.009231843 0.009363881 0.009855927 0.009635763 1000 0.008877177 0.009231843 0.009363881 0.009855927 0.009635763 1000 0.009194947 0.009271865 0.009452742 0.009504437 0.009809673 1000 0.009194947 0.009271865 0.009452742 0.009504437 0.009809673 1000
lala 1 1.2 1 second 15 1 47 5 6.65 0.319998025894165 0 1 1 0 0.01108687 0.01154597 0.011835 0.01172179 0.0115185 1000 0.01108687 0.01154597 0.011835 0.01172179 0.0115185 1000 0.01113418 0.01115274 0.01159292 0.01206503 0.01199206 1000 0.01113418 0.01115274 0.01159292 0.01206503 0.01199206 1000
lala 4 1.2 0 second 2 1 48 5 2.85 0.159998178482056 -1 0 -1 1 0.01214284 0.01225346 0.01262715 0.0129165 0.01271532 1000 0.01214284 0.01225346 0.01262715 0.0129165 0.01271532 1000 0.01220916 0.01420448 0.01665235 0.01728308 0.01898327 1000 0.01220916 0.01420448 0.01665235 0.01728308 0.01898327 1000
lala 5 1.2 1 second 3 1 49 5 4.25 0.659997701644897 -1 1 1 1 0.022167 0.02308834 0.02141621 0.02092762 0.01815268 1000 0.022167 0.02308834 0.02141621 0.02092762 0.01815268 1000 0.01799188 0.01726658 0.01704779 0.01691919 0.01728242 1000 0.01799188 0.01726658 0.01704779 0.01691919 0.01728242 1000
lala 6 1.2 1 second 0 1 50 4 6.24 0.319998025894165 -1 0 1 1 0.003150248 0.003225693 0.001848291 0.001617249 0.002045027 1000 0.003150248 0.003225693 0.001848291 0.001617249 0.002045027 1000 -0.0007240337 -0.0008830709 -0.0009203464 -0.001338971 -0.001623903 1000 -0.0007240337 -0.0008830709 -0.0009203464 -0.001338971 -0.001623903 1000
lala 2 1.2 1 first 9 1 51 5 7.85 0.439997911453247 1 1 1 1 -0.003567515 -0.003683433 -0.003434909 1000 1000 1000 -0.003567515 -0.003683433 -0.003434909 1000 1000 1000 -0.002535645 -0.002385102 -0.002584671 -0.003215088 -0.003555139 1000 -0.002535645 -0.002385102 -0.002584671 -0.003215088 -0.003555139 1000
lala 2 1.2 1 second 6 1 52 4 3.84 1.5399968624115 1 0 1 1 6.0534E-06 0.0005413733 0.0006261848 1.329741E-05 -0.0003218071 1000 6.0534E-06 0.0005413733 0.0006261848 1.329741E-05 -0.0003218071 1000 0.001054939 0.001683822 0.001404286 0.001662959 0.001862515 1000 0.001054939 0.001683822 0.001404286 0.001662959 0.001862515 1000
lala 6 1.2 0 second 3 1 53 5 3.05 0.299998044967651 -1 1 -1 1 0.0003974153 0.0004839639 0.0003546099 0.0001365523 -0.0002116859 1000 0.0003974153 0.0004839639 0.0003546099 0.0001365523 -0.0002116859 1000 0.0001611138 0.0001325262 0.0001257065 5.039189E-05 9.435145E-05 1000 0.0001611138 0.0001325262 0.0001257065 5.039189E-05 9.435145E-05 1000
lala 5 1.2 0 first 16 1 54 6 3.96 0.759997606277466 0 0 -1 1 0.0007049182 0.0157199 0.01887144 1000 1000 1000 0.0007049182 0.0157199 0.01887144 1000 1000 1000 0.113084 0.1165162 0.1173583 0.1163775 0.1143692 1000 0.113084 0.1165162 0.1173583 0.1163775 0.1143692 1000
lala 6 1.2 1 first 16 1 55 6 5.16 3.0399956703186 0 0 1 1 0.01470768 0.001450028 -0.0007366763 1000 1000 1000 0.01470768 0.001450028 -0.0007366763 1000 1000 1000 0.008255202 0.009178872 0.00901919 0.008989447 0.008768208 1000 0.008255202 0.009178872 0.00901919 0.008989447 0.008768208 1000
lala 5 1.2 0 second 13 1 56 4 1.32 0.319998025894165 0 1 -1 0 0.007923174 0.007754923 0.007949078 0.008059549 0.007618396 1000 0.007923174 0.007754923 0.007949078 0.008059549 0.007618396 1000 0.01345574 0.01384824 0.01373031 0.01328934 0.0129946 1000 0.01345574 0.01384824 0.01373031 0.01328934 0.0129946 1000
lala 3 1.2 0 first 6 1 57 4 2.64 1.17999720573425 1 0 -1 1 0.0122049 0.01259412 0.01297983 1000 1000 1000 0.0122049 0.01259412 0.01297983 1000 1000 1000 0.01330064 0.01328052 0.0131649 0.01286372 0.01318654 1000 0.01330064 0.01328052 0.0131649 0.01286372 0.01318654 1000
lala 7 1.2 0 first 0 1 58 4 5.04 0.199998140335083 -1 0 -1 1 0.003576751 0.003243956 0.001461102 1000 1000 1000 0.003576751 0.003243956 0.001461102 1000 1000 1000 0.02448648 0.02428125 0.02447462 0.02490942 0.02508838 1000 0.02448648 0.02428125 0.02447462 0.02490942 0.02508838 1000
lala 5 1.2 0 second 8 1 59 5 3.3 0.359997987747192 1 0 -1 1 -0.011506 -0.01481817 -0.02236804 -0.02514852 -0.02728537 1000 -0.011506 -0.01481817 -0.02236804 -0.02514852 -0.02728537 1000 -0.01840042 -0.0004025068 0.003312562 0.003831009 0.002797074 1000 -0.01840042 -0.0004025068 0.003312562 0.003831009 0.002797074 1000
lala 4 1.2 0 first 5 1 60 6 6.780001 0.279998064041138 -1 1 -1 1 -0.02277821 -0.01522404 0.00155718 1000 1000 1000 -0.02277821 -0.01522404 0.00155718 1000 1000 1000 0.02164403 0.0192485 0.01758537 0.01490089 0.01234095 1000 0.02164403 0.0192485 0.01758537 0.01490089 0.01234095 1000
lala 6 1.2 0 second 13 1 61 4 2.52 1.55999684333801 0 1 -1 1 -0.003268732 0.0006596842 0.01079491 0.01283878 0.00975497 1000 -0.003268732 0.0006596842 0.01079491 0.01283878 0.00975497 1000 0.004160004 0.003366214 0.004134146 0.003896381 0.002691021 1000 0.004160004 0.003366214 0.004134146 0.003896381 0.002691021 1000
lala 2 1.2 0 first 7 1 62 4 4.12 0.579997777938843 1 1 -1 1 -0.001069659 -0.0003679721 0.0001223935 1000 1000 1000 -0.001069659 -0.0003679721 0.0001223935 1000 1000 1000 -0.0004556725 -0.0007470222 -0.0006503772 -0.0003935519 -0.0004732119 1000 -0.0004556725 -0.0007470222 -0.0006503772 -0.0003935519 -0.0004732119 1000
lala 3 1.2 1 first 4 1 63 6 6.36 3.53999519348145 -1 0 1 0 -0.001335508 -0.001230992 -0.0009808847 1000 1000 1000 -0.001335508 -0.001230992 -0.0009808847 1000 1000 1000 -0.00258826 -0.001949375 -0.001471331 -0.001661215 -0.00173373 1000 -0.00258826 -0.001949375 -0.001471331 -0.001661215 -0.00173373 1000
lala 3 1.2 0 first 1 1 64 4 2.92 0.0999982357025146 -1 1 -1 0 -0.01223413 -0.01259161 -0.01254588 1000 1000 1000 -0.01223413 -0.01259161 -0.01254588 1000 1000 1000 -0.01281285 -0.01279982 -0.01242945 -0.01195621 -0.01177659 1000 -0.01281285 -0.01279982 -0.01242945 -0.01195621 -0.01177659 1000
lala 3 1.2 1 second 9 1 65 5 6.650001 0.259998083114624 1 1 1 1 -0.0121043 -0.01232009 -0.01234488 -0.01201306 -0.01208629 1000 -0.0121043 -0.01232009 -0.01234488 -0.01201306 -0.01208629 1000 -0.01284494 -0.01249558 -0.01233525 -0.01249972 -0.01240469 1000 -0.01284494 -0.01249558 -0.01233525 -0.01249972 -0.01240469 1000
lala 5 1.2 0 second 12 1 66 4 2.64 0.23999810218811 0 0 -1 0 -0.01195018 -0.01219523 -0.01206778 -0.01168182 -0.01210499 1000 -0.01195018 -0.01219523 -0.01206778 -0.01168182 -0.01210499 1000 -0.01220544 -0.01193331 -0.01198176 -0.01179643 -0.01172531 1000 -0.01220544 -0.01193331 -0.01198176 -0.01179643 -0.01172531 1000
lala 5 1.2 0 first 5 1 67 6 7.98 0.479997873306274 -1 1 -1 1 -0.01070845 -0.01027437 -0.01042139 1000 1000 1000 -0.01070845 -0.01027437 -0.01042139 1000 1000 1000 -0.008812725 -0.008056848 -0.008209552 -0.008373834 -0.007465852 1000 -0.008812725 -0.008056848 -0.008209552 -0.008373834 -0.007465852 1000
lala 4 1.2 1 first 11 1 68 6 4.380001 0.419997930526733 1 1 1 0 -0.008066147 -0.007601968 -0.007851654 1000 1000 1000 -0.008066147 -0.007601968 -0.007851654 1000 1000 1000 -0.002701 -0.002622137 -0.002792716 -0.002661831 -0.002375781 1000 -0.002701 -0.002622137 -0.002792716 -0.002661831 -0.002375781 1000
lala 3 1.2 1 second 7 1 69 4 5.32 0.139998197555542 1 1 1 1 -0.003041065 -0.00277917 -0.002955767 -0.003281776 -0.003659052 1000 -0.003041065 -0.00277917 -0.002955767 -0.003281776 -0.003659052 1000 -0.003480869 -0.003248223 -0.002991836 -0.003193888 -0.003673796 1000 -0.003480869 -0.003248223 -0.002991836 -0.003193888 -0.003673796 1000
lala 4 1.2 0 first 17 1 70 6 6.780001 0.559997797012329 0 1 -1 1 -0.003860545 -0.003373245 -0.004498016 1000 1000 1000 -0.003860545 -0.003373245 -0.004498016 1000 1000 1000 -0.007088008 -0.006894408 -0.006515853 -0.00614024 -0.006151429 1000 -0.007088008 -0.006894408 -0.006515853 -0.00614024 -0.006151429 1000
lala 5 1.2 0 first 11 1 71 6 3.180001 0.139998197555542 1 1 -1 0 -0.005969605 -0.005586334 -0.005762415 1000 1000 1000 -0.005969605 -0.005586334 -0.005762415 1000 1000 1000 -0.005264721 -0.005508212 -0.005633977 -0.005655663 -0.005532541 1000 -0.005264721 -0.005508212 -0.005633977 -0.005655663 -0.005532541 1000
lala 4 1.2 0 second 1 1 72 4 4.12 0.419997930526733 -1 1 -1 1 -0.005111847 -0.005196411 -0.00498467 -0.004665694 -0.004823196 1000 -0.005111847 -0.005196411 -0.00498467 -0.004665694 -0.004823196 1000 -0.005767872 -0.006137711 -0.00644996 -0.006386077 -0.005854367 1000 -0.005767872 -0.006137711 -0.00644996 -0.006386077 -0.005854367 1000
lala 5 1.2 1 second 17 1 73 6 7.98 0.119998216629028 0 1 1 0 -0.005055998 -0.004914613 -0.004953831 -0.005273959 -0.005639821 1000 -0.005055998 -0.004914613 -0.004953831 -0.005273959 -0.005639821 1000 -0.006309633 -0.006111746 -0.005570608 -0.00555956 -0.005714665 1000 -0.006309633 -0.006111746 -0.005570608 -0.00555956 -0.005714665 1000
lala 6 1.2 0 second 11 1 74 6 4.380001 0.279998064041138 1 1 -1 1 -0.005545279 -0.005520781 -0.005767323 -0.006068354 -0.006032686 1000 -0.005545279 -0.005520781 -0.005767323 -0.006068354 -0.006032686 1000 -0.005381507 -0.005762482 -0.00601041 -0.006029276 -0.006016646 1000 -0.005381507 -0.005762482 -0.00601041 -0.006029276 -0.006016646 1000
lala 6 1.2 1 second 12 1 75 4 3.84 0.419997930526733 0 0 1 1 -0.005550133 -0.005966707 -0.006032926 -0.005834938 -0.006015433 1000 -0.005550133 -0.005966707 -0.006032926 -0.005834938 -0.006015433 1000 -0.005490221 -0.005851708 -0.005918869 -0.005700907 -0.005688895 1000 -0.005490221 -0.005851708 -0.005918869 -0.005700907 -0.005688895 1000
lala 3 1.2 0 second 14 1 76 5 1.65 0.359997987747192 0 0 -1 1 -0.0121905 -0.01168632 -0.01106609 -0.01072133 -0.01058478 1000 -0.0121905 -0.01168632 -0.01106609 -0.01072133 -0.01058478 1000 -0.00763947 -0.007651313 -0.00767006 -0.008047811 -0.007872108 1000 -0.00763947 -0.007651313 -0.00767006 -0.008047811 -0.007872108 1000
lala 4 1.2 0 second 7 1 77 4 4.12 0.599997758865356 1 1 -1 1 -0.0004014187 0.002024529 0.005434283 0.009051317 0.01303414 1000 -0.0004014187 0.002024529 0.005434283 0.009051317 0.01303414 1000 0.02987059 0.02964238 0.02927042 0.0285947 0.02748379 1000 0.02987059 0.02964238 0.02927042 0.0285947 0.02748379 1000
lala 8 1.2 0 first 0 1 78 4 6.24 0.579997777938843 -1 0 -1 1 0.01747821 0.01497131 0.01075617 1000 1000 1000 0.01747821 0.01497131 0.01075617 1000 1000 1000 -0.009473721 -0.009096677 -0.009586521 -0.009935801 -0.009839779 1000 -0.009473721 -0.009096677 -0.009586521 -0.009935801 -0.009839779 1000
lala 4 1.2 0 second 14 1 79 5 2.85 0.339998006820679 0 0 -1 1 -0.009141958 -0.009288109 -0.009701729 -0.009684094 -0.00973442 1000 -0.009141958 -0.009288109 -0.009701729 -0.009684094 -0.00973442 1000 -0.01059821 -0.01070233 -0.01047321 -0.01070941 -0.01105912 1000 -0.01059821 -0.01070233 -0.01047321 -0.01070941 -0.01105912 1000
lala 5 1.2 0 second 1 1 80 4 5.32 0.359997987747192 -1 1 -1 0 -0.01089231 -0.01122486 -0.01128945 -0.01128137 -0.01122596 1000 -0.01089231 -0.01122486 -0.01128945 -0.01128137 -0.01122596 1000 -0.01080699 -0.01046129 -0.0105225 -0.0105354 -0.01096213 1000 -0.01080699 -0.01046129 -0.0105225 -0.0105354 -0.01096213 1000
lala 6 1.2 1 first 5 1 81 6 9.18 0.159998178482056 -1 1 1 0 -0.01578863 -0.01596001 -0.01579591 1000 1000 1000 -0.01578863 -0.01596001 -0.01579591 1000 1000 1000 -0.01397071 -0.01461598 -0.01455163 -0.01449602 -0.01458294 1000 -0.01397071 -0.01461598 -0.01455163 -0.01449602 -0.01458294 1000
lala 7 1.2 1 first 13 1 82 4 3.72 0.379997968673706 0 1 1 1 -0.01559404 -0.01693708 -0.02018084 1000 1000 1000 -0.01559404 -0.01693708 -0.02018084 1000 1000 1000 -0.004279178 -0.007064934 -0.008538933 -0.008119912 -0.008179829 1000 -0.004279178 -0.007064934 -0.008538933 -0.008119912 -0.008179829 1000
lala 6 1.2 1 first 17 1 83 6 6.780001 3.51999521255493 0 1 1 1 -0.01674308 -0.01258409 -0.01026169 1000 1000 1000 -0.01674308 -0.01258409 -0.01026169 1000 1000 1000 -0.01179426 -0.01153068 -0.01141185 -0.01139676 -0.01105367 1000 -0.01179426 -0.01153068 -0.01141185 -0.01139676 -0.01105367 1000
lala 7 1.2 0 first 11 1 84 6 5.580001 1.27999711036682 1 1 -1 0 -0.01224926 -0.01186483 -0.01149745 1000 1000 1000 -0.01224926 -0.01186483 -0.01149745 1000 1000 1000 -0.01192673 -0.01203703 -0.01239328 -0.01258123 -0.01320167 1000 -0.01192673 -0.01203703 -0.01239328 -0.01258123 -0.01320167 1000
lala 7 1.2 0 first 5 1 85 6 7.98 0.39999794960022 -1 1 -1 1 -0.0185375 -0.01886099 -0.01894716 1000 1000 1000 -0.0185375 -0.01886099 -0.01894716 1000 1000 1000 -0.02001909 -0.01991463 -0.02028393 -0.02020386 -0.02046116 1000 -0.02001909 -0.01991463 -0.02028393 -0.02020386 -0.02046116 1000
lala 5 1.2 1 first 7 1 86 4 5.32 1.73999691009521 1 1 1 1 -0.02167925 -0.01865847 -0.01441952 1000 1000 1000 -0.02167925 -0.01865847 -0.01441952 1000 1000 1000 0.08600848 0.08564016 0.08254567 0.07794145 0.06877591 1000 0.08600848 0.08564016 0.08254567 0.07794145 0.06877591 1000
lala 6 1.2 1 first 8 1 87 5 4.5 0.659997701644897 1 0 1 0 0.01149411 0.01122264 0.01308449 1000 1000 1000 0.01149411 0.01122264 0.01308449 1000 1000 1000 0.008345944 0.006788415 0.006174246 0.004630801 0.00381276 1000 0.008345944 0.006788415 0.006174246 0.004630801 0.00381276 1000
lala 8 1.2 0 second 11 1 88 6 6.780001 0.259998083114624 1 1 -1 1 0.00587402 0.005752836 0.005861243 0.005825282 0.005959424 1000 0.00587402 0.005752836 0.005861243 0.005825282 0.005959424 1000 0.005566326 0.006058059 0.006435009 0.006583238 0.006545385 1000 0.005566326 0.006058059 0.006435009 0.006583238 0.006545385 1000
lala 9 1.2 1 first 11 1 89 6 7.98 0.419997930526733 1 1 1 1 -0.004105177 -0.005120151 -0.001967866 1000 1000 1000 -0.004105177 -0.005120151 -0.001967866 1000 1000 1000 0.004379838 0.004382256 0.004528798 0.004171649 0.003981849 1000 0.004379838 0.004382256 0.004528798 0.004171649 0.003981849 1000
lala 7 1.2 0 second 12 1 90 4 2.64 0.419997930526733 0 0 -1 1 0.008794811 0.009429878 0.01033165 0.01049298 0.01045515 1000 0.008794811 0.009429878 0.01033165 0.01049298 0.01045515 1000 0.01213756 0.01208699 0.01191148 0.01162818 0.01155267 1000 0.01213756 0.01208699 0.01191148 0.01162818 0.01155267 1000
lala 8 1.2 0 second 13 1 91 4 2.52 0.219998121261597 0 1 -1 0 0.01115171 0.0108913 0.01161441 0.01217684 0.01212905 1000 0.01115171 0.0108913 0.01161441 0.01217684 0.01212905 1000 0.01214284 0.01193743 0.01184376 0.01214502 0.01215011 1000 0.01214284 0.01193743 0.01184376 0.01214502 0.01215011 1000
lala 8 1.2 1 first 12 1 92 4 3.84 1.01999735832214 0 0 1 1 0.0110977 0.01156784 0.01176047 1000 1000 1000 0.0110977 0.01156784 0.01176047 1000 1000 1000 0.01291145 0.01304271 0.01318297 0.01306744 0.01271925 1000 0.01291145 0.01304271 0.01318297 0.01306744 0.01271925 1000
lala 1 1.2 0 first 10 1 93 6 3.96 0.719997644424438 1 0 -1 1 0.007352048 0.007627007 0.008574678 1000 1000 1000 0.007352048 0.007627007 0.008574678 1000 1000 1000 0.007821293 0.007664002 0.007881893 0.00784598 0.007991214 1000 0.007821293 0.007664002 0.007881893 0.00784598 0.007991214 1000
lala 7 1.2 0 first 16 1 94 6 3.96 0.139998197555542 0 0 -1 0 0.003993072 0.004205118 0.004845528 1000 1000 1000 0.003993072 0.004205118 0.004845528 1000 1000 1000 0.008709501 0.008511844 0.008591678 0.008450656 0.008673501 1000 0.008709501 0.008511844 0.008591678 0.008450656 0.008673501 1000
lala 5 1.2 0 second 2 1 95 5 4.05 0.819997549057007 -1 0 -1 1 0.007458214 0.007108949 0.007414614 0.007700248 0.007506624 1000 0.007458214 0.007108949 0.007414614 0.007700248 0.007506624 1000 0.007116978 0.00711891 0.007057887 0.007164235 0.007115645 1000 0.007116978 0.00711891 0.007057887 0.007164235 0.007115645 1000
lala 9 1.2 1 first 13 1 96 4 3.72 0.879997491836548 0 1 1 1 0.007243855 0.006759099 0.006079793 1000 1000 1000 0.007243855 0.006759099 0.006079793 1000 1000 1000 0.004978702 0.005130177 0.005381498 0.005406373 0.005147941 1000 0.004978702 0.005130177 0.005381498 0.005406373 0.005147941 1000
lala 10 0.6 0 first 13 1 97 4 3.12 0.279998064041138 0 1 -1 1 0.00409994 0.004072863 0.003965707 1000 1000 1000 0.00409994 0.004072863 0.003965707 1000 1000 1000 0.004516505 0.004468352 0.004435195 0.004461532 0.004070502 1000 0.004516505 0.004468352 0.004435195 0.004461532 0.004070502 1000
lala 10 0.6 1 first 11 1 98 6 7.380001 0.819997549057007 1 1 1 1 0.003400418 0.003942077 0.00422607 1000 1000 1000 0.003400418 0.003942077 0.00422607 1000 1000 1000 0.006865269 0.006636213 0.006356591 0.006653516 0.006743979 1000 0.006865269 0.006636213 0.006356591 0.006653516 0.006743979 1000
lala 4 1.2 1 second 6 1 99 4 3.84 0.579997777938843 1 0 1 1 0.005118845 0.00553901 0.006766801 0.007550583 0.007806319 1000 0.005118845 0.00553901 0.006766801 0.007550583 0.007806319 1000 0.007147987 0.007040428 0.007332752 0.007405841 0.007414487 1000 0.007147987 0.007040428 0.007332752 0.007405841 0.007414487 1000
lala 9 1.2 1 second 0 1 100 4 7.44 0.179998159408569 -1 0 1 0 0.00673405 0.00708029 0.007337638 0.007431927 0.007565223 1000 0.00673405 0.00708029 0.007337638 0.007431927 0.007565223 1000 0.008354629 0.008171488 0.007894163 0.008142472 0.007855348 1000 0.008354629 0.008171488 0.007894163 0.008142472 0.007855348 1000
lala 6 1.2 0 second 2 1 101 5 5.25 0.459997892379761 -1 0 -1 1 0.006292571 0.006457867 0.006500413 0.006780685 0.006680936 1000 0.006292571 0.006457867 0.006500413 0.006780685 0.006680936 1000 0.005763526 0.005842968 0.005837818 0.005962662 0.006222309 1000 0.005763526 0.005842968 0.005837818 0.005962662 0.006222309 1000
lala 6 1.2 1 second 7 1 102 4 4.12 0.99999737739563 1 1 1 0 0.006637544 0.006247703 0.005868773 0.005763633 0.005479127 1000 0.006637544 0.006247703 0.005868773 0.005763633 0.005479127 1000 0.00508804 0.005045107 0.00460949 0.004795925 0.004852418 1000 0.00508804 0.005045107 0.00460949 0.004795925 0.004852418 1000
lala 5 1.2 0 second 6 1 103 4 2.64 0.659997701644897 1 0 -1 0 0.002532838 0.002054387 0.00246435 0.002438669 0.002240595 1000 0.002532838 0.002054387 0.00246435 0.002438669 0.002240595 1000 0.001624729 0.00125824 0.001598336 0.001678314 0.001521947 1000 0.001624729 0.00125824 0.001598336 0.001678314 0.001521947 1000
lala 8 1.2 1 second 5 1 104 6 9.18 0.479997873306274 -1 1 1 0 0.003064092 0.003096747 0.003421211 0.003910845 0.004002411 1000 0.003064092 0.003096747 0.003421211 0.003910845 0.004002411 1000 0.004122244 0.003952419 0.004297518 0.004509797 0.004092119 1000 0.004122244 0.003952419 0.004297518 0.004509797 0.004092119 1000
lala 2 1.2 0 first 10 1 105 6 5.16 0.119998216629028 1 0 -1 0 0.003502013 0.003459212 0.003548804 1000 1000 1000 0.003502013 0.003459212 0.003548804 1000 1000 1000 0.003095929 0.003034585 0.003263656 0.003174065 0.003462283 1000 0.003095929 0.003034585 0.003263656 0.003174065 0.003462283 1000
lala 11 0.3 0 first 13 1 106 4 3.42 0.01999831199646 0 1 -1 0 0.001904824 0.00215889 0.002645924 1000 1000 1000 0.001904824 0.00215889 0.002645924 1000 1000 1000 0.001690311 0.001740236 0.001530401 0.001694657 0.001568754 1000 0.001690311 0.001740236 0.001530401 0.001694657 0.001568754 1000
lala 2 1.2 1 second 15 1 107 5 5.45 1.89999675750732 0 1 1 1 -0.0005846213 -0.0006656129 -0.0005698128 -0.0003785193 -0.0008554705 1000 -0.0005846213 -0.0006656129 -0.0005698128 -0.0003785193 -0.0008554705 1000 -0.002509528 -0.002436773 -0.002740997 -0.002396249 -0.002233382 1000 -0.002509528 -0.002436773 -0.002740997 -0.002396249 -0.002233382 1000
lala 3 1.2 1 second 15 1 108 5 4.25 0.459997892379761 0 1 1 1 0.0002846934 0.002407057 0.004631497 0.006560898 0.007079051 1000 0.0002846934 0.002407057 0.004631497 0.006560898 0.007079051 1000 0.00788084 0.007348325 0.006405248 0.005802954 0.005142151 1000 0.00788084 0.007348325 0.006405248 0.005802954 0.005142151 1000
lala 4 1.2 1 first 9 1 109 5 5.450001 4.07999467849731 1 1 1 0 0.005234031 0.003937736 0.001867953 1000 1000 1000 0.005234031 0.003937736 0.001867953 1000 1000 1000 -0.003487448 0.003288868 0.0121394 0.01693951 0.02055 1000 -0.003487448 0.003288868 0.0121394 0.01693951 0.02055 1000
lala 7 1.2 0 second 8 1 110 5 3.3 0.259998083114624 1 0 -1 1 0.01425029 0.01607198 0.01739872 0.01782489 0.01827103 1000 0.01425029 0.01607198 0.01739872 0.01782489 0.01827103 1000 0.01654729 0.01563057 0.01551913 0.01556938 0.01527483 1000 0.01654729 0.01563057 0.01551913 0.01556938 0.01527483 1000
lala 4 1.2 0 first 15 1 111 5 3.05 0.439997911453247 0 1 -1 1 0.01713735 0.0183825 0.01878823 1000 1000 1000 0.01713735 0.0183825 0.01878823 1000 1000 1000 0.05179507 0.05670664 0.0606212 0.06305852 0.06928145 1000 0.05179507 0.05670664 0.0606212 0.06305852 0.06928145 1000
lala 7 1.2 0 first 2 1 112 5 6.45 0.419997930526733 -1 0 -1 0 0.01764503 0.01529408 0.01441041 1000 1000 1000 0.01764503 0.01529408 0.01441041 1000 1000 1000 -0.006769444 -0.006576865 -0.009631014 -0.01134448 -0.006718956 1000 -0.006769444 -0.006576865 -0.009631014 -0.01134448 -0.006718956 1000
lala 4 1.2 0 first 4 1 113 6 5.16 1.03999733924866 -1 0 -1 1 0.002656764 0.002660773 0.003517448 1000 1000 1000 0.002656764 0.002660773 0.003517448 1000 1000 1000 0.002539117 0.00453966 0.006078658 0.006818448 0.007440019 1000 0.002539117 0.00453966 0.006078658 0.006818448 0.007440019 1000
lala 6 1.2 1 first 1 1 114 4 6.52 0.01999831199646 -1 1 1 0 0.01005903 0.01025888 0.01055809 1000 1000 1000 0.01005903 0.01025888 0.01055809 1000 1000 1000 0.009813694 0.01011794 0.01012462 0.01025411 0.009906794 1000 0.009813694 0.01011794 0.01012462 0.01025411 0.009906794 1000
lala 5 1.2 0 first 9 1 115 5 4.250001 0.079998254776001 1 1 -1 1 0.008925643 0.009084898 0.009012206 1000 1000 1000 0.008925643 0.009084898 0.009012206 1000 1000 1000 0.008759684 0.008532062 0.008543139 0.008253453 0.008023976 1000 0.008759684 0.008532062 0.008543139 0.008253453 0.008023976 1000
lala 9 1.2 1 first 5 1 116 6 7.98 0.39999794960022 -1 1 1 0 0.008843443 0.009043348 0.009683241 1000 1000 1000 0.008843443 0.009043348 0.009683241 1000 1000 1000 0.008223257 0.007966513 0.00777977 0.007690112 0.007425736 1000 0.008223257 0.007966513 0.00777977 0.007690112 0.007425736 1000
lala 8 1.2 0 first 16 1 117 6 5.16 0.01999831199646 0 0 -1 0 0.007153936 0.007223796 0.007556159 1000 1000 1000 0.007153936 0.007223796 0.007556159 1000 1000 1000 0.006312443 0.006287807 0.006621493 0.006416888 0.006003639 1000 0.006312443 0.006287807 0.006621493 0.006416888 0.006003639 1000
lala 8 1.2 1 first 2 1 118 5 7.65 4.0599946975708 -1 0 1 0 0.00577657 0.005908196 0.005974333 1000 1000 1000 0.00577657 0.005908196 0.005974333 1000 1000 1000 0.006290579 0.006049383 0.006236731 0.006508678 0.006586279 1000 0.006290579 0.006049383 0.006236731 0.006508678 0.006586279 1000
lala 6 1.2 1 first 6 1 119 4 3.84 0.99999737739563 1 0 1 0 0.006325962 0.006677032 0.006753025 1000 1000 1000 0.006325962 0.006677032 0.006753025 1000 1000 1000 -0.01135888 -0.01954574 -0.02141429 -0.02357333 -0.02191365 1000 -0.01135888 -0.01954574 -0.02141429 -0.02357333 -0.02191365 1000
lala 5 1.2 0 first 14 1 120 5 4.05 0.479997873306274 0 0 -1 1 0.001239269 0.00482553 0.00577269 1000 1000 1000 0.001239269 0.00482553 0.00577269 1000 1000 1000 0.002060287 0.003677757 0.004672736 0.005534404 0.006800475 1000 0.002060287 0.003677757 0.004672736 0.005534404 0.006800475 1000
lala 9 1.2 0 first 16 1 121 6 6.36 0.699997663497925 0 0 -1 1 0.007097141 0.008289251 0.009879022 1000 1000 1000 0.007097141 0.008289251 0.009879022 1000 1000 1000 0.007427102 0.007435555 0.007212936 0.007285093 0.007428411 1000 0.007427102 0.007435555 0.007212936 0.007285093 0.007428411 1000
lala 3 1.2 1 first 10 1 122 6 6.36 0.119998216629028 1 0 1 0 0.01012637 0.01094751 0.01176697 1000 1000 1000 0.01012637 0.01094751 0.01176697 1000 1000 1000 0.01021681 0.01053728 0.01058007 0.01064914 0.01026325 1000 0.01021681 0.01053728 0.01058007 0.01064914 0.01026325 1000
lala 5 1.2 0 second 4 1 123 6 6.36 0.679997682571411 -1 0 -1 1 0.006468424 0.005642863 0.007038982 0.008431356 0.01067165 1000 0.006468424 0.005642863 0.007038982 0.008431356 0.01067165 1000 0.0129279 0.01249608 0.01218244 0.011862 0.01186242 1000 0.0129279 0.01249608 0.01218244 0.011862 0.01186242 1000
lala 7 1.2 0 first 6 1 124 4 2.64 0.519997835159302 1 0 -1 0 0.005243634 0.005531942 0.005340783 1000 1000 1000 0.005243634 0.005531942 0.005340783 1000 1000 1000 0.00448169 0.004548737 0.004486422 0.004609903 0.004794285 1000 0.00448169 0.004548737 0.004486422 0.004609903 0.004794285 1000
lala 5 1.2 1 second 15 1 125 5 4.25 0.219998121261597 0 1 1 1 0.006017958 0.005670291 0.00554401 0.004864702 0.004578628 1000 0.006017958 0.005670291 0.00554401 0.004864702 0.004578628 1000 0.004577023 0.004464791 0.004533702 0.004637151 0.004488388 1000 0.004577023 0.004464791 0.004533702 0.004637151 0.004488388 1000
lala 10 0.6 0 first 0 1 126 4 6.84 0.379997968673706 -1 0 -1 0 0.003793461 0.004413329 0.004587531 1000 1000 1000 0.003793461 0.004413329 0.004587531 1000 1000 1000 0.00487226 0.00448654 0.004706287 0.004565771 0.004698603 1000 0.00487226 0.00448654 0.004706287 0.004565771 0.004698603 1000
lala 6 1.2 0 first 15 1 127 5 3.05 1.37999701499939 0 1 -1 0 0.005171658 0.00483409 0.005075069 1000 1000 1000 0.005171658 0.00483409 0.005075069 1000 1000 1000 0.003662239 0.004014054 0.004279754 0.004022388 0.003483044 1000 0.003662239 0.004014054 0.004279754 0.004022388 0.003483044 1000
lala 7 1.2 0 first 1 1 128 4 5.32 0.139998197555542 -1 1 -1 0 0.004062471 0.006147187 0.009026941 1000 1000 1000 0.004062471 0.006147187 0.009026941 1000 1000 1000 0.008190212 0.007859923 0.007671734 0.007806155 0.008213598 1000 0.008190212 0.007859923 0.007671734 0.007806155 0.008213598 1000
lala 11 0.6 0 first 11 1 129 6 6.780001 0.139998197555542 1 1 -1 0 0.0127467 0.01408369 0.01517608 1000 1000 1000 0.0127467 0.01408369 0.01517608 1000 1000 1000 0.02036421 0.01994705 0.01989295 0.01997821 0.01958397 1000 0.02036421 0.01994705 0.01989295 0.01997821 0.01958397 1000
lala 7 1.2 0 second 7 1 130 4 2.92 0.499997854232788 1 1 -1 0 0.0125825 0.01389965 0.01584867 0.01648746 0.01598396 1000 0.0125825 0.01389965 0.01584867 0.01648746 0.01598396 1000 0.0136463 0.01343767 0.01361463 0.01336822 0.01325283 1000 0.0136463 0.01343767 0.01361463 0.01336822 0.01325283 1000
lala 8 1.2 1 second 7 1 131 4 4.12 0.61999773979187 1 1 1 0 0.01492671 0.01459226 0.01453839 0.01484412 0.01484623 1000 0.01492671 0.01459226 0.01453839 0.01484412 0.01484623 1000 0.01408207 0.01379838 0.01402209 0.01426371 0.01414884 1000 0.01408207 0.01379838 0.01402209 0.01426371 0.01414884 1000
lala 6 1.2 1 first 4 1 132 6 7.559999 0.839997529983521 -1 0 1 0 0.01328371 0.01363733 0.01370727 1000 1000 1000 0.01328371 0.01363733 0.01370727 1000 1000 1000 0.01382413 0.01366403 0.01378971 0.0137068 0.01376186 1000 0.01382413 0.01366403 0.01378971 0.0137068 0.01376186 1000
lala 11 0.3 1 second 0 1 133 4 7.14 0.359997987747192 -1 0 1 1 0.007011323 0.006861222 0.007073451 0.007159972 0.006926322 1000 0.007011323 0.006861222 0.007073451 0.007159972 0.006926322 1000 0.00635182 0.006556734 0.006248896 0.006243537 0.006031441 1000 0.00635182 0.006556734 0.006248896 0.006243537 0.006031441 1000
lala 12 0.3 0 first 13 1 134 4 3.72 1.55999684333801 0 1 -1 1 0.004452749 0.005022365 0.005641432 1000 1000 1000 0.004452749 0.005022365 0.005641432 1000 1000 1000 0.005092246 0.004873959 0.004645808 0.004462824 0.004602098 1000 0.005092246 0.004873959 0.004645808 0.004462824 0.004602098 1000
lala 4 1.2 1 second 10 1 135 6 5.16 0.359997987747192 1 0 1 0 0.003430114 0.003337411 0.003454213 0.003932859 0.003795421 1000 0.003430114 0.003337411 0.003454213 0.003932859 0.003795421 1000 0.006555116 0.01021887 0.01187504 0.01430977 0.01677111 1000 0.006555116 0.01021887 0.01187504 0.01430977 0.01677111 1000
lala 7 1.2 1 second 15 1 136 5 4.25 0.319998025894165 0 1 1 0 0.02006818 0.02101112 0.02134001 0.0209191 0.02085437 1000 0.02006818 0.02101112 0.02134001 0.0209191 0.02085437 1000 0.02130319 0.02157818 0.02209868 0.02101437 0.02092869 1000 0.02130319 0.02157818 0.02209868 0.02101437 0.02092869 1000
lala 5 1.2 0 first 10 1 137 6 3.96 0.259998083114624 1 0 -1 1 0.01986818 0.01619895 0.01180828 1000 1000 1000 0.01986818 0.01619895 0.01180828 1000 1000 1000 0.002372785 0.002640179 0.002858864 0.002843017 0.002446728 1000 0.002372785 0.002640179 0.002858864 0.002843017 0.002446728 1000
lala 10 2.4 1 second 16 1 138 6 8.76 0.179998159408569 0 0 1 1 -0.005048397 -0.006158253 -0.004801057 -0.003009057 -0.001082028 1000 -0.005048397 -0.006158253 -0.004801057 -0.003009057 -0.001082028 1000 0.004279216 0.004339838 0.004210636 0.004123555 0.003910354 1000 0.004279216 0.004339838 0.004210636 0.004123555 0.003910354 1000
lala 6 1.2 1 second 9 1 139 5 5.450001 0.159998178482056 1 1 1 1 0.00888943 0.008497751 0.008709559 0.009298151 0.008952118 1000 0.00888943 0.008497751 0.008709559 0.009298151 0.008952118 1000 0.008518643 0.008617972 0.008314001 0.008408319 0.008268345 1000 0.008518643 0.008617972 0.008314001 0.008408319 0.008268345 1000
lala 7 1.2 0 first 4 1 140 6 6.36 0.279998064041138 -1 0 -1 0 0.009195221 0.009915163 0.009806939 1000 1000 1000 0.009195221 0.009915163 0.009806939 1000 1000 1000 0.01014225 0.0105035 0.01058204 0.01035414 0.01003103 1000 0.01014225 0.0105035 0.01058204 0.01035414 0.01003103 1000
lala 6 1.2 1 second 10 1 141 6 5.16 0.23999810218811 1 0 1 1 0.01488884 0.01523718 0.01548085 0.01550522 0.02010203 1000 0.01488884 0.01523718 0.01548085 0.01550522 0.02010203 1000 0.02928401 0.02655562 0.02357389 0.02175269 0.01855244 1000 0.02928401 0.02655562 0.02357389 0.02175269 0.01855244 1000
lala 8 1.2 0 first 4 1 142 6 7.559999 1.69999694824219 -1 0 -1 1 0.01650436 0.01456244 0.01340888 1000 1000 1000 0.01650436 0.01456244 0.01340888 1000 1000 1000 0.0081213 0.008571702 0.008757829 0.007924017 0.006298954 1000 0.0081213 0.008571702 0.008757829 0.007924017 0.006298954 1000
lala 8 1.2 0 second 6 1 143 4 3.84 0.639997720718384 1 0 -1 1 0.005535648 0.005332088 0.005258282 0.005019237 0.004974224 1000 0.005535648 0.005332088 0.005258282 0.005019237 0.004974224 1000 0.004895974 0.004775533 0.004645319 0.004390021 0.004196083 1000 0.004895974 0.004775533 0.004645319 0.004390021 0.004196083 1000
lala 12 0.3 1 second 11 1 144 6 7.080001 0.179998159408569 1 1 1 0 -0.003780467 -0.005421789 -0.008598538 -0.01294698 -0.01850315 1000 -0.003780467 -0.005421789 -0.008598538 -0.01294698 -0.01850315 1000 -0.01988818 -0.02053183 -0.0206419 -0.02180762 -0.02394908 1000 -0.01988818 -0.02053183 -0.0206419 -0.02180762 -0.02394908 1000
lala 9 1.2 1 first 2 1 145 5 6.45 0.339998006820679 -1 0 1 0 -0.02232003 -0.02219304 -0.02118681 1000 1000 1000 -0.02232003 -0.02219304 -0.02118681 1000 1000 1000 0.07339908 0.07198077 0.07155147 0.07144909 0.06736492 1000 0.07339908 0.07198077 0.07155147 0.07144909 0.06736492 1000
lala 7 1.2 1 first 10 1 146 6 3.96 1.63999700546265 1 0 1 0 0.01354893 0.01004035 0.009370325 1000 1000 1000 0.01354893 0.01004035 0.009370325 1000 1000 1000 0.01813978 0.0182345 0.01804159 0.01748237 0.01690224 1000 0.01813978 0.0182345 0.01804159 0.01748237 0.01690224 1000
lala 13 0.3 0 first 13 1 147 4 4.02 1.63999700546265 0 1 -1 1 0.01288307 0.01260229 0.01246086 1000 1000 1000 0.01288307 0.01260229 0.01246086 1000 1000 1000 0.01301547 0.0131434 0.01297732 0.01285844 0.01260568 1000 0.01301547 0.0131434 0.01297732 0.01285844 0.01260568 1000
lala 8 1.2 0 first 1 1 148 4 6.52 0.519997835159302 -1 1 -1 0 0.009652417 0.009915888 0.01019925 1000 1000 1000 0.009652417 0.009915888 0.01019925 1000 1000 1000 0.01046264 0.01025353 0.01016959 0.010236 0.01012519 1000 0.01046264 0.01025353 0.01016959 0.010236 0.01012519 1000
lala 9 1.2 1 second 1 1 149 4 7.719999 0.23999810218811 -1 1 1 0 0.01436195 0.01673857 0.01890265 0.02062879 0.02101255 1000 0.01436195 0.01673857 0.01890265 0.02062879 0.02101255 1000 0.02202074 0.02195257 0.02216911 0.02236922 0.02241285 1000 0.02202074 0.02195257 0.02216911 0.02236922 0.02241285 1000
lala 8 1.2 0 second 15 1 150 5 3.05 1.17999720573425 0 1 -1 0 0.006416455 0.00653412 0.005972066 0.00489727 0.003667564 1000 0.006416455 0.00653412 0.005972066 0.00489727 0.003667564 1000 -0.005304307 -0.006794817 -0.00704989 -0.008175007 -0.00795019 1000 -0.005304307 -0.006794817 -0.00704989 -0.008175007 -0.00795019 1000
lala 14 0.6 1 second 13 1 151 4 4.62 0.159998178482056 0 1 1 0 -0.01132708 -0.01140283 -0.01103962 -0.01076227 -0.01026334 1000 -0.01132708 -0.01140283 -0.01103962 -0.01076227 -0.01026334 1000 -0.01171114 -0.01205369 -0.01193888 -0.01193996 -0.01204049 1000 -0.01171114 -0.01205369 -0.01193888 -0.01193996 -0.01204049 1000
lala 12 0.15 1 second 0 1 152 4 6.99 0.159998178482056 -1 0 1 0 -0.01294604 -0.0126992 -0.01288243 -0.01264739 -0.01290044 1000 -0.01294604 -0.0126992 -0.01288243 -0.01264739 -0.01290044 1000 -0.0144291 -0.01462247 -0.01445402 -0.01451312 -0.01425988 1000 -0.0144291 -0.01462247 -0.01445402 -0.01451312 -0.01425988 1000
lala 9 1.2 1 first 7 1 153 4 2.92 0.739997625350952 1 1 1 1 -0.01750269 -0.01732171 -0.01717599 1000 1000 1000 -0.01750269 -0.01732171 -0.01717599 1000 1000 1000 -0.01713244 -0.01757685 -0.01794495 -0.01810486 -0.0179893 1000 -0.01713244 -0.01757685 -0.01794495 -0.01810486 -0.0179893 1000
lala 8 1.2 0 first 10 1 154 6 2.76 0.439997911453247 1 0 -1 0 -0.01868732 -0.01848599 -0.01811305 1000 1000 1000 -0.01868732 -0.01848599 -0.01811305 1000 1000 1000 -0.011962 -0.01389511 -0.01524596 -0.01344031 -0.0122676 1000 -0.011962 -0.01389511 -0.01524596 -0.01344031 -0.0122676 1000
lala 7 1.2 0 second 3 1 155 5 4.25 0.439997911453247 -1 1 -1 0 -0.0114471 -0.01139073 -0.01114673 -0.01101507 -0.01084401 1000 -0.0114471 -0.01139073 -0.01114673 -0.01101507 -0.01084401 1000 -0.01079369 -0.01027087 -0.009243917 -0.007147982 -0.005872313 1000 -0.01079369 -0.01027087 -0.009243917 -0.007147982 -0.005872313 1000
lala 10 0.6 1 second 1 1 156 4 7.119999 0.339998006820679 -1 1 1 0 -0.002751033 -0.00208278 0.001236697 0.001841369 0.002777049 1000 -0.002751033 -0.00208278 0.001236697 0.001841369 0.002777049 1000 0.0261798 0.02642175 0.0271361 0.0277196 0.0276762 1000 0.0261798 0.02642175 0.0271361 0.0277196 0.0276762 1000
lala 13 0.15 1 second 0 1 157 4 6.84 0.39999794960022 -1 0 1 0 0.01473047 0.01358136 0.01356445 0.01392559 0.01472124 1000 0.01473047 0.01358136 0.01356445 0.01392559 0.01472124 1000 0.01469635 0.01463643 0.01487599 0.01494639 0.01509099 1000 0.01469635 0.01463643 0.01487599 0.01494639 0.01509099 1000
lala 11 1.2 1 second 16 1 158 6 7.56 3.07999563217163 0 0 1 0 0.01751191 0.01670654 0.03337764 0.04717733 0.04972361 1000 0.01751191 0.01670654 0.03337764 0.04717733 0.04972361 1000 0.08328042 0.1016969 0.1077553 0.1077502 0.1114523 1000 0.08328042 0.1016969 0.1077553 0.1077502 0.1114523 1000
lala 9 1.2 0 second 15 1 159 5 4.25 0.639997720718384 0 1 -1 0 0.004834356 0.005919409 0.005720709 0.004547615 0.002244284 1000 0.004834356 0.005919409 0.005720709 0.004547615 0.002244284 1000 -0.0005673189 -0.001161279 -0.001053668 0.006444545 0.01647613 1000 -0.0005673189 -0.001161279 -0.001053668 0.006444545 0.01647613 1000
lala 9 1.2 0 second 12 1 160 4 2.64 0.439997911453247 0 0 -1 0 0.01172114 0.01217462 0.01234168 0.01322178 0.0142894 1000 0.01172114 0.01217462 0.01234168 0.01322178 0.0142894 1000 0.01943626 0.01952344 0.0193977 0.0189554 0.01925429 1000 0.01943626 0.01952344 0.0193977 0.0189554 0.01925429 1000
lala 11 0.6 1 second 1 1 161 4 6.52 0.339998006820679 -1 1 1 0 0.01763942 0.01780567 0.01773283 0.01735866 0.01720968 1000 0.01763942 0.01780567 0.01773283 0.01735866 0.01720968 1000 0.01613674 0.01613775 0.01605691 0.01590015 0.01522014 1000 0.01613674 0.01613775 0.01605691 0.01590015 0.01522014 1000
lala 10 1.2 0 second 7 1 162 4 1.72 0.799997568130493 1 1 -1 1 0.01513007 0.01432429 0.01388299 0.01336152 0.01359987 1000 0.01513007 0.01432429 0.01388299 0.01336152 0.01359987 1000 0.01351286 0.0133477 0.01314268 0.01299247 0.01274518 1000 0.01351286 0.0133477 0.01314268 0.01299247 0.01274518 1000
lala 9 1.2 0 first 10 1 163 6 3.96 0.359997987747192 1 0 -1 1 0.008108546 0.008037169 0.007910427 1000 1000 1000 0.008108546 0.008037169 0.007910427 1000 1000 1000 0.006857529 0.006204053 0.005567626 0.005471379 0.005452962 1000 0.006857529 0.006204053 0.005567626 0.005471379 0.005452962 1000
lala 6 1.2 1 second 14 1 164 5 5.25 0.819997549057007 0 0 1 1 0.004084135 0.003276012 0.00331766 0.003486196 0.003850256 1000 0.004084135 0.003276012 0.00331766 0.003486196 0.003850256 1000 0.003455304 0.003496721 0.003440973 0.003353713 0.00339136 1000 0.003455304 0.003496721 0.003440973 0.003353713 0.00339136 1000
lala 15 0.3 1 first 13 1 165 4 4.32 0.919997453689575 0 1 1 1 0.002713415 0.002438691 0.002436195 1000 1000 1000 0.002713415 0.002438691 0.002436195 1000 1000 1000 0.001150829 0.001040242 0.001040013 0.00114413 0.0006523124 1000 0.001150829 0.001040242 0.001040013 0.00114413 0.0006523124 1000
lala 7 1.2 0 first 9 1 166 5 4.250001 1.17999720573425 1 1 -1 0 0.0003255917 0.0002009325 0.000475575 1000 1000 1000 0.0003255917 0.0002009325 0.000475575 1000 1000 1000 -0.001097332 -0.0009832092 -0.0008250292 -0.0005998553 -0.0008252997 1000 -0.001097332 -0.0009832092 -0.0008250292 -0.0005998553 -0.0008252997 1000
lala 7 1.2 1 first 14 1 167 5 4.05 1.13999724388123 0 0 1 0 -0.001609865 -0.001550375 -0.001461474 1000 1000 1000 -0.001609865 -0.001550375 -0.001461474 1000 1000 1000 -0.002043378 -0.002301987 -0.002276012 -0.002291502 -0.001939731 1000 -0.002043378 -0.002301987 -0.002276012 -0.002291502 -0.001939731 1000
lala 12 0.6 1 first 1 1 168 4 5.92 0.839997529983521 -1 1 1 1 -0.001583679 -0.001858318 -0.001907757 1000 1000 1000 -0.001583679 -0.001858318 -0.001907757 1000 1000 1000 -0.002538777 -0.002678045 -0.002564105 -0.002403514 -0.002300135 1000 -0.002538777 -0.002678045 -0.002564105 -0.002403514 -0.002300135 1000
lala 8 1.2 0 first 8 1 169 5 4.5 0.819997549057007 1 0 -1 0 -0.001670514 -0.001791071 -0.001898594 1000 1000 1000 -0.001670514 -0.001791071 -0.001898594 1000 1000 1000 -0.002377999 -0.00250148 -0.002336976 -0.002033409 -0.001759258 1000 -0.002377999 -0.00250148 -0.002336976 -0.002033409 -0.001759258 1000
lala 16 0.3 1 second 13 1 170 4 4.02 1.51999688148499 0 1 1 0 -0.002243469 -0.002453845 -0.002452419 -0.002290682 -0.002101696 1000 -0.002243469 -0.002453845 -0.002452419 -0.002290682 -0.002101696 1000 -0.002346617 -0.002540403 -0.002623038 -0.003032974 -0.002633601 1000 -0.002346617 -0.002540403 -0.002623038 -0.003032974 -0.002633601 1000
lala 9 1.2 0 first 4 1 171 6 8.759999 0.919997453689575 -1 0 -1 0 -0.003112973 -0.00322954 -0.002940376 1000 1000 1000 -0.003112973 -0.00322954 -0.002940376 1000 1000 1000 -0.002528448 -0.002803308 -0.002921582 -0.002810449 -0.002739291 1000 -0.002528448 -0.002803308 -0.002921582 -0.002810449 -0.002739291 1000
lala 10 1.2 1 first 15 1 172 5 5.45 1.27999711036682 0 1 1 1 -0.003061038 -0.002715814 -0.002473588 1000 1000 1000 -0.003061038 -0.002715814 -0.002473588 1000 1000 1000 -0.002913876 -0.003534083 -0.003750011 -0.003379146 -0.003335114 1000 -0.002913876 -0.003534083 -0.003750011 -0.003379146 -0.003335114 1000
lala 8 1.2 0 second 14 1 173 5 2.85 0.439997911453247 0 0 -1 0 -0.002786295 -0.002740958 -0.002970871 -0.003673103 -0.003123794 1000 -0.002786295 -0.002740958 -0.002970871 -0.003673103 -0.003123794 1000 -0.003040569 -0.00304918 -0.002960636 -0.003031101 -0.003456295 1000 -0.003040569 -0.00304918 -0.002960636 -0.003031101 -0.003456295 1000
lala 9 1.2 1 first 6 1 174 4 5.04 0.339998006820679 1 0 1 1 -0.004008344 -0.00376949 -0.003749556 1000 1000 1000 -0.004008344 -0.00376949 -0.003749556 1000 1000 1000 -0.004899854 -0.005100626 -0.004965149 -0.004869526 -0.004804648 1000 -0.004899854 -0.005100626 -0.004965149 -0.004869526 -0.004804648 1000
lala 17 0.3 0 first 13 1 175 4 3.72 1.21999716758728 0 1 -1 0 -0.005338953 -0.005352913 -0.005340212 1000 1000 1000 -0.005338953 -0.005352913 -0.005340212 1000 1000 1000 -0.005362614 -0.005350242 -0.005013987 -0.004951718 -0.004956674 1000 -0.005362614 -0.005350242 -0.005013987 -0.004951718 -0.004956674 1000
lala 10 2.4 1 first 4 1 176 6 11.16 0.519997835159302 -1 0 1 0 -0.004260148 -0.004028543 -0.004051933 1000 1000 1000 -0.004260148 -0.004028543 -0.004051933 1000 1000 1000 -0.005267738 -0.005590208 -0.005610269 -0.00582107 -0.005599595 1000 -0.005267738 -0.005590208 -0.005610269 -0.00582107 -0.005599595 1000
lala 11 0.6 0 second 7 1 177 4 2.32 0.079998254776001 1 1 -1 0 -0.005106327 -0.004926139 -0.005056933 -0.005326901 -0.005108106 1000 -0.005106327 -0.004926139 -0.005056933 -0.005326901 -0.005108106 1000 -0.004496608 -0.004615022 -0.004295004 -0.004306186 -0.005396651 1000 -0.004496608 -0.004615022 -0.004295004 -0.004306186 -0.005396651 1000
lala 13 1.2 1 second 1 1 178 4 4.719999 4.29999446868896 -1 1 1 0 -0.004811476 -0.005187044 -0.005536817 -0.006885561 -0.007571658 1000 -0.004811476 -0.005187044 -0.005536817 -0.006885561 -0.007571658 1000 -0.006052797 -0.006186097 -0.006367252 -0.006180286 -0.006123114 1000 -0.006052797 -0.006186097 -0.006367252 -0.006180286 -0.006123114 1000
lala 10 1.2 0 first 10 1 179 6 5.16 0.179998159408569 1 0 -1 1 -0.009028928 -0.008822889 -0.008360545 1000 1000 1000 -0.009028928 -0.008822889 -0.008360545 1000 1000 1000 -0.008868975 -0.009175076 -0.009143189 -0.009329124 -0.009295224 1000 -0.008868975 -0.009175076 -0.009143189 -0.009329124 -0.009295224 1000
lala 10 0.6 1 first 12 1 180 4 3.24 0.499997854232788 0 0 1 0 -0.00952567 -0.008707757 -0.008187446 1000 1000 1000 -0.00952567 -0.008707757 -0.008187446 1000 1000 1000 -0.00836133 -0.008548362 -0.008834988 -0.008522445 -0.008120873 1000 -0.00836133 -0.008548362 -0.008834988 -0.008522445 -0.008120873 1000
lala 8 1.2 0 second 3 1 181 5 5.45 4.57999420166016 -1 1 -1 1 -0.00869865 -0.008836642 -0.009092027 -0.008749838 -0.008549685 1000 -0.00869865 -0.008836642 -0.009092027 -0.008749838 -0.008549685 1000 -0.008534547 -0.008470768 -0.007735608 -0.007865233 -0.00790382 1000 -0.008534547 -0.008470768 -0.007735608 -0.007865233 -0.00790382 1000
lala 11 0.3 0 second 12 1 182 4 2.94 0.01999831199646 0 0 -1 0 -0.005882921 -0.006040636 -0.006010195 -0.005978873 -0.006468422 1000 -0.005882921 -0.006040636 -0.006010195 -0.005978873 -0.006468422 1000 -0.007016776 -0.007149757 -0.007087884 -0.006991356 -0.006943126 1000 -0.007016776 -0.007149757 -0.007087884 -0.006991356 -0.006943126 1000
lala 12 0.15 1 first 12 1 183 4 3.09 3.59999513626099 0 0 1 1 -0.007604399 -0.007428175 -0.007235636 1000 1000 1000 -0.007604399 -0.007428175 -0.007235636 1000 1000 1000 -0.008401779 -0.007680066 -0.004073735 0.0109632 0.03217693 1000 -0.008401779 -0.007680066 -0.004073735 0.0109632 0.03217693 1000
lala 18 0.15 1 first 13 1 184 4 3.87 1.59999680519104 0 1 1 1 -0.002003728 -0.002216447 -0.002263695 1000 1000 1000 -0.002003728 -0.002216447 -0.002263695 1000 1000 1000 -0.005978835 -0.005996977 -0.00657502 -0.007076083 -0.006867686 1000 -0.005978835 -0.005996977 -0.00657502 -0.007076083 -0.006867686 1000
lala 11 0.6 0 first 15 1 185 5 4.85 0.299998044967651 0 1 -1 0 0.001473038 0.002894538 0.003478 1000 1000 1000 0.001473038 0.002894538 0.003478 1000 1000 1000 0.007669949 0.007801641 0.008159146 0.008162739 0.007861298 1000 0.007669949 0.007801641 0.008159146 0.008162739 0.007861298 1000
lala 7 1.2 1 second 17 1 186 6 5.580001 0.219998121261597 0 1 1 0 0.005294506 0.004995488 0.004632732 0.003585646 0.002875032 1000 0.005294506 0.004995488 0.004632732 0.003585646 0.002875032 1000 0.002423499 0.002466901 0.001734521 0.001612945 0.001885831 1000 0.002423499 0.002466901 0.001734521 0.001612945 0.001885831 1000
lala 9 1.2 0 second 14 1 187 5 4.05 0.219998121261597 0 0 -1 1 -0.000917831 -0.00129034 -0.001090541 -0.0008813508 -0.0005603198 1000 -0.000917831 -0.00129034 -0.001090541 -0.0008813508 -0.0005603198 1000 -0.001908985 -0.001897007 -0.002071076 -0.002116926 -0.001968236 1000 -0.001908985 -0.001897007 -0.002071076 -0.002116926 -0.001968236 1000
lala 10 1.2 0 first 2 1 188 5 5.25 0.719997644424438 -1 0 -1 0 -0.003652669 -0.003513415 -0.003806972 1000 1000 1000 -0.003652669 -0.003513415 -0.003806972 1000 1000 1000 -0.006387101 -0.006176514 -0.006554671 -0.006157555 -0.006021377 1000 -0.006387101 -0.006176514 -0.006554671 -0.006157555 -0.006021377 1000
lala 14 0.15 1 first 0 1 189 4 6.69 0.199998140335083 -1 0 1 0 -0.007680888 -0.007518256 -0.007125413 1000 1000 1000 -0.007680888 -0.007518256 -0.007125413 1000 1000 1000 -0.008824467 -0.00938039 -0.009406211 -0.009958158 -0.01028673 1000 -0.008824467 -0.00938039 -0.009406211 -0.009958158 -0.01028673 1000
lala 8 1.2 0 second 17 1 190 6 4.380001 0.659997701644897 0 1 -1 0 -0.0108812 -0.0111403 -0.01107841 -0.01112677 -0.01103317 1000 -0.0108812 -0.0111403 -0.01107841 -0.01112677 -0.01103317 1000 -0.01103402 -0.01139803 -0.01135874 -0.01144825 -0.01119273 1000 -0.01103402 -0.01139803 -0.01135874 -0.01144825 -0.01119273 1000
lala 10 0.6 1 second 6 1 191 4 4.44 0.859997510910034 1 0 1 0 -0.01238658 -0.01240341 -0.01213424 -0.01246549 -0.0124046 1000 -0.01238658 -0.01240341 -0.01213424 -0.01246549 -0.0124046 1000 -0.01418418 -0.01415672 -0.01451345 -0.01431467 -0.01404234 1000 -0.01418418 -0.01415672 -0.01451345 -0.01431467 -0.01404234 1000
lala 9 1.2 0 first 3 1 192 5 6.65 0.279998064041138 -1 1 -1 1 -0.01467648 -0.01531294 -0.0154732 1000 1000 1000 -0.01467648 -0.01531294 -0.0154732 1000 1000 1000 -0.01531926 -0.01487307 -0.01510317 -0.01549653 -0.0160167 1000 -0.01531926 -0.01487307 -0.01510317 -0.01549653 -0.0160167 1000
lala 9 1.2 0 first 17 1 193 6 5.580001 0.479997873306274 0 1 -1 1 -0.01819809 -0.01804809 -0.0178119 1000 1000 1000 -0.01819809 -0.01804809 -0.0178119 1000 1000 1000 -0.018144 -0.01870509 -0.01872776 -0.01829862 -0.01814657 1000 -0.018144 -0.01870509 -0.01872776 -0.01829862 -0.01814657 1000
lala 11 2.4 1 second 10 1 194 6 7.56 2.57999610900879 1 0 1 1 -0.01944578 -0.02026961 -0.02177887 -0.02164696 -0.02138362 1000 -0.01944578 -0.02026961 -0.02177887 -0.02164696 -0.02138362 1000 -0.0237752 -0.02371575 -0.02397116 -0.02468338 -0.02545994 1000 -0.0237752 -0.02371575 -0.02397116 -0.02468338 -0.02545994 1000
lala 11 0.6 1 second 6 1 195 4 3.84 5.87999963760376 1 0 1 0 -0.02505635 -0.02502654 -0.02533035 -0.02581404 -0.02618144 1000 -0.02505635 -0.02502654 -0.02533035 -0.02581404 -0.02618144 1000 -0.02745352 -0.02705661 -0.02682542 -0.02677313 -0.02685969 1000 -0.02745352 -0.02705661 -0.02682542 -0.02677313 -0.02685969 1000
lala 9 1.2 1 first 8 1 196 5 5.7 5.39999341964722 1 0 1 0 -0.02426659 -0.0231366 -0.0222058 1000 1000 1000 -0.02426659 -0.0231366 -0.0222058 1000 1000 1000 -0.02489995 -0.02565873 -0.0253623 -0.02502637 -0.02493696 1000 -0.02489995 -0.02565873 -0.0253623 -0.02502637 -0.02493696 1000
lala 15 0.3 1 second 0 1 197 4 6.389999 0.799997568130493 -1 0 1 1 -0.01725319 -0.01687011 -0.01649051 -0.01676642 -0.01719326 1000 -0.01725319 -0.01687011 -0.01649051 -0.01676642 -0.01719326 1000 -0.01740013 -0.01735113 -0.01723662 -0.01745339 -0.01744458 1000 -0.01740013 -0.01735113 -0.01723662 -0.01745339 -0.01744458 1000
lala 13 0.075 1 first 12 1 198 4 3.015 2.83999586105347 0 0 1 1 -0.01888282 -0.01868969 -0.01806534 1000 1000 1000 -0.01888282 -0.01868969 -0.01806534 1000 1000 1000 -0.01757669 -0.01848402 -0.01877081 -0.01821111 -0.01790098 1000 -0.01757669 -0.01848402 -0.01877081 -0.01821111 -0.01790098 1000
lala 14 0.075 0 first 12 1 199 4 2.94 0.779997587203979 0 0 -1 1 0.004905586 0.005917702 0.007285068 1000 1000 1000 0.004905586 0.005917702 0.007285068 1000 1000 1000 0.01574127 0.01553309 0.01558224 0.01570426 0.0159006 1000 0.01574127 0.01553309 0.01558224 0.01570426 0.0159006 1000
lala 11 1.2 1 second 4 1 200 6 9.96 0.23999810218811 -1 0 1 1 0.03334504 0.01459079 0.008174956 0.007875916 0.007173654 1000 0.03334504 0.01459079 0.008174956 0.007875916 0.007173654 1000 -0.002074608 -0.004654028 -0.005150576 -0.004615563 -0.00434524 1000 -0.002074608 -0.004654028 -0.005150576 -0.004615563 -0.00434524 1000
lala 19 0.075 0 second 13 1 201 4 3.795 0.419997930526733 0 1 -1 1 -0.007901229 -0.008884823 -0.009379622 -0.01133108 -0.01088673 1000 -0.007901229 -0.008884823 -0.009379622 -0.01133108 -0.01088673 1000 -0.01193771 -0.01262432 -0.01345623 -0.01472831 -0.01519629 1000 -0.01193771 -0.01262432 -0.01345623 -0.01472831 -0.01519629 1000
lala 10 1.2 0 first 14 1 202 5 5.25 0.479997873306274 0 0 -1 1 -0.0165573 -0.01732881 -0.01804735 1000 1000 1000 -0.0165573 -0.01732881 -0.01804735 1000 1000 1000 -0.01967161 -0.01957353 -0.01986572 -0.02002895 -0.01978826 1000 -0.01967161 -0.01957353 -0.01986572 -0.02002895 -0.01978826 1000
lala 14 2.4 0 first 1 1 203 4 2.319999 0.259998083114624 -1 1 -1 1 -0.02023381 -0.02009225 -0.01992642 1000 1000 1000 -0.02023381 -0.02009225 -0.01992642 1000 1000 1000 -0.01984541 -0.01967454 -0.01981106 -0.02002945 -0.02059348 1000 -0.01984541 -0.01967454 -0.01981106 -0.02002945 -0.02059348 1000
lala 12 0.6 0 first 6 1 204 4 3.24 0.519997835159302 1 0 -1 1 -0.02126181 -0.02083789 -0.02065432 1000 1000 1000 -0.02126181 -0.02083789 -0.02065432 1000 1000 1000 -0.02071069 -0.02033937 -0.02020162 -0.02006043 -0.01988894 1000 -0.02071069 -0.02033937 -0.02020162 -0.02006043 -0.01988894 1000
lala 15 0.0375 0 second 12 1 205 4 2.9775 0.479997873306274 0 0 -1 0 -0.003590462 0.008142156 0.02341574 0.0315489 0.03596953 1000 -0.003590462 0.008142156 0.02341574 0.0315489 0.03596953 1000 0.01651108 0.0125823 0.0093422 0.00816616 0.009624952 1000 0.01651108 0.0125823 0.0093422 0.00816616 0.009624952 1000
lala 10 1.2 1 first 17 1 206 6 6.780001 0.23999810218811 0 1 1 1 0.01273017 0.01071615 0.01299582 1000 1000 1000 0.01273017 0.01071615 0.01299582 1000 1000 1000 0.005376261 0.004837662 0.004400465 0.003756691 0.002139184 1000 0.005376261 0.004837662 0.004400465 0.003756691 0.002139184 1000
lala 11 0.6 1 second 2 1 207 5 5.85 0.079998254776001 -1 0 1 0 -0.005733405 -0.004806121 -0.00379589 -0.00161671 -0.0004693437 1000 -0.005733405 -0.004806121 -0.00379589 -0.00161671 -0.0004693437 1000 -0.002021519 -0.001908993 -0.001745882 -0.001642994 -0.002220183 1000 -0.002021519 -0.001908993 -0.001745882 -0.001642994 -0.002220183 1000
lala 16 0.6 1 first 0 1 208 4 5.789999 2.51999616622925 -1 0 1 0 0.003357181 0.004115934 0.003703749 1000 1000 1000 0.003357181 0.004115934 0.003703749 1000 1000 1000 0.004069977 0.003792173 0.003190693 0.003355387 0.003567867 1000 0.004069977 0.003792173 0.003190693 0.003355387 0.003567867 1000
lala 11 0.6 1 second 17 1 209 6 6.180001 0.23999810218811 0 1 1 1 0.004455644 0.004723047 0.004878122 0.004649167 0.004590211 1000 0.004455644 0.004723047 0.004878122 0.004649167 0.004590211 1000 0.00734117 0.007218908 0.006922228 0.009476058 0.01121202 1000 0.00734117 0.007218908 0.006922228 0.009476058 0.01121202 1000
lala 12 0.6 1 first 17 1 210 6 5.580001 0.339998006820679 0 1 1 0 0.02258966 0.02968328 0.04540905 1000 1000 1000 0.02258966 0.02968328 0.04540905 1000 1000 1000 0.01548642 0.01515477 0.01525668 0.01475926 0.0150261 1000 0.01548642 0.01515477 0.01525668 0.01475926 0.0150261 1000
lala 12 0.3 1 second 2 1 211 5 5.55 0.0999982357025146 -1 0 1 0 0.004637795 0.005717933 0.005886341 0.005631173 0.005958296 1000 0.004637795 0.005717933 0.005886341 0.005631173 0.005958296 1000 0.004738558 0.007146916 0.00451472 0.001486349 0.003048753 1000 0.004738558 0.007146916 0.00451472 0.001486349 0.003048753 1000
lala 13 0.6 1 second 17 1 212 6 4.980001 0.279998064041138 0 1 1 0 0.003592412 0.002902118 0.00242351 0.002305032 0.001790348 1000 0.003592412 0.002902118 0.00242351 0.002305032 0.001790348 1000 0.001448696 0.0007051319 0.0005244254 0.0006530844 0.0007160963 1000 0.001448696 0.0007051319 0.0005244254 0.0006530844 0.0007160963 1000
lala 10 1.2 1 first 5 1 213 6 6.780001 1.49999690055847 -1 1 1 0 -0.0007334038 -0.001470245 -0.001662096 1000 1000 1000 -0.0007334038 -0.001470245 -0.001662096 1000 1000 1000 -0.002204402 -0.002108895 -0.001799288 -0.002003246 -0.002664379 1000 -0.002204402 -0.002108895 -0.001799288 -0.002003246 -0.002664379 1000
lala 10 2.4 1 second 3 1 214 5 9.049999 0.379997968673706 -1 1 1 0 -0.003608669 -0.00398918 -0.004429109 -0.004400949 -0.004772322 1000 -0.003608669 -0.00398918 -0.004429109 -0.004400949 -0.004772322 1000 -0.002089611 0.001014174 0.003909934 0.004684569 0.00511848 1000 -0.002089611 0.001014174 0.003909934 0.004684569 0.00511848 1000
lala 12 1.2 1 first 4 1 215 6 8.76 1.05999732017517 -1 0 1 0 0.01264887 0.01307558 0.01312051 1000 1000 1000 0.01264887 0.01307558 0.01312051 1000 1000 1000 0.007192075 0.001018593 0.0007281092 0.0001861972 -0.001564427 1000 0.007192075 0.001018593 0.0007281092 0.0001861972 -0.001564427 1000
lala 13 0.3 1 first 2 1 216 5 5.25 1.91999673843384 -1 0 1 0 0.01792263 0.009316848 0.003876101 1000 1000 1000 0.01792263 0.009316848 0.003876101 1000 1000 1000 0.01217491 0.01192292 0.01388784 0.01880565 0.01848763 1000 0.01217491 0.01192292 0.01388784 0.01880565 0.01848763 1000
lala 16 0.0375 1 first 12 1 217 4 3.015 2.99999570846558 0 0 1 1 0.008075664 0.009441583 0.009887675 1000 1000 1000 0.008075664 0.009441583 0.009887675 1000 1000 1000 0.003063943 0.003433675 0.004540909 0.005685321 0.0061231 1000 0.003063943 0.003433675 0.004540909 0.005685321 0.0061231 1000
lala 13 1.2 1 second 4 1 218 6 7.56 1.77999687194824 -1 0 1 1 0.00862243 0.008615287 0.00849362 0.00858697 0.008812825 1000 0.00862243 0.008615287 0.00849362 0.00858697 0.008812825 1000 0.01160058 0.01159343 0.01176744 0.01225422 0.0130617 1000 0.01160058 0.01159343 0.01176744 0.01225422 0.0130617 1000
lala 11 1.2 1 second 3 1 219 5 7.849999 0.259998083114624 -1 1 1 1 0.0245205 0.02474765 0.02478221 0.02457686 0.02456741 1000 0.0245205 0.02474765 0.02478221 0.02457686 0.02456741 1000 0.02426008 0.02436091 0.02461785 0.02438111 0.02404344 1000 0.02426008 0.02436091 0.02461785 0.02438111 0.02404344 1000
lala 11 2.4 1 second 14 1 220 5 7.65 0.459997892379761 0 0 1 1 0.02360761 0.0233871 0.02336009 0.02321806 0.02325683 1000 0.02360761 0.0233871 0.02336009 0.02321806 0.02325683 1000 0.02077564 0.02075217 0.02063702 0.02089188 0.02065396 1000 0.02077564 0.02075217 0.02063702 0.02089188 0.02065396 1000
lala 12 1.2 1 second 16 1 221 6 6.360001 4.71999406814575 0 0 1 0 0.01807097 0.01815336 0.01817821 0.01773416 0.01737505 1000 0.01807097 0.01815336 0.01817821 0.01773416 0.01737505 1000 0.01514281 0.01480665 0.0125366 0.01077762 0.0112256 1000 0.01514281 0.01480665 0.0125366 0.01077762 0.0112256 1000
lala 13 0.3 1 second 6 1 222 4 3.54 0.699997663497925 1 0 1 0 0.01466922 0.01420721 0.01303701 0.01279678 0.01214417 1000 0.01466922 0.01420721 0.01303701 0.01279678 0.01214417 1000 0.01323595 0.01063163 0.01067667 0.01069177 0.008266165 1000 0.01323595 0.01063163 0.01067667 0.01069177 0.008266165 1000
lala 12 1.2 1 second 14 1 223 5 6.45 0.779997587203979 0 0 1 1 0.01166497 0.01141092 0.01037649 0.009977025 0.01053294 1000 0.01166497 0.01141092 0.01037649 0.009977025 0.01053294 1000 0.01425366 0.01411247 0.01397225 0.0139128 0.01380969 1000 0.01425366 0.01411247 0.01397225 0.0139128 0.01380969 1000
lala 12 1.2 1 first 10 1 224 6 6.36 4.09999465942383 1 0 1 0 0.01411121 0.0139204 0.01403612 1000 1000 1000 0.01411121 0.0139204 0.01403612 1000 1000 1000 0.01432128 0.01453088 0.01436345 0.01425814 0.01385883 1000 0.01432128 0.01453088 0.01436345 0.01425814 0.01385883 1000
lala 14 2.4 1 second 4 1 225 6 5.16 0.659997701644897 -1 0 1 1 0.009746015 0.009733398 0.009933486 0.009598418 0.009492095 1000 0.009746015 0.009733398 0.009933486 0.009598418 0.009492095 1000 0.00835961 0.007988121 0.007734861 0.00778897 0.00758393 1000 0.00835961 0.007988121 0.007734861 0.00778897 0.00758393 1000
lala 15 4.8 0 first 4 1 226 6 1.98 0.519997835159302 -1 0 -1 0 0.003495866 0.003062369 0.002872241 1000 1000 1000 0.003495866 0.003062369 0.002872241 1000 1000 1000 0.002630594 0.002672419 0.002721727 0.002645752 0.002632053 1000 0.002630594 0.002672419 0.002721727 0.002645752 0.002632053 1000
lala 8 1.2 0 first 9 1 227 5 5.450001 0.919997453689575 1 1 -1 0 0.002017227 0.002304346 0.002195116 1000 1000 1000 0.002017227 0.002304346 0.002195116 1000 1000 1000 0.0005476257 0.0006804725 0.0008389311 0.0008110745 0.0004871143 1000 0.0005476257 0.0006804725 0.0008389311 0.0008110745 0.0004871143 1000
lala 12 0.3 1 second 15 1 228 5 5.15 2.23999643325806 0 1 1 0 -0.0009063818 -0.0009733109 -0.001200658 -0.000880165 -0.001249383 1000 -0.0009063818 -0.0009733109 -0.001200658 -0.000880165 -0.001249383 1000 -0.001913365 -0.001855929 -0.001792629 -0.002113872 -0.002366995 1000 -0.001913365 -0.001855929 -0.001792629 -0.002113872 -0.002366995 1000
lala 16 2.4 0 first 4 1 229 6 4.38 0.359997987747192 -1 0 -1 0 -0.003393241 -0.003486763 -0.003381107 1000 1000 1000 -0.003393241 -0.003486763 -0.003381107 1000 1000 1000 -0.003726908 -0.003425248 -0.003226369 -0.00353033 -0.003663494 1000 -0.003726908 -0.003425248 -0.003226369 -0.00353033 -0.003663494 1000
lala 17 0.01875 0 second 12 1 230 4 2.99625 0.559997797012329 0 0 -1 0 -0.003616613 -0.004126802 -0.004489248 -0.003890986 -0.003866112 1000 -0.003616613 -0.004126802 -0.004489248 -0.003890986 -0.003866112 1000 -0.003380407 -0.003546994 -0.003604036 -0.003707349 -0.003503897 1000 -0.003380407 -0.003546994 -0.003604036 -0.003707349 -0.003503897 1000
lala 13 0.15 1 second 11 1 231 6 6.930001 0.199998140335083 1 1 1 1 0.01246526 0.01896979 0.02313876 0.02839681 0.02939928 1000 0.01246526 0.01896979 0.02313876 0.02839681 0.02939928 1000 0.0119572 0.01298059 0.01405427 0.01489769 0.01243097 1000 0.0119572 0.01298059 0.01405427 0.01489769 0.01243097 1000
lala 13 1.2 1 second 16 1 232 6 5.160001 0.299998044967651 0 0 1 0 0.01013409 0.01235766 0.01409866 0.01488485 0.0158834 1000 0.01013409 0.01235766 0.01409866 0.01488485 0.0158834 1000 0.005761826 0.004857772 0.006579325 0.00691633 0.006590455 1000 0.005761826 0.004857772 0.006579325 0.00691633 0.006590455 1000
lala 13 1.2 1 first 14 1 233 5 5.25 0.159998178482056 0 0 1 1 0.01364492 0.0200715 0.02428584 1000 1000 1000 0.01364492 0.0200715 0.02428584 1000 1000 1000 0.01854009 0.01880009 0.01878653 0.0187536 0.01793106 1000 0.01854009 0.01880009 0.01878653 0.0187536 0.01793106 1000
lala 14 0.15 1 second 11 1 234 6 6.780001 0.479997873306274 1 1 1 0 0.01424181 0.01438638 0.01369745 0.01340098 0.01333186 1000 0.01424181 0.01438638 0.01369745 0.01340098 0.01333186 1000 0.01257776 0.01246662 0.01192299 0.01153907 0.01162482 1000 0.01257776 0.01246662 0.01192299 0.01153907 0.01162482 1000
lala 14 2.4 0 second 16 1 235 6 2.760001 0.559997797012329 0 0 -1 0 0.01056937 0.01057134 0.01021634 0.01030446 0.009893177 1000 0.01056937 0.01057134 0.01021634 0.01030446 0.009893177 1000 0.009214246 0.009407798 0.009117548 0.008860649 0.00838923 1000 0.009214246 0.009407798 0.009117548 0.008860649 0.00838923 1000
lala 13 0.15 1 second 15 1 236 5 5 0.23999810218811 0 1 1 1 0.006387195 0.006725772 0.006929095 0.006712659 0.006789046 1000 0.006387195 0.006725772 0.006929095 0.006712659 0.006789046 1000 0.006390106 0.006433282 0.006548725 0.006218881 0.005604208 1000 0.006390106 0.006433282 0.006548725 0.006218881 0.005604208 1000
lala 13 1.2 1 second 10 1 237 6 5.16 0.39999794960022 1 0 1 0 0.02988446 0.03637127 0.04036167 0.04289199 0.04377734 1000 0.02988446 0.03637127 0.04036167 0.04289199 0.04377734 1000 0.03394929 0.03722307 0.03959052 0.04075186 0.04109316 1000 0.03394929 0.03722307 0.03959052 0.04075186 0.04109316 1000
lala 12 0.6 0 first 7 1 238 4 2.92 0.319998025894165 1 1 -1 0 0.00714607 0.0009757673 0.0008784824 1000 1000 1000 0.00714607 0.0009757673 0.0008784824 1000 1000 1000 0.01968852 0.01843219 0.0176241 0.01738796 0.01705913 1000 0.01968852 0.01843219 0.0176241 0.01738796 0.01705913 1000
lala 17 1.2 1 second 0 1 239 4 4.589999 0.299998044967651 -1 0 1 0 0.006819324 0.006889303 0.007203349 0.007643801 0.00772812 1000 0.006819324 0.006889303 0.007203349 0.007643801 0.00772812 1000 0.007947159 0.008092664 0.008117185 0.008291209 0.007845045 1000 0.007947159 0.008092664 0.008117185 0.008291209 0.007845045 1000
lala 18 0.009375 1 first 12 1 240 4 3.005625 1.29999709129334 0 0 1 0 0.007262503 0.01097505 0.01541838 1000 1000 1000 0.007262503 0.01097505 0.01541838 1000 1000 1000 0.06874545 0.06689446 0.04224518 0.05825093 0.06203631 1000 0.06874545 0.06689446 0.04224518 0.05825093 0.06203631 1000
lala 14 0.15 1 first 15 1 241 5 4.85 2.7399959564209 0 1 1 1 -0.01585861 -0.01157833 -0.003465589 1000 1000 1000 -0.01585861 -0.01157833 -0.003465589 1000 1000 1000 0.008247165 -0.0002898794 -0.0001876241 0.001868923 0.001681758 1000 0.008247165 -0.0002898794 -0.0001876241 0.001868923 0.001681758 1000
lala 15 1.2 1 first 1 1 242 4 3.519999 1.41999697685242 -1 1 1 1 0.01254253 0.01290424 0.01274162 1000 1000 1000 0.01254253 0.01290424 0.01274162 1000 1000 1000 0.01693315 0.01643807 0.01607873 0.01486572 0.01410131 1000 0.01693315 0.01643807 0.01607873 0.01486572 0.01410131 1000
lala 14 1.2 1 first 14 1 243 5 4.05 0.219998121261597 0 0 1 0 0.01241242 0.0124513 0.01234625 1000 1000 1000 0.01241242 0.0124513 0.01234625 1000 1000 1000 0.007445808 0.007001308 0.006327419 0.005528168 0.005065637 1000 0.007445808 0.007001308 0.006327419 0.005528168 0.005065637 1000
lala 12 1.2 1 second 3 1 244 5 6.65 0.219998121261597 -1 1 1 0 0.003837156 0.004101492 0.004612564 0.004582389 0.0003501586 1000 0.003837156 0.004101492 0.004612564 0.004582389 0.0003501586 1000 -0.004076488 -0.005346961 -0.00480654 -0.005042853 -0.005443477 1000 -0.004076488 -0.005346961 -0.00480654 -0.005042853 -0.005443477 1000
lala 18 2.4 0 first 0 1 245 4 2.189999 0.01999831199646 -1 0 -1 1 0.003593736 0.001522455 -0.0004545407 1000 1000 1000 0.003593736 0.001522455 -0.0004545407 1000 1000 1000 -0.005275007 -0.005663238 -0.005996455 -0.006236834 -0.006449034 1000 -0.005275007 -0.005663238 -0.005996455 -0.006236834 -0.006449034 1000
lala 14 1.2 1 second 17 1 246 6 3.780001 0.01999831199646 0 1 1 0 -0.009268525 -0.009736206 -0.01005372 -0.01031791 -0.01066627 1000 -0.009268525 -0.009736206 -0.01005372 -0.01031791 -0.01066627 1000 -0.01171951 -0.01165698 -0.01148856 -0.01141849 -0.01127901 1000 -0.01171951 -0.01165698 -0.01148856 -0.01141849 -0.01127901 1000
lala 14 0.15 0 first 6 1 247 4 3.39 1.8599967956543 1 0 -1 0 -0.00920324 0.00337953 0.009056944 1000 1000 1000 -0.00920324 0.00337953 0.009056944 1000 1000 1000 0.02814837 0.02988666 0.03276162 0.03230967 0.02690676 1000 0.02814837 0.02988666 0.03276162 0.03230967 0.02690676 1000
lala 15 0.15 1 second 15 1 248 5 4.7 0.23999810218811 0 1 1 0 0.006212538 0.01016157 0.01195003 0.01094077 0.01083039 1000 0.006212538 0.01016157 0.01195003 0.01094077 0.01083039 1000 0.002053376 0.001404706 0.0005562058 -0.0005037987 -0.0010624 1000 0.002053376 0.001404706 0.0005562058 -0.0005037987 -0.0010624 1000
lala 14 0.3 1 first 2 1 249 5 4.949999 0.679997682571411 -1 0 1 0 0.006381353 0.008209586 0.00978127 1000 1000 1000 0.006381353 0.008209586 0.00978127 1000 1000 1000 0.01205387 0.01194087 0.01207519 0.01149427 0.01124431 1000 0.01205387 0.01194087 0.01207519 0.01149427 0.01124431 1000
lala 13 0.6 0 second 7 1 250 4 3.52 1.15999722480774 1 1 -1 1 0.0446443 0.04261358 0.03477577 0.02874939 0.02298176 1000 0.0446443 0.04261358 0.03477577 0.02874939 0.02298176 1000 0.01233407 0.01207384 0.01227942 0.01224296 0.012038 1000 0.01233407 0.01207384 0.01227942 0.01224296 0.012038 1000
lala 19 0.0046875 1 first 12 1 251 4 3.000938 0.679997682571411 0 0 1 0 0.01489765 0.01465675 0.01420106 1000 1000 1000 0.01489765 0.01465675 0.01420106 1000 1000 1000 0.0116028 0.01191093 0.0121599 0.01258804 0.01259215 1000 0.0116028 0.01191093 0.0121599 0.01258804 0.01259215 1000
lala 16 0.6 0 first 1 1 252 4 2.919999 6.50001382827759 -1 1 -1 1 0.008736692 0.00748247 0.007775665 1000 1000 1000 0.008736692 0.00748247 0.007775665 1000 1000 1000 0.0100756 0.01113825 0.01183971 0.01193837 0.008875807 1000 0.0100756 0.01113825 0.01183971 0.01193837 0.008875807 1000
lala 15 0.15 1 first 11 1 253 6 6.630001 0.559997797012329 1 1 1 1 0.01305147 0.0125988 0.01200798 1000 1000 1000 0.01305147 0.0125988 0.01200798 1000 1000 1000 0.007638694 0.007317091 0.006977643 0.006500435 0.005777195 1000 0.007638694 0.007317091 0.006977643 0.006500435 0.005777195 1000
lala 15 0.075 0 second 6 1 254 4 3.465 0.699997663497925 1 0 -1 1 0.0178415 0.01497009 0.0138042 0.0122144 0.01716192 1000 0.0178415 0.01497009 0.0138042 0.0122144 0.01716192 1000 0.01699242 0.0107858 0.01064029 0.0107025 0.007652259 1000 0.01699242 0.0107858 0.01064029 0.0107025 0.007652259 1000
lala 13 1.2 0 first 3 1 255 5 5.45 0.279998064041138 -1 1 -1 1 8.936362E-05 -0.0002096718 -0.0003131514 1000 1000 1000 8.936362E-05 -0.0002096718 -0.0003131514 1000 1000 1000 -0.009563965 -0.009997668 -0.01049535 -0.009957617 -0.0098579 1000 -0.009563965 -0.009997668 -0.01049535 -0.009957617 -0.0098579 1000
lala 16 0.3 0 second 15 1 256 5 4.4 0.259998083114624 0 1 -1 0 -0.008561552 -0.008779993 -0.008639252 -0.008572454 -0.008536734 1000 -0.008561552 -0.008779993 -0.008639252 -0.008572454 -0.008536734 1000 -0.005489804 -0.005087457 -0.004901132 -0.004650212 -0.004655742 1000 -0.005489804 -0.005087457 -0.004901132 -0.004650212 -0.004655742 1000
lala 17 2.4 0 first 4 1 257 6 6.78 1.41999697685242 -1 0 -1 0 -0.005162016 -0.006010987 -0.006111752 1000 1000 1000 -0.005162016 -0.006010987 -0.006111752 1000 1000 1000 -0.006726667 -0.00636008 -0.006513907 -0.006394794 -0.00641353 1000 -0.006726667 -0.00636008 -0.006513907 -0.006394794 -0.00641353 1000
lala 14 1.2 0 first 10 1 258 6 3.96 0.419997930526733 1 0 -1 1 -0.00467246 -0.005007941 -0.004694129 1000 1000 1000 -0.00467246 -0.005007941 -0.004694129 1000 1000 1000 -0.005103384 -0.005102733 -0.005018034 -0.005317777 -0.005831578 1000 -0.005103384 -0.005102733 -0.005018034 -0.005317777 -0.005831578 1000
lala 14 0.6 1 second 3 1 259 5 6.05 0.199998140335083 -1 1 1 1 -0.006079206 -0.006156612 -0.006076977 -0.005901171 -0.005595493 1000 -0.006079206 -0.006156612 -0.006076977 -0.005901171 -0.005595493 1000 -0.006843529 -0.007150754 -0.006905818 -0.006839097 -0.006742631 1000 -0.006843529 -0.007150754 -0.006905818 -0.006839097 -0.006742631 1000
lala 9 1.2 1 first 9 1 260 5 6.650001 0.799997568130493 1 1 1 0 -0.007403739 -0.007919821 -0.007860243 1000 1000 1000 -0.007403739 -0.007919821 -0.007860243 1000 1000 1000 -0.008420809 -0.008317065 -0.008364793 -0.008505145 -0.008638891 1000 -0.008420809 -0.008317065 -0.008364793 -0.008505145 -0.008638891 1000
lala 10 0.6 0 first 9 1 261 5 6.050001 0.599997758865356 1 1 -1 1 -0.01124855 -0.01076851 -0.009995883 1000 1000 1000 -0.01124855 -0.01076851 -0.009995883 1000 1000 1000 -0.007921728 -0.007927812 -0.008012347 -0.008500518 -0.008849598 1000 -0.007921728 -0.007927812 -0.008012347 -0.008500518 -0.008849598 1000
lala 15 0.6 0 second 10 1 262 6 4.56 0.279998064041138 1 0 -1 1 -0.00748686 -0.005257433 -0.001412775 0.006957309 0.008254703 1000 -0.00748686 -0.005257433 -0.001412775 0.006957309 0.008254703 1000 0.00917643 0.01012814 0.01304837 0.01398175 0.01250822 1000 0.00917643 0.01012814 0.01304837 0.01398175 0.01250822 1000
lala 16 0.3 1 second 11 1 263 6 6.33 0.339998006820679 1 1 1 1 0.002740571 0.003217079 0.00240797 -0.001714399 -0.004996081 1000 0.002740571 0.003217079 0.00240797 -0.001714399 -0.004996081 1000 -0.01133357 -0.01192926 -0.01177935 -0.01145212 -0.01238186 1000 -0.01133357 -0.01192926 -0.01177935 -0.01145212 -0.01238186 1000
lala 19 1.2 1 first 0 1 264 4 3.389999 0.739997625350952 -1 0 1 0 -0.00906645 -0.007300776 -0.006172913 1000 1000 1000 -0.00906645 -0.007300776 -0.006172913 1000 1000 1000 0.006290431 0.007200844 0.009193764 0.01090186 0.0105619 1000 0.006290431 0.007200844 0.009193764 0.01090186 0.0105619 1000
lala 20 0.6 0 first 0 1 265 4 2.789999 0.119998216629028 -1 0 -1 0 0.01070906 0.009820042 0.009016045 1000 1000 1000 0.01070906 0.009820042 0.009016045 1000 1000 1000 0.01210999 0.01180432 0.01155951 0.0115474 0.01177577 1000 0.01210999 0.01180432 0.01155951 0.0115474 0.01177577 1000
lala 15 0.3 0 second 3 1 266 5 5.75 1.37999701499939 -1 1 -1 0 0.01126141 0.01084694 0.01136957 0.01134828 0.01181571 1000 0.01126141 0.01084694 0.01136957 0.01134828 0.01181571 1000 0.01254372 0.012223 0.01253156 0.01239606 0.01268127 1000 0.01254372 0.012223 0.01253156 0.01239606 0.01268127 1000
lala 21 0.3 0 first 0 1 267 4 3.089999 0.23999810218811 -1 0 -1 1 0.01417997 0.01491172 0.01526479 1000 1000 1000 0.01417997 0.01491172 0.01526479 1000 1000 1000 0.01546081 0.01559198 0.01567405 0.01542146 0.01518983 1000 0.01546081 0.01559198 0.01567405 0.01542146 0.01518983 1000
lala 15 1.2 1 second 16 1 268 6 3.960001 0.599997758865356 0 0 1 1 0.01612882 0.01598234 0.01600617 0.01616998 0.01623108 1000 0.01612882 0.01598234 0.01600617 0.01616998 0.01623108 1000 0.01628929 0.01598966 0.0156323 0.01578753 0.0159432 1000 0.01628929 0.01598966 0.0156323 0.01578753 0.0159432 1000
lala 17 0.3 0 second 1 1 269 4 3.219999 0.299998044967651 -1 1 -1 1 0.01760658 0.01763261 0.01685612 0.01644633 0.016028 1000 0.01760658 0.01763261 0.01685612 0.01644633 0.016028 1000 0.01526839 0.01520266 0.01519496 0.01486064 0.01427267 1000 0.01526839 0.01520266 0.01519496 0.01486064 0.01427267 1000
lala 16 0.6 0 first 16 1 270 6 3.360001 2.35999631881714 0 0 -1 0 0.02651511 0.04367113 0.04679836 1000 1000 1000 0.02651511 0.04367113 0.04679836 1000 1000 1000 0.03150835 0.04379103 0.04790706 0.06012795 0.06740314 1000 0.03150835 0.04379103 0.04790706 0.06012795 0.06740314 1000
lala 11 2.4 0 first 5 1 271 6 4.380001 1.07999730110168 -1 1 -1 0 0.01935057 0.01816284 0.01264148 1000 1000 1000 0.01935057 0.01816284 0.01264148 1000 1000 1000 0.01036191 0.003461669 -0.002093794 0.0006926466 0.000128467 1000 0.01036191 0.003461669 -0.002093794 0.0006926466 0.000128467 1000
lala 17 0.3 0 first 16 1 272 6 3.660001 0.799997568130493 0 0 -1 0 0.010761 0.01214113 0.01410586 1000 1000 1000 0.010761 0.01214113 0.01410586 1000 1000 1000 0.006864056 0.00605995 0.004783872 0.004019141 0.003678669 1000 0.006864056 0.00605995 0.004783872 0.004019141 0.003678669 1000
lala 14 1.2 1 first 7 1 273 4 4.719999 0.739997625350952 1 1 1 0 0.02804082 0.03084188 0.03327847 1000 1000 1000 0.02804082 0.03084188 0.03327847 1000 1000 1000 0.009068369 0.008923914 0.008554189 0.006878363 0.005786269 1000 0.009068369 0.008923914 0.008554189 0.006878363 0.005786269 1000
lala 20 0.0375 0 first 13 1 274 4 3.8325 0.359997987747192 0 1 -1 0 0.0001031074 -0.0008743185 -0.001410931 1000 1000 1000 0.0001031074 -0.0008743185 -0.001410931 1000 1000 1000 -0.005492046 -0.005476069 -0.005467726 -0.005627153 -0.005669054 1000 -0.005492046 -0.005476069 -0.005467726 -0.005627153 -0.005669054 1000
lala 17 0.15 1 second 15 1 275 5 4.55 0.319998025894165 0 1 1 1 -0.008150552 -0.008557093 -0.008630355 -0.008682296 -0.008904133 1000 -0.008150552 -0.008557093 -0.008630355 -0.008682296 -0.008904133 1000 -0.01003823 -0.01052396 -0.01024824 -0.01018282 -0.01012308 1000 -0.01003823 -0.01052396 -0.01024824 -0.01018282 -0.01012308 1000
lala 12 1.2 1 second 5 1 276 6 5.580001 0.159998178482056 -1 1 1 1 -0.01074251 -0.01085442 -0.01160321 -0.01216812 -0.01223958 1000 -0.01074251 -0.01085442 -0.01160321 -0.01216812 -0.01223958 1000 -0.01253574 -0.0126485 -0.01319767 -0.01363606 -0.01355373 1000 -0.01253574 -0.0126485 -0.01319767 -0.01363606 -0.01355373 1000
lala 21 0.0375 1 second 13 1 277 4 3.869999 0.01999831199646 0 1 1 0 -0.01400303 -0.01414171 -0.01403672 -0.01400218 -0.01388195 1000 -0.01400303 -0.01414171 -0.01403672 -0.01400218 -0.01388195 1000 -0.0160512 -0.01658083 -0.01639362 -0.01616674 -0.01582218 1000 -0.0160512 -0.01658083 -0.01639362 -0.01616674 -0.01582218 1000
lala 20 0.0046875 1 second 12 1 278 4 2.99625 0.159998178482056 0 0 1 1 -0.0171403 -0.01737552 -0.01705059 -0.01701793 -0.0168571 1000 -0.0171403 -0.01737552 -0.01705059 -0.01701793 -0.0168571 1000 -0.01838158 -0.01829976 -0.01842112 -0.01883659 -0.01868599 1000 -0.01838158 -0.01829976 -0.01842112 -0.01883659 -0.01868599 1000
lala 16 0.15 0 second 3 1 279 5 5.9 1.0999972820282 -1 1 -1 0 -0.01930504 -0.01936233 -0.01986789 -0.01984691 -0.01962676 1000 -0.01930504 -0.01936233 -0.01986789 -0.01984691 -0.01962676 1000 -0.02047497 -0.02034678 -0.02035016 -0.02026204 -0.02043085 1000 -0.02047497 -0.02034678 -0.02035016 -0.02026204 -0.02043085 1000
lala 15 2.4 0 second 14 1 280 5 1.65 0.419997930526733 0 0 -1 1 -0.02348835 -0.02373385 -0.02349619 -0.0235132 -0.02393133 1000 -0.02348835 -0.02373385 -0.02349619 -0.0235132 -0.02393133 1000 -0.0249612 -0.02502525 -0.02468053 -0.02436669 -0.02422407 1000 -0.0249612 -0.02502525 -0.02468053 -0.02436669 -0.02422407 1000
lala 11 0.3 1 first 9 1 281 5 6.350001 0.159998178482056 1 1 1 1 -0.02448276 -0.02454449 -0.02448201 1000 1000 1000 -0.02448276 -0.02454449 -0.02448201 1000 1000 1000 -0.01954988 -0.01965783 -0.02014162 -0.02063951 -0.02049385 1000 -0.01954988 -0.01965783 -0.02014162 -0.02063951 -0.02049385 1000
lala 22 0.01875 0 first 13 1 282 4 3.851249 0.219998121261597 0 1 -1 1 -0.01983457 -0.01928757 -0.01913703 1000 1000 1000 -0.01983457 -0.01928757 -0.01913703 1000 1000 1000 -0.01533054 -0.01515805 -0.01511245 -0.01513139 -0.01575171 1000 -0.01533054 -0.01515805 -0.01511245 -0.01513139 -0.01575171 1000
lala 16 0.075 0 second 6 1 283 4 3.54 0.719997644424438 1 0 -1 1 -0.01516713 -0.01728879 -0.02043022 -0.02196784 -0.02369544 1000 -0.01516713 -0.01728879 -0.02043022 -0.02196784 -0.02369544 1000 -0.02165017 -0.02121794 -0.01969408 -0.01969229 -0.02021489 1000 -0.02165017 -0.02121794 -0.01969408 -0.01969229 -0.02021489 1000
lala 15 0.6 0 first 2 1 284 5 4.349999 0.219998121261597 -1 0 -1 1 -0.02044481 -0.01959874 -0.01993944 1000 1000 1000 -0.02044481 -0.01959874 -0.01993944 1000 1000 1000 -0.02239707 -0.02217495 -0.02200098 -0.02191545 -0.02217295 1000 -0.02239707 -0.02217495 -0.02200098 -0.02191545 -0.02217295 1000
lala 18 0.3 1 first 16 1 285 6 3.960001 0.479997873306274 0 0 1 0 -0.02015332 -0.01363506 -0.009077425 1000 1000 1000 -0.02015332 -0.01363506 -0.009077425 1000 1000 1000 -0.006401866 -0.006814167 -0.00686786 -0.007017778 -0.007509811 1000 -0.006401866 -0.006814167 -0.00686786 -0.007017778 -0.007509811 1000
lala 19 0.15 1 second 16 1 286 6 3.81 0.0599982738494873 0 0 1 1 -0.00883298 -0.008457266 -0.008106354 -0.008022931 -0.0080028 1000 -0.00883298 -0.008457266 -0.008106354 -0.008022931 -0.0080028 1000 -0.01032456 -0.01061713 -0.01045518 -0.01050497 -0.01092396 1000 -0.01032456 -0.01061713 -0.01045518 -0.01050497 -0.01092396 1000
lala 20 0.15 1 second 16 1 287 6 3.66 0.23999810218811 0 0 1 0 -0.01259236 -0.01219152 -0.01189951 -0.01174579 -0.01189704 1000 -0.01259236 -0.01219152 -0.01189951 -0.01174579 -0.01189704 1000 -0.01313199 -0.01350463 -0.01377076 -0.01368423 -0.01384361 1000 -0.01313199 -0.01350463 -0.01377076 -0.01368423 -0.01384361 1000
lala 16 0.3 0 first 2 1 288 5 4.65 0.319998025894165 -1 0 -1 0 -0.01402603 -0.0137187 -0.01383822 1000 1000 1000 -0.01402603 -0.0137187 -0.01383822 1000 1000 1000 -0.01497494 -0.01531959 -0.01542408 -0.01564136 -0.01577444 1000 -0.01497494 -0.01531959 -0.01542408 -0.01564136 -0.01577444 1000
lala 10 0.6 1 second 8 1 289 5 5.1 0.01999831199646 1 0 1 1 -0.01533977 -0.01553624 -0.01531973 -0.01524823 -0.01521065 1000 -0.01533977 -0.01553624 -0.01531973 -0.01524823 -0.01521065 1000 -0.01565328 -0.01623109 -0.01675499 -0.0167601 -0.01650961 1000 -0.01565328 -0.01623109 -0.01675499 -0.0167601 -0.01650961 1000
lala 18 2.4 1 second 4 1 290 6 9.18 0.159998178482056 -1 0 1 1 -0.01641438 -0.01650476 -0.01647685 -0.01634967 -0.01609489 1000 -0.01641438 -0.01650476 -0.01647685 -0.01634967 -0.01609489 1000 -0.01716205 -0.01752601 -0.01755992 -0.01784743 -0.0174956 1000 -0.01716205 -0.01752601 -0.01755992 -0.01784743 -0.0174956 1000
lala 17 0.3 0 first 2 1 291 5 4.95 0.079998254776001 -1 0 -1 1 -0.01725689 -0.01754742 -0.01687601 1000 1000 1000 -0.01725689 -0.01754742 -0.01687601 1000 1000 1000 -0.01732039 -0.0174183 -0.01752992 -0.01772753 -0.01766291 1000 -0.01732039 -0.0174183 -0.01752992 -0.01772753 -0.01766291 1000
lala 18 0.3 0 first 2 1 292 5 5.25 0.179998159408569 -1 0 -1 1 -0.01858065 -0.01817929 -0.01794836 1000 1000 1000 -0.01858065 -0.01817929 -0.01794836 1000 1000 1000 -0.01817459 -0.018167 -0.01813977 -0.01835372 -0.01821922 1000 -0.01817459 -0.018167 -0.01813977 -0.01835372 -0.01821922 1000
lala 11 0.6 0 first 8 1 293 5 4.5 0.0399982929229736 1 0 -1 0 -0.01875881 -0.01876101 -0.01854082 1000 1000 1000 -0.01875881 -0.01876101 -0.01854082 1000 1000 1000 -0.01894284 -0.01917171 -0.01937119 -0.01948643 -0.01938722 1000 -0.01894284 -0.01917171 -0.01937119 -0.01948643 -0.01938722 1000
lala 22 0.3 0 first 0 1 294 4 3.389999 0.199998140335083 -1 0 -1 0 -0.01995091 -0.02000995 -0.01980626 1000 1000 1000 -0.01995091 -0.02000995 -0.01980626 1000 1000 1000 -0.02148701 -0.02112744 -0.02098763 -0.02126344 -0.02098455 1000 -0.02148701 -0.02112744 -0.02098763 -0.02126344 -0.02098455 1000
lala 21 0.15 1 first 16 1 295 6 3.51 0.459997892379761 0 0 1 1 0.02293451 0.02015969 0.01741653 1000 1000 1000 0.02293451 0.02015969 0.01741653 1000 1000 1000 0.0210308 0.02097134 0.02022055 0.01988438 0.02004498 1000 0.0210308 0.02097134 0.02022055 0.01988438 0.02004498 1000
lala 13 0.6 0 second 5 1 296 6 4.980001 2.27999639511108 -1 1 -1 0 0.01079145 0.01070045 0.01078857 0.01100319 0.01114462 1000 0.01079145 0.01070045 0.01078857 0.01100319 0.01114462 1000 0.01042506 0.009937287 0.009876662 0.009653645 0.009857835 1000 0.01042506 0.009937287 0.009876662 0.009653645 0.009857835 1000
lala 19 1.2 1 first 4 1 297 6 7.98 0.559997797012329 -1 0 1 1 0.006013256 0.005454898 0.005766456 1000 1000 1000 0.006013256 0.005454898 0.005766456 1000 1000 1000 0.005519105 0.005577549 0.005279076 0.005088937 0.004656527 1000 0.005519105 0.005577549 0.005279076 0.005088937 0.004656527 1000
lala 17 0.15 0 first 3 1 298 5 6.05 1.57999682426453 -1 1 -1 1 0.006110967 0.005871645 0.00539989 1000 1000 1000 0.006110967 0.005871645 0.00539989 1000 1000 1000 0.00180331 -0.02042259 -0.02119663 -0.01669661 -0.01552507 1000 0.00180331 -0.02042259 -0.02119663 -0.01669661 -0.01552507 1000
lala 18 0.075 0 second 15 1 299 5 4.475 2.19999647140503 0 1 -1 0 -0.0183314 -0.01482869 -0.01533536 -0.007498437 -0.003461311 1000 -0.0183314 -0.01482869 -0.01533536 -0.007498437 -0.003461311 1000 0.02345211 0.02696513 0.03311279 0.03576457 0.02553774 1000 0.02345211 0.02696513 0.03311279 0.03576457 0.02553774 1000
lala 21 0.0046875 0 second 12 1 300 4 2.991563 0.279998064041138 0 0 -1 0 0.01742829 0.02203733 0.02396562 0.02414589 0.02459596 1000 0.01742829 0.02203733 0.02396562 0.02414589 0.02459596 1000 0.02501308 0.02380876 0.02270115 0.02111632 0.01862834 1000 0.02501308 0.02380876 0.02270115 0.02111632 0.01862834 1000
lala 20 1.2 1 first 4 1 301 6 6.780001 6.48001337051392 -1 0 1 1 0.00361228 0.002181114 0.00409673 1000 1000 1000 0.00361228 0.002181114 0.00409673 1000 1000 1000 -0.003461798 -0.004772223 -0.00552666 -0.006062732 -0.007002306 1000 -0.003461798 -0.004772223 -0.00552666 -0.006062732 -0.007002306 1000
lala 19 0.6 1 first 2 1 302 5 5.85 1.49999690055847 -1 0 1 0 0.007727388 0.001547905 -0.001682271 1000 1000 1000 0.007727388 0.001547905 -0.001682271 1000 1000 1000 0.02039741 0.0198252 0.01867235 0.0188767 0.01894107 1000 0.02039741 0.0198252 0.01867235 0.0188767 0.01894107 1000
lala 19 0.0375 1 second 15 1 303 5 4.5125 0.01999831199646 0 1 1 1 -0.0011339 -0.001471137 -0.001607846 -0.001814843 -0.002623428 1000 -0.0011339 -0.001471137 -0.001607846 -0.001814843 -0.002623428 1000 -0.004036442 -0.003809532 -0.00355188 -0.003541029 -0.003706467 1000 -0.004036442 -0.003809532 -0.00355188 -0.003541029 -0.003706467 1000
lala 18 0.3 1 first 1 1 304 4 3.519999 0.339998006820679 -1 1 1 1 -0.003682239 -0.003737742 -0.003874627 1000 1000 1000 -0.003682239 -0.003737742 -0.003874627 1000 1000 1000 -0.006531434 -0.006675925 -0.00682777 -0.006691348 -0.00711535 1000 -0.006531434 -0.006675925 -0.00682777 -0.006691348 -0.00711535 1000
lala 22 0.3 0 second 16 1 305 6 3.21 0.279998064041138 0 0 -1 1 -0.01020965 -0.01004639 -0.01009592 -0.01022873 -0.01041721 1000 -0.01020965 -0.01004639 -0.01009592 -0.01022873 -0.01041721 1000 -0.0117049 -0.01172529 -0.01162643 -0.01274417 -0.01249453 1000 -0.0117049 -0.01172529 -0.01162643 -0.01274417 -0.01249453 1000
lala 20 0.3 0 first 2 1 306 5 5.55 1.55999684333801 -1 0 -1 1 -0.001014976 -0.0006904173 0.001206389 1000 1000 1000 -0.001014976 -0.0006904173 0.001206389 1000 1000 1000 0.005877205 0.008675308 0.009317355 0.007763959 0.0061228 1000 0.005877205 0.008675308 0.009317355 0.007763959 0.0061228 1000
lala 15 0.6 1 second 7 1 307 4 4.119999 0.259998083114624 1 1 1 1 0.006543044 0.007557806 0.008132106 0.008075383 0.006729987 1000 0.006543044 0.007557806 0.008132106 0.008075383 0.006729987 1000 -0.001744019 -0.002788602 -0.003417859 -0.002818748 -0.002822918 1000 -0.001744019 -0.002788602 -0.003417859 -0.002818748 -0.002822918 1000
lala 23 0.3 1 second 0 1 308 4 3.689999 0.199998140335083 -1 0 1 0 -0.004196135 -0.005069824 -0.005184687 -0.005113249 -0.005240506 1000 -0.004196135 -0.005069824 -0.005184687 -0.005113249 -0.005240506 1000 -0.004504316 -0.004462104 -0.004870843 -0.004812261 -0.004754049 1000 -0.004504316 -0.004462104 -0.004870843 -0.004812261 -0.004754049 1000
lala 17 0.6 0 second 11 1 309 6 5.73 0.079998254776001 1 1 -1 1 -0.006845334 -0.00684308 -0.006521476 -0.006363076 -0.006588653 1000 -0.006845334 -0.00684308 -0.006521476 -0.006363076 -0.006588653 1000 -0.007297616 -0.007290544 -0.007053059 -0.007146952 -0.007196155 1000 -0.007297616 -0.007290544 -0.007053059 -0.007146952 -0.007196155 1000
lala 14 0.3 0 second 5 1 310 6 5.280001 3.79999494552612 -1 1 -1 1 -0.008442585 -0.008206096 -0.008250354 -0.008244163 -0.008636239 1000 -0.008442585 -0.008206096 -0.008250354 -0.008244163 -0.008636239 1000 -0.01016043 -0.01059086 -0.01056935 -0.01031616 -0.01067131 1000 -0.01016043 -0.01059086 -0.01056935 -0.01031616 -0.01067131 1000
lala 24 0.15 1 second 0 1 311 4 3.539999 0.01999831199646 -1 0 1 0 -0.01024243 -0.01051652 -0.01015865 -0.009722615 -0.009570451 1000 -0.01024243 -0.01051652 -0.01015865 -0.009722615 -0.009570451 1000 -0.009868254 -0.01012779 -0.009869969 -0.0103473 -0.009982309 1000 -0.009868254 -0.01012779 -0.009869969 -0.0103473 -0.009982309 1000
lala 17 0.075 0 second 6 1 312 4 3.615 0.359997987747192 1 0 -1 1 -0.01014677 -0.01046614 -0.01053079 -0.01054851 -0.01110431 1000 -0.01014677 -0.01046614 -0.01053079 -0.01054851 -0.01110431 1000 -0.0114676 -0.01138856 -0.01157581 -0.01170667 -0.01173411 1000 -0.0114676 -0.01138856 -0.01157581 -0.01170667 -0.01173411 1000
lala 15 2.4 0 first 17 1 313 6 1.98 0.179998159408569 0 1 -1 1 -0.01182214 -0.01149422 -0.01109597 1000 1000 1000 -0.01182214 -0.01149422 -0.01109597 1000 1000 1000 -0.01187407 -0.0120027 -0.01218938 -0.01238455 -0.01255707 1000 -0.01187407 -0.0120027 -0.01218938 -0.01238455 -0.01255707 1000
lala 21 1.2 0 first 4 1 314 6 5.580001 0.23999810218811 -1 0 -1 0 -0.01271656 -0.01235629 -0.01207682 1000 1000 1000 -0.01271656 -0.01235629 -0.01207682 1000 1000 1000 -0.01289119 -0.01282701 -0.01281739 -0.01281099 -0.01271972 1000 -0.01289119 -0.01282701 -0.01281739 -0.01281099 -0.01271972 1000
lala 12 0.3 0 second 8 1 315 5 4.8 0.01999831199646 1 0 -1 1 -0.01357017 -0.01356127 -0.01359834 -0.01354938 -0.0135318 1000 -0.01357017 -0.01356127 -0.01359834 -0.01354938 -0.0135318 1000 -0.0139544 -0.0138585 -0.01356272 -0.01362712 -0.01409018 1000 -0.0139544 -0.0138585 -0.01356272 -0.01362712 -0.01409018 1000
lala 16 0.6 1 second 10 1 316 6 5.16 0.0399982929229736 1 0 1 1 -0.01464082 -0.01453413 -0.01449 -0.01450646 -0.01454764 1000 -0.01464082 -0.01453413 -0.01449 -0.01450646 -0.01454764 1000 -0.01455963 -0.01473936 -0.01477693 -0.01476815 -0.01478915 1000 -0.01455963 -0.01473936 -0.01477693 -0.01476815 -0.01478915 1000
lala 16 0.6 0 second 7 1 317 4 3.52 0.119998216629028 1 1 -1 0 -0.01519913 -0.01531955 -0.01536072 -0.01530913 -0.01520744 1000 -0.01519913 -0.01531955 -0.01536072 -0.01530913 -0.01520744 1000 -0.01523971 -0.01542343 -0.01527577 -0.01551482 -0.01535181 1000 -0.01523971 -0.01542343 -0.01527577 -0.01551482 -0.01535181 1000
lala 17 0.3 0 second 7 1 318 4 3.819999 0.359997987747192 1 1 -1 0 -0.01591888 -0.01574131 -0.01571276 -0.0158297 -0.01549403 1000 -0.01591888 -0.01574131 -0.01571276 -0.0158297 -0.01549403 1000 -0.01577833 -0.0162552 -0.01598516 -0.01609011 -0.01612493 1000 -0.01577833 -0.0162552 -0.01598516 -0.01609011 -0.01612493 1000
lala 22 0.6 0 second 4 1 319 6 6.180001 2.2999963760376 -1 0 -1 1 -0.01607908 -0.01579067 -0.01539327 -0.01565093 -0.0158673 1000 -0.01607908 -0.01579067 -0.01539327 -0.01565093 -0.0158673 1000 -0.01580269 -0.01601452 -0.01614942 -0.01630156 -0.01610829 1000 -0.01580269 -0.01601452 -0.01614942 -0.01630156 -0.01610829 1000
lala 23 0.15 1 second 16 1 320 6 3.36 0.159998178482056 0 0 1 0 -0.01677332 -0.01674414 -0.01679665 -0.01700691 -0.0171076 1000 -0.01677332 -0.01674414 -0.01679665 -0.01700691 -0.0171076 1000 -0.01704583 -0.01685312 -0.01686429 -0.01700331 -0.01702069 1000 -0.01704583 -0.01685312 -0.01686429 -0.01700331 -0.01702069 1000
lala 15 0.3 0 first 5 1 321 6 5.580001 0.219998121261597 -1 1 -1 1 -0.01653977 -0.01684943 -0.01693203 1000 1000 1000 -0.01653977 -0.01684943 -0.01693203 1000 1000 1000 -0.01664428 -0.01663947 -0.01693346 -0.01699361 -0.01751093 1000 -0.01664428 -0.01663947 -0.01693346 -0.01699361 -0.01751093 1000
lala 19 0.15 0 second 1 1 322 4 3.369999 0.279998064041138 -1 1 -1 0 -0.0175478 -0.01770134 -0.01769727 -0.0173119 -0.01734794 1000 -0.0175478 -0.01770134 -0.01769727 -0.0173119 -0.01734794 1000 -0.01767702 -0.01758788 -0.01770118 -0.01759304 -0.01752459 1000 -0.01767702 -0.01758788 -0.01770118 -0.01759304 -0.01752459 1000
lala 12 0.15 1 second 9 1 323 5 6.200001 0.319998025894165 1 1 1 0 -0.01802661 -0.01776796 -0.01801163 -0.01797229 -0.01797386 1000 -0.01802661 -0.01776796 -0.01801163 -0.01797229 -0.01797386 1000 -0.0183943 -0.01829042 -0.01814051 -0.01816949 -0.01853223 1000 -0.0183943 -0.01829042 -0.01814051 -0.01816949 -0.01853223 1000
