subject PestNr Step_Size_OnTrial Pest_Faster Pest_Interval Condition block trial velH velH_Pest Reaction_Time velH_Subject Start_Above Response_MotionEstimation RightOrLeftxRotations_first0 xRotations_first1 xRotations_first2 xRotations_first3 xRotations_first4 xRotations_first5 yRotations_first0 yRotations_first1 yRotations_first2 yRotations_first3 yRotations_first4 yRotations_first5 xRotations_second0 xRotations_second1 xRotations_second2 xRotations_second3 xRotations_second4 xRotations_second5 yRotations_second0 yRotations_second1 yRotations_second2 yRotations_second3 yRotations_second4 yRotations_second5
lala 1 1.2 1 first 4 1 1 6 3.96 2.13999652862549 -1 0 1 0 -0.005378536 -0.005569977 -0.00127987 0.001440191 0.005593078 0.007865815 -0.005378536 -0.005569977 -0.00127987 0.001440191 0.005593078 0.007865815 0.01691943 0.01780822 0.01861426 0.01946912 0.02044468 1000 0.01691943 0.01780822 0.01861426 0.01946912 0.02044468 1000
lala 1 1.2 1 second 8 1 2 5 3.3 0.979997396469116 1 0 1 1 0.02309361 0.02266239 0.0224254 0.02211994 0.02234596 1000 0.02309361 0.02266239 0.0224254 0.02211994 0.02234596 1000 0.0239532 0.02444433 0.0258124 0.02620592 0.02724365 1000 0.0239532 0.02444433 0.0258124 0.02620592 0.02724365 1000
lala 1 1.2 0 second 0 1 3 4 2.64 0.979997396469116 -1 0 -1 1 0.01521805 0.01452796 0.01478693 0.01582418 0.01631552 1000 0.01521805 0.01452796 0.01478693 0.01582418 0.01631552 1000 0.01627731 0.01588739 0.01628198 0.0164883 0.0171577 1000 0.01627731 0.01588739 0.01628198 0.0164883 0.0171577 1000
lala 2 1.2 0 second 8 1 4 5 2.1 0.679997682571411 1 0 -1 0 0.01952463 0.01990165 0.02028212 0.02097416 0.02137364 1000 0.01952463 0.01990165 0.02028212 0.02097416 0.02137364 1000 0.02129445 0.0210952 0.02017907 0.02084633 0.02132866 1000 0.02129445 0.0210952 0.02017907 0.02084633 0.02132866 1000
lala 1 1.2 0 second 12 1 5 4 2.64 0.979997396469116 0 0 -1 1 0.02284035 0.02307053 0.02334787 0.02366496 0.02401156 1000 0.02284035 0.02307053 0.02334787 0.02366496 0.02401156 1000 0.0233578 0.02367825 0.02437638 0.02418927 0.02431011 1000 0.0233578 0.02367825 0.02437638 0.02418927 0.02431011 1000
lala 1 1.2 1 first 11 1 6 6 7.98 0.639997720718384 1 1 1 1 0.01157494 0.0001638345 -0.006270665 1000 1000 1000 0.01157494 0.0001638345 -0.006270665 1000 1000 1000 -0.004087824 -0.003896469 -0.003806401 -0.002639828 -0.0009658855 1000 -0.004087824 -0.003896469 -0.003806401 -0.002639828 -0.0009658855 1000
lala 1 1.2 1 second 3 1 7 5 6.65 0.519997835159302 -1 1 1 1 0.006139565 0.007007793 0.006730829 0.006427189 0.006397343 1000 0.006139565 0.007007793 0.006730829 0.006427189 0.006397343 1000 0.007130108 0.008800729 0.008738169 0.008782148 0.008999109 1000 0.007130108 0.008800729 0.008738169 0.008782148 0.008999109 1000
lala 2 1.2 0 second 4 1 8 6 2.76 0.879997491836548 -1 0 -1 1 0.01041331 0.009458368 0.009769366 0.009942588 0.01007229 1000 0.01041331 0.009458368 0.009769366 0.009942588 0.01007229 1000 0.009730293 0.01025144 0.01121263 0.01175657 0.01239504 1000 0.009730293 0.01025144 0.01121263 0.01175657 0.01239504 1000
lala 1 1.2 1 first 7 1 9 4 5.32 0.699997663497925 1 1 1 1 0.0135048 0.01359977 0.01373548 1000 1000 1000 0.0135048 0.01359977 0.01373548 1000 1000 1000 0.01421261 0.01440137 0.01473673 0.01504475 0.01581014 1000 0.01421261 0.01440137 0.01473673 0.01504475 0.01581014 1000
lala 1 1.2 1 first 17 1 10 6 7.98 0.779997587203979 0 1 1 0 0.01714968 0.01735587 0.01824062 1000 1000 1000 0.01714968 0.01735587 0.01824062 1000 1000 1000 0.01817159 0.01786191 0.01842104 0.01917012 0.01998449 1000 0.01817159 0.01786191 0.01842104 0.01917012 0.01998449 1000
lala 1 1.2 0 second 14 1 11 5 3.3 1.37999701499939 0 0 -1 0 0.0211103 0.02038492 0.02059192 0.02079619 0.02056906 1000 0.0211103 0.02038492 0.02059192 0.02079619 0.02056906 1000 0.02074675 0.0211491 0.02156347 0.02245818 0.02195618 1000 0.02074675 0.0211491 0.02156347 0.02245818 0.02195618 1000
lala 1 1.2 0 second 6 1 12 4 2.64 1.33999705314636 1 0 -1 1 0.02240164 0.02236722 0.02172726 0.02206689 0.02268807 1000 0.02240164 0.02236722 0.02172726 0.02206689 0.02268807 1000 0.02464245 0.02420614 0.02428234 0.02460543 0.02475456 1000 0.02464245 0.02420614 0.02428234 0.02460543 0.02475456 1000
lala 2 1.2 0 second 12 1 13 4 3.84 2.159996509552 0 0 -1 0 0.006479969 0.005256261 0.005131225 0.006658255 0.005066893 1000 0.006479969 0.005256261 0.005131225 0.006658255 0.005066893 1000 0.009759255 0.009610743 0.009971684 0.009338536 0.01006383 1000 0.009759255 0.009610743 0.009971684 0.009338536 0.01006383 1000
lala 2 1.2 1 second 14 1 14 5 4.5 2.43999624252319 0 0 1 1 0.01380335 0.01363019 0.01337191 0.01423955 0.01474466 1000 0.01380335 0.01363019 0.01337191 0.01423955 0.01474466 1000 0.01516912 0.01524003 0.01551081 0.01596261 0.01509741 1000 0.01516912 0.01524003 0.01551081 0.01596261 0.01509741 1000
lala 3 1.2 1 first 14 1 15 5 3.3 1.93999671936035 0 0 1 1 0.01794681 0.01743336 0.01683003 1000 1000 1000 0.01794681 0.01743336 0.01683003 1000 1000 1000 0.02007141 0.01928312 0.01993102 0.02016296 0.02048243 1000 0.02007141 0.01928312 0.01993102 0.02016296 0.02048243 1000
lala 2 1.2 1 first 3 1 16 5 5.45 1.23999714851379 -1 1 1 0 0.0217352 0.0216838 0.02146923 1000 1000 1000 0.0217352 0.0216838 0.02146923 1000 1000 1000 0.02237073 0.02193249 0.02125406 0.02198949 0.02216394 1000 0.02237073 0.02193249 0.02125406 0.02198949 0.02216394 1000
lala 2 1.2 0 first 0 1 17 4 3.84 1.91999673843384 -1 0 -1 1 0.02430128 0.02410501 0.02433479 1000 1000 1000 0.02430128 0.02410501 0.02433479 1000 1000 1000 0.02462004 0.02462542 0.02459725 0.02462091 0.02508276 1000 0.02462004 0.02462542 0.02459725 0.02462091 0.02508276 1000
lala 3 1.2 1 first 12 1 18 4 5.04 1.31999707221985 0 0 1 0 0.01369422 0.01228039 0.01244023 1000 1000 1000 0.01369422 0.01228039 0.01244023 1000 1000 1000 0.01339192 0.01146032 0.009002254 0.006397999 0.005731816 1000 0.01339192 0.01146032 0.009002254 0.006397999 0.005731816 1000
lala 1 1.2 1 second 1 1 19 4 5.32 2.61999607086182 -1 1 1 0 -0.01966796 -0.02170086 -0.02439912 -0.02487628 -0.0287324 1000 -0.01966796 -0.02170086 -0.02439912 -0.02487628 -0.0287324 1000 0.004114562 0.01988575 0.0237478 0.02053211 0.01695898 1000 0.004114562 0.01988575 0.0237478 0.02053211 0.01695898 1000
lala 3 1.2 1 first 3 1 20 5 4.25 0.839997529983521 -1 1 1 1 0.01043722 0.008063434 0.007047505 1000 1000 1000 0.01043722 0.008063434 0.007047505 1000 1000 1000 0.01050027 0.01043637 0.01114076 0.01157811 0.01206143 1000 0.01050027 0.01043637 0.01114076 0.01157811 0.01206143 1000
lala 2 1.2 0 second 1 1 21 4 4.12 3.55999517440796 -1 1 -1 1 0.01029995 0.009969657 0.009154008 0.009455928 0.00952106 1000 0.01029995 0.009969657 0.009154008 0.009455928 0.00952106 1000 0.01084561 0.01099125 0.01091603 0.01143792 0.01093529 1000 0.01084561 0.01099125 0.01091603 0.01143792 0.01093529 1000
lala 1 1.2 1 first 10 1 22 6 3.96 1.15999722480774 1 0 1 1 0.01261188 0.01325456 0.01321018 1000 1000 1000 0.01261188 0.01325456 0.01321018 1000 1000 1000 0.01324873 0.01308602 0.01352875 0.01339475 0.01319805 1000 0.01324873 0.01308602 0.01352875 0.01339475 0.01319805 1000
lala 1 1.2 0 first 16 1 23 6 3.96 0.979997396469116 0 0 -1 1 0.01250181 0.01177789 0.01252985 1000 1000 1000 0.01250181 0.01177789 0.01252985 1000 1000 1000 0.01517312 0.01470931 0.01487007 0.0148889 0.01483639 1000 0.01517312 0.01470931 0.01487007 0.0148889 0.01483639 1000
lala 4 1.2 0 first 14 1 24 5 2.1 0.759997606277466 0 0 -1 0 0.01255992 0.01207937 0.01302016 1000 1000 1000 0.01255992 0.01207937 0.01302016 1000 1000 1000 0.01190775 0.01180581 0.01198458 0.01149575 0.01142702 1000 0.01190775 0.01180581 0.01198458 0.01149575 0.01142702 1000
lala 2 1.2 1 second 17 1 25 6 6.780001 0.659997701644897 0 1 1 1 0.006050438 0.006547845 0.007469611 0.008136441 0.008589941 1000 0.006050438 0.006547845 0.007469611 0.008136441 0.008589941 1000 0.009665114 0.009713325 0.01024273 0.009616259 0.009699954 1000 0.009665114 0.009713325 0.01024273 0.009616259 0.009699954 1000
lala 2 1.2 0 second 7 1 26 4 4.12 0.919997453689575 1 1 -1 0 0.0121478 0.01182856 0.01258874 0.01271541 0.01281154 1000 0.0121478 0.01182856 0.01258874 0.01271541 0.01281154 1000 0.01283398 0.01314868 0.01369359 0.0141204 0.01400356 1000 0.01283398 0.01314868 0.01369359 0.0141204 0.01400356 1000
lala 1 1.2 1 first 9 1 27 5 6.65 1.13999724388123 1 1 1 0 0.01358501 0.01420282 0.01460314 1000 1000 1000 0.01358501 0.01420282 0.01460314 1000 1000 1000 0.01497325 0.01462702 0.01469266 0.01367857 0.01364102 1000 0.01497325 0.01462702 0.01469266 0.01367857 0.01364102 1000
lala 2 1.2 0 second 10 1 28 6 2.76 1.17999720573425 1 0 -1 1 0.01605844 0.01553716 0.01610032 0.01659437 0.01656043 1000 0.01605844 0.01553716 0.01610032 0.01659437 0.01656043 1000 0.01525279 0.01494767 0.01563764 0.01598607 0.01593177 1000 0.01525279 0.01494767 0.01563764 0.01598607 0.01593177 1000
lala 4 1.2 0 second 3 1 29 5 3.05 1.33999705314636 -1 1 -1 0 0.01651257 0.01585178 0.01610258 0.01509628 0.01516502 1000 0.01651257 0.01585178 0.01610258 0.01509628 0.01516502 1000 0.01555246 0.01590087 0.01624516 0.01678419 0.01700185 1000 0.01555246 0.01590087 0.01624516 0.01678419 0.01700185 1000
lala 5 1.2 1 first 14 1 30 5 3.3 1.43999695777893 0 0 1 1 0.01793082 0.01707479 0.01723762 1000 1000 1000 0.01793082 0.01707479 0.01723762 1000 1000 1000 0.01946649 0.01899851 0.01903109 0.01941648 0.01912388 1000 0.01946649 0.01899851 0.01903109 0.01941648 0.01912388 1000
lala 3 1.2 1 second 1 1 31 4 5.32 1.67999696731567 -1 1 1 0 0.02031151 0.02048034 0.02040688 0.02038295 0.02068206 1000 0.02031151 0.02048034 0.02040688 0.02038295 0.02068206 1000 0.02029937 0.01965937 0.02004889 0.02030263 0.02006013 1000 0.02029937 0.01965937 0.02004889 0.02030263 0.02006013 1000
lala 3 1.2 1 second 17 1 32 6 5.580001 1.77999687194824 0 1 1 1 0.02127147 0.02117513 0.02115224 0.02042115 0.02087777 1000 0.02127147 0.02117513 0.02115224 0.02042115 0.02087777 1000 0.01937937 0.02000051 0.02038221 0.02051868 0.02027529 1000 0.01937937 0.02000051 0.02038221 0.02051868 0.02027529 1000
lala 3 1.2 1 second 7 1 33 4 5.32 2.89999580383301 1 1 1 0 0.01944325 0.01856264 0.019135 0.01908885 0.01898253 1000 0.01944325 0.01856264 0.019135 0.01908885 0.01898253 1000 0.02108263 0.02104837 0.0212862 0.02081287 0.02104765 1000 0.02108263 0.02104837 0.0212862 0.02081287 0.02104765 1000
lala 6 1.2 0 first 14 1 34 5 2.1 0.519997835159302 0 0 -1 0 0.02095973 0.02088585 0.02100577 1000 1000 1000 0.02095973 0.02088585 0.02100577 1000 1000 1000 0.02026175 0.02067898 0.02111028 0.02018122 0.02053285 1000 0.02026175 0.02067898 0.02111028 0.02018122 0.02053285 1000
lala 4 1.2 1 second 7 1 35 4 4.12 2.93999576568604 1 1 1 1 0.022984 0.02183407 0.02199425 0.02286836 0.02290774 1000 0.022984 0.02183407 0.02199425 0.02286836 0.02290774 1000 0.020715 0.02049859 0.02047202 0.02047047 0.02092815 1000 0.020715 0.02049859 0.02047202 0.02047047 0.02092815 1000
lala 1 1.2 1 first 15 1 36 5 6.65 0.699997663497925 0 1 1 0 0.02246098 0.02200232 0.02141597 1000 1000 1000 0.02246098 0.02200232 0.02141597 1000 1000 1000 0.02276811 0.02208545 0.02281759 0.02323453 0.02308795 1000 0.02276811 0.02208545 0.02281759 0.02323453 0.02308795 1000
lala 5 1.2 0 second 7 1 37 4 2.92 0.819997549057007 1 1 -1 0 0.02293692 0.02322734 0.02312508 0.02327698 0.02252442 1000 0.02293692 0.02322734 0.02312508 0.02327698 0.02252442 1000 0.02228952 0.02273871 0.02273609 0.02282212 0.02270314 1000 0.02228952 0.02273871 0.02273609 0.02282212 0.02270314 1000
lala 1 1.2 1 first 5 1 38 6 7.98 1.21999716758728 -1 1 1 0 0.02375385 0.02404543 0.02370481 1000 1000 1000 0.02375385 0.02404543 0.02370481 1000 1000 1000 0.02268989 0.02294632 0.02254317 0.02226664 0.02232599 1000 0.02268989 0.02294632 0.02254317 0.02226664 0.02232599 1000
lala 4 1.2 0 first 1 1 39 4 4.12 0.99999737739563 -1 1 -1 0 0.02532268 0.02453931 0.02462094 1000 1000 1000 0.02532268 0.02453931 0.02462094 1000 1000 1000 0.01552484 0.01743659 0.01728756 0.01786109 0.01807601 1000 0.01552484 0.01743659 0.01728756 0.01786109 0.01807601 1000
lala 1 1.2 0 second 2 1 40 5 3.3 0.599997758865356 -1 0 -1 0 0.02069753 0.02099384 0.02070203 0.02036955 0.02098208 1000 0.02069753 0.02099384 0.02070203 0.02036955 0.02098208 1000 0.02083533 0.02110603 0.02151154 0.02138899 0.02168532 1000 0.02083533 0.02110603 0.02151154 0.02138899 0.02168532 1000
lala 1 1.2 1 first 13 1 41 4 5.32 0.499997854232788 0 1 1 0 0.02184501 0.02174458 0.0218423 1000 1000 1000 0.02184501 0.02174458 0.0218423 1000 1000 1000 0.02160634 0.02169024 0.02194204 0.02224684 0.02209929 1000 0.02160634 0.02169024 0.02194204 0.02224684 0.02209929 1000
lala 3 1.2 1 first 10 1 42 6 3.96 2.01999664306641 1 0 1 0 0.02308558 0.02339006 0.02340848 1000 1000 1000 0.02308558 0.02339006 0.02340848 1000 1000 1000 0.02276122 0.02299943 0.02287782 0.02314288 0.0236425 1000 0.02276122 0.02299943 0.02287782 0.02314288 0.0236425 1000
lala 2 1.2 0 first 6 1 43 4 3.84 1.03999733924866 1 0 -1 0 0.02292894 0.02154529 0.02120163 1000 1000 1000 0.02292894 0.02154529 0.02120163 1000 1000 1000 0.02285627 0.02365506 0.02406175 0.02396852 0.02424374 1000 0.02285627 0.02365506 0.02406175 0.02396852 0.02424374 1000
lala 5 1.2 1 second 3 1 44 5 4.25 2.11999654769897 -1 1 1 0 0.02422031 0.02500092 0.02492169 0.02468577 0.02474751 1000 0.02422031 0.02500092 0.02492169 0.02468577 0.02474751 1000 0.01957182 0.01892527 0.01838178 0.01857276 0.01904953 1000 0.01957182 0.01892527 0.01838178 0.01857276 0.01904953 1000
lala 3 1.2 0 second 8 1 45 5 3.3 0.779997587203979 1 0 -1 0 0.02137171 0.02216366 0.02234099 0.02220314 0.02176343 1000 0.02137171 0.02216366 0.02234099 0.02220314 0.02176343 1000 0.02230099 0.02204151 0.02237139 0.02222906 0.02222452 1000 0.02230099 0.02204151 0.02237139 0.02222906 0.02222452 1000
lala 3 1.2 0 first 0 1 46 4 5.04 3.15999555587769 -1 0 -1 1 0.02387411 0.02378105 0.02409136 1000 1000 1000 0.02387411 0.02378105 0.02409136 1000 1000 1000 0.02268472 0.02290478 0.02240553 0.02281329 0.02359148 1000 0.02268472 0.02290478 0.02240553 0.02281329 0.02359148 1000
lala 6 1.2 1 second 7 1 47 4 4.12 2.93999576568604 1 1 1 1 0.02312732 0.02312324 0.0228494 0.02314792 0.02293098 1000 0.02312732 0.02312324 0.0228494 0.02314792 0.02293098 1000 0.02224692 0.02200915 0.02283884 0.02281868 0.02270845 1000 0.02224692 0.02200915 0.02283884 0.02281868 0.02270845 1000
lala 2 1.2 1 second 5 1 48 6 6.780001 1.25999712944031 -1 1 1 0 0.02390058 0.02411554 0.02453268 0.02398168 0.02353194 1000 0.02390058 0.02411554 0.02453268 0.02398168 0.02353194 1000 0.02400573 0.02388699 0.02354952 0.02354848 0.02320933 1000 0.02400573 0.02388699 0.02354952 0.02354848 0.02320933 1000
lala 2 1.2 1 second 13 1 49 4 4.12 2.2999963760376 0 1 1 1 0.02482005 0.02491832 0.02499153 0.02455688 0.02387214 1000 0.02482005 0.02491832 0.02499153 0.02455688 0.02387214 1000 0.01815952 0.0181723 0.0184778 0.01913514 0.01977017 1000 0.01815952 0.0181723 0.0184778 0.01913514 0.01977017 1000
lala 7 1.2 0 second 14 1 50 5 3.3 2.21999645233154 0 0 -1 1 0.02013753 0.02045215 0.02074142 0.02102114 0.02103206 1000 0.02013753 0.02045215 0.02074142 0.02102114 0.02103206 1000 0.0211314 0.0212041 0.02159299 0.02157871 0.02132243 1000 0.0211314 0.0212041 0.02159299 0.02157871 0.02132243 1000
lala 3 1.2 1 second 5 1 51 6 5.580001 2.67999601364136 -1 1 1 1 0.02353437 0.02357151 0.02336706 0.02340563 0.02191734 1000 0.02353437 0.02357151 0.02336706 0.02340563 0.02191734 1000 0.02137879 0.02146082 0.02225159 0.02267592 0.0226897 1000 0.02137879 0.02146082 0.02225159 0.02267592 0.0226897 1000
lala 4 1.2 0 second 12 1 52 4 3.84 1.25999712944031 0 0 -1 0 0.02328254 0.02320894 0.02387895 0.02417853 0.02400926 1000 0.02328254 0.02320894 0.02387895 0.02417853 0.02400926 1000 0.02380345 0.02393197 0.02357155 0.02383261 0.02265331 1000 0.02380345 0.02393197 0.02357155 0.02383261 0.02265331 1000
lala 2 1.2 1 second 2 1 53 5 4.5 2.05999660491943 -1 0 1 1 0.02421652 0.02453682 0.02341194 0.02383821 0.0246649 1000 0.02421652 0.02453682 0.02341194 0.02383821 0.0246649 1000 0.0230429 0.02334363 0.02341549 0.02313524 0.02346478 1000 0.0230429 0.02334363 0.02341549 0.02313524 0.02346478 1000
lala 4 1.2 0 first 5 1 54 6 4.380001 3.57999515533447 -1 1 -1 1 0.01797372 0.01730041 0.01767537 1000 1000 1000 0.01797372 0.01730041 0.01767537 1000 1000 1000 0.02135873 0.0209473 0.0210365 0.02161863 0.02180509 1000 0.02135873 0.0209473 0.0210365 0.02161863 0.02180509 1000
lala 8 1.2 1 first 14 1 55 5 4.5 1.61999702453613 0 0 1 1 0.0204628 0.02033803 0.02018802 1000 1000 1000 0.0204628 0.02033803 0.02018802 1000 1000 1000 0.02201635 0.02198942 0.02183351 0.02166518 0.02121918 1000 0.02201635 0.02198942 0.02183351 0.02166518 0.02121918 1000
lala 7 1.2 1 first 7 1 56 4 2.92 1.19999718666077 1 1 1 1 0.02091951 0.02041284 0.02094076 1000 1000 1000 0.02091951 0.02041284 0.02094076 1000 1000 1000 0.02156941 0.02199742 0.02216586 0.02197616 0.02199287 1000 0.02156941 0.02199742 0.02216586 0.02197616 0.02199287 1000
lala 6 1.2 0 first 3 1 57 5 3.05 3.83999490737915 -1 1 -1 1 0.02255921 0.02193699 0.02193497 1000 1000 1000 0.02255921 0.02193699 0.02193497 1000 1000 1000 0.02298188 0.02240221 0.02159698 0.02238212 0.02265837 1000 0.02298188 0.02240221 0.02159698 0.02238212 0.02265837 1000
lala 8 1.2 0 first 7 1 58 4 1.72 1.33999705314636 1 1 -1 0 0.02169184 0.02062705 0.0205478 1000 1000 1000 0.02169184 0.02062705 0.0205478 1000 1000 1000 0.0218563 0.02256929 0.02220418 0.02196465 0.0223273 1000 0.0218563 0.02256929 0.02220418 0.02196465 0.0223273 1000
lala 2 1.2 1 first 15 1 59 5 5.45 4.37999439239502 0 1 1 1 0.02256765 0.02205282 0.02263982 1000 1000 1000 0.02256765 0.02205282 0.02263982 1000 1000 1000 0.0218266 0.02230722 0.02272919 0.02278621 0.02308475 1000 0.0218266 0.02230722 0.02272919 0.02278621 0.02308475 1000
lala 2 1.2 1 second 9 1 60 5 5.45 2.61999607086182 1 1 1 1 0.02387829 0.02447652 0.02448936 0.02431253 0.02437197 1000 0.02387829 0.02447652 0.02448936 0.02431253 0.02437197 1000 0.02474304 0.02424906 0.02497455 0.0259058 0.02606373 1000 0.02474304 0.02424906 0.02497455 0.0259058 0.02606373 1000
lala 3 1.2 1 first 13 1 61 4 2.92 2.19999647140503 0 1 1 0 0.02350983 0.02362058 0.02354483 1000 1000 1000 0.02350983 0.02362058 0.02354483 1000 1000 1000 0.02231462 0.02179803 0.02213138 0.02177547 0.0221003 1000 0.02231462 0.02179803 0.02213138 0.02177547 0.0221003 1000
lala 4 1.2 0 first 10 1 62 6 2.76 0.679997682571411 1 0 -1 0 0.020887 0.02101157 0.02057533 1000 1000 1000 0.020887 0.02101157 0.02057533 1000 1000 1000 0.02253002 0.02261511 0.02266377 0.02312667 0.02232572 1000 0.02253002 0.02261511 0.02266377 0.02312667 0.02232572 1000
lala 3 1.2 1 first 6 1 63 4 5.04 0.439997911453247 1 0 1 1 0.02176411 0.02154765 0.021216 1000 1000 1000 0.02176411 0.02154765 0.021216 1000 1000 1000 0.02337955 0.0232124 0.02325356 0.02319906 0.02289971 1000 0.02337955 0.0232124 0.02325356 0.02319906 0.02289971 1000
lala 3 1.2 0 second 9 1 64 5 4.25 0.879997491836548 1 1 -1 0 0.02186449 0.02208068 0.02170966 0.02183858 0.02238077 1000 0.02186449 0.02208068 0.02170966 0.02183858 0.02238077 1000 0.02369457 0.02343052 0.02335591 0.02352106 0.02352789 1000 0.02369457 0.02343052 0.02335591 0.02352106 0.02352789 1000
lala 3 1.2 0 first 4 1 65 6 3.96 0.439997911453247 -1 0 -1 0 0.02285939 0.02293011 0.02312483 1000 1000 1000 0.02285939 0.02293011 0.02312483 1000 1000 1000 0.0241692 0.02446141 0.02360271 0.02417559 0.0244965 1000 0.0241692 0.02446141 0.02360271 0.02417559 0.0244965 1000
lala 4 1.2 1 second 8 1 66 5 4.5 0.39999794960022 1 0 1 1 0.02374626 0.0234225 0.02241015 0.02246345 0.02235303 1000 0.02374626 0.0234225 0.02241015 0.02246345 0.02235303 1000 0.024568 0.02467709 0.02495539 0.02513582 0.02547458 1000 0.024568 0.02467709 0.02495539 0.02513582 0.02547458 1000
lala 4 1.2 1 first 17 1 67 6 4.380001 1.43999695777893 0 1 1 1 0.02219699 0.01771688 0.01640395 1000 1000 1000 0.02219699 0.01771688 0.01640395 1000 1000 1000 0.008295973 0.009446959 0.01070032 0.01120581 0.01157717 1000 0.008295973 0.009446959 0.01070032 0.01120581 0.01157717 1000
lala 3 1.2 0 first 2 1 68 5 3.3 0.499997854232788 -1 0 -1 1 0.01378141 0.01336246 0.01405429 1000 1000 1000 0.01378141 0.01336246 0.01405429 1000 1000 1000 0.01497845 0.01483505 0.01576023 0.01615592 0.01624358 1000 0.01497845 0.01483505 0.01576023 0.01615592 0.01624358 1000
lala 5 1.2 0 second 17 1 69 6 3.180001 0.519997835159302 0 1 -1 0 0.01550066 0.0159247 0.01625714 0.0158514 0.01582202 1000 0.01550066 0.0159247 0.01625714 0.0158514 0.01582202 1000 0.01749952 0.01748785 0.01791027 0.01717857 0.01745228 1000 0.01749952 0.01748785 0.01791027 0.01717857 0.01745228 1000
lala 4 1.2 0 second 6 1 70 4 3.84 0.979997396469116 1 0 -1 1 0.017253 0.01665067 0.01733631 0.0174726 0.01722868 1000 0.017253 0.01665067 0.01733631 0.0174726 0.01722868 1000 0.01744277 0.01751922 0.01789675 0.01738425 0.01767883 1000 0.01744277 0.01751922 0.01789675 0.01738425 0.01767883 1000
lala 5 1.2 0 second 1 1 71 4 5.32 3.29999542236328 -1 1 -1 0 0.01690983 0.01665235 0.01690668 0.01647059 0.01655999 1000 0.01690983 0.01665235 0.01690668 0.01647059 0.01655999 1000 0.01774167 0.01817014 0.01811279 0.01789542 0.01791915 1000 0.01774167 0.01817014 0.01811279 0.01789542 0.01791915 1000
lala 4 1.2 0 second 4 1 72 6 5.16 1.61999702453613 -1 0 -1 1 0.01745957 0.01763749 0.01774096 0.01805416 0.01716826 1000 0.01745957 0.01763749 0.01774096 0.01805416 0.01716826 1000 0.01711597 0.01755395 0.01790588 0.01839095 0.01893233 1000 0.01711597 0.01755395 0.01790588 0.01839095 0.01893233 1000
lala 5 1.2 1 first 8 1 73 5 3.3 2.11999654769897 1 0 1 0 0.0188008 0.01852773 0.01845866 1000 1000 1000 0.0188008 0.01852773 0.01845866 1000 1000 1000 0.01961527 0.01986713 0.01986484 0.02025035 0.01950742 1000 0.01961527 0.01986713 0.01986484 0.02025035 0.01950742 1000
lala 4 1.2 0 second 13 1 74 4 1.72 0.919997453689575 0 1 -1 0 0.02123964 0.02112443 0.02111612 0.02051955 0.02102411 1000 0.02123964 0.02112443 0.02111612 0.02051955 0.02102411 1000 0.01944145 0.01979744 0.01964541 0.01923381 0.0188977 1000 0.01944145 0.01979744 0.01964541 0.01923381 0.0188977 1000
lala 4 1.2 1 second 9 1 75 5 5.45 1.13999724388123 1 1 1 0 0.02093207 0.02028445 0.02105623 0.02115868 0.02075825 1000 0.02093207 0.02028445 0.02105623 0.02115868 0.02075825 1000 0.01911207 0.0188972 0.01964089 0.01975679 0.01925827 1000 0.01911207 0.0188972 0.01964089 0.01975679 0.01925827 1000
lala 4 1.2 0 second 2 1 76 5 4.5 1.57999682426453 -1 0 -1 1 0.0209332 0.02131636 0.02032519 0.02014984 0.02048429 1000 0.0209332 0.02131636 0.02032519 0.02014984 0.02048429 1000 0.01945759 0.01935573 0.01954701 0.0202849 0.02008852 1000 0.01945759 0.01935573 0.01954701 0.0202849 0.02008852 1000
lala 7 1.2 1 second 3 1 77 5 4.25 2.83999586105347 -1 1 1 0 0.01878238 0.01935752 0.01978349 0.01978807 0.01975383 1000 0.01878238 0.01935752 0.01978349 0.01978807 0.01975383 1000 0.02134085 0.0215304 0.02163571 0.02178725 0.02110961 1000 0.02134085 0.0215304 0.02163571 0.02178725 0.02110961 1000
lala 5 1.2 0 first 13 1 78 4 2.92 0.859997510910034 0 1 -1 1 0.02181636 0.02261923 0.02297226 1000 1000 1000 0.02181636 0.02261923 0.02297226 1000 1000 1000 0.02235616 0.02258163 0.02294299 0.02355309 0.02364261 1000 0.02235616 0.02258163 0.02294299 0.02355309 0.02364261 1000
lala 5 1.2 1 first 9 1 79 5 4.25 1.57999682426453 1 1 1 0 -0.0011598 -0.004494785 -0.00941192 1000 1000 1000 -0.0011598 -0.004494785 -0.00941192 1000 1000 1000 0.01372247 0.01405363 0.01641112 0.01537864 0.0119223 1000 0.01372247 0.01405363 0.01641112 0.01537864 0.0119223 1000
lala 8 1.2 0 second 3 1 80 5 3.05 0.779997587203979 -1 1 -1 0 0.02736166 0.02755645 0.02822394 0.02889468 0.02807666 1000 0.02736166 0.02755645 0.02822394 0.02889468 0.02807666 1000 0.02774533 0.02796682 0.02771815 0.027017 0.02538509 1000 0.02774533 0.02796682 0.02771815 0.027017 0.02538509 1000
lala 5 1.2 1 first 4 1 81 6 6.36 1.91999673843384 -1 0 1 0 0.02051664 0.02018984 0.01924949 1000 1000 1000 0.02051664 0.02018984 0.01924949 1000 1000 1000 0.01978345 0.02001342 0.02008958 0.02042318 0.02044114 1000 0.01978345 0.02001342 0.02008958 0.02042318 0.02044114 1000
lala 4 1.2 1 first 0 1 82 4 6.24 0.439997911453247 -1 0 1 1 0.02069834 0.02077474 0.02137709 1000 1000 1000 0.02069834 0.02077474 0.02137709 1000 1000 1000 0.0239553 0.02397529 0.02485994 0.0251039 0.02492763 1000 0.0239553 0.02397529 0.02485994 0.0251039 0.02492763 1000
lala 6 1.2 1 second 17 1 83 6 4.380001 2.69999599456787 0 1 1 1 0.01961018 0.01907291 0.01935736 0.01954405 0.01879552 1000 0.01961018 0.01907291 0.01935736 0.01954405 0.01879552 1000 0.01915616 0.01972335 0.0203752 0.02040207 0.02024235 1000 0.01915616 0.01972335 0.0203752 0.02040207 0.02024235 1000
lala 9 1.2 1 first 14 1 84 5 3.3 3.0399956703186 0 0 1 0 0.02130192 0.02118678 0.02153146 1000 1000 1000 0.02130192 0.02118678 0.02153146 1000 1000 1000 0.02131029 0.02154913 0.02171471 0.0219874 0.02233697 1000 0.02131029 0.02154913 0.02171471 0.0219874 0.02233697 1000
lala 5 1.2 1 first 6 1 85 4 5.04 2.69999599456787 1 0 1 0 0.02295111 0.02347726 0.0232262 1000 1000 1000 0.02295111 0.02347726 0.0232262 1000 1000 1000 0.02228026 0.02306986 0.02332914 0.02370176 0.02416659 1000 0.02228026 0.02306986 0.02332914 0.02370176 0.02416659 1000
lala 6 1.2 0 second 8 1 86 5 2.1 1.07999730110168 1 0 -1 0 0.01996038 0.02035094 0.02078037 0.02039309 0.02057381 1000 0.01996038 0.02035094 0.02078037 0.02039309 0.02057381 1000 0.02071336 0.02018734 0.02047648 0.02105263 0.02102173 1000 0.02071336 0.02018734 0.02047648 0.02105263 0.02102173 1000
lala 2 1.2 1 second 11 1 87 6 6.780001 0.599997758865356 1 1 1 1 0.02271632 0.02269365 0.02219426 0.02221743 0.02280606 1000 0.02271632 0.02269365 0.02219426 0.02221743 0.02280606 1000 0.02107672 0.02119661 0.02108436 0.02152117 0.02163374 1000 0.02107672 0.02119661 0.02108436 0.02152117 0.02163374 1000
lala 5 1.2 1 second 0 1 88 4 5.04 0.739997625350952 -1 0 1 1 0.0242712 0.0240707 0.02412345 0.02369031 0.02427224 1000 0.0242712 0.0240707 0.02412345 0.02369031 0.02427224 1000 0.02228893 0.02285109 0.02253852 0.02272043 0.02282554 1000 0.02228893 0.02285109 0.02253852 0.02272043 0.02282554 1000
lala 5 1.2 1 second 12 1 89 4 5.04 0.839997529983521 0 0 1 1 0.02528824 0.02531115 0.02578456 0.02519186 0.02546381 1000 0.02528824 0.02531115 0.02578456 0.02519186 0.02546381 1000 0.02036821 0.02067625 0.02083011 0.02126557 0.02158088 1000 0.02036821 0.02067625 0.02083011 0.02126557 0.02158088 1000
lala 6 1.2 1 second 1 1 90 4 6.52 0.739997625350952 -1 1 1 0 0.02477668 0.02452462 0.02377118 0.02421344 0.02414585 1000 0.02477668 0.02452462 0.02377118 0.02421344 0.02414585 1000 0.02326976 0.02330102 0.02336049 0.02322925 0.02334257 1000 0.02326976 0.02330102 0.02336049 0.02322925 0.02334257 1000
lala 6 1.2 1 first 13 1 91 4 4.12 0.879997491836548 0 1 1 0 0.02477058 0.02433494 0.02416519 1000 1000 1000 0.02477058 0.02433494 0.02416519 1000 1000 1000 0.02372708 0.02390719 0.0240556 0.02456531 0.02465522 1000 0.02372708 0.02390719 0.0240556 0.02456531 0.02465522 1000
lala 9 1.2 0 first 7 1 92 4 2.92 0.719997644424438 1 1 -1 1 0.01337471 0.009093436 0.005092256 1000 1000 1000 0.01337471 0.009093436 0.005092256 1000 1000 1000 -0.002308727 -0.00150179 -0.001020362 -0.0004286758 0.0006121594 1000 -0.002308727 -0.00150179 -0.001020362 -0.0004286758 0.0006121594 1000
lala 7 1.2 0 first 17 1 93 6 3.180001 0.679997682571411 0 1 -1 1 0.003386492 0.003182267 0.002927839 1000 1000 1000 0.003386492 0.003182267 0.002927839 1000 1000 1000 0.005583652 0.00546524 0.005841971 0.006894212 0.007247909 1000 0.005583652 0.00546524 0.005841971 0.006894212 0.007247909 1000
lala 7 1.2 0 first 13 1 94 4 2.92 2.03999662399292 0 1 -1 1 0.008174507 0.008164501 0.007322329 1000 1000 1000 0.008174507 0.008164501 0.007322329 1000 1000 1000 0.007724992 0.008060874 0.007673363 0.008314424 0.009106187 1000 0.007724992 0.008060874 0.007673363 0.008314424 0.009106187 1000
lala 8 1.2 0 second 17 1 95 6 4.380001 3.77999496459961 0 1 -1 0 0.007225982 0.007330359 0.008287671 0.008659016 0.008515884 1000 0.007225982 0.007330359 0.008287671 0.008659016 0.008515884 1000 0.009209397 0.009272036 0.009320132 0.009040256 0.009190573 1000 0.009209397 0.009272036 0.009320132 0.009040256 0.009190573 1000
lala 9 1.2 1 second 3 1 96 5 4.25 4.31999444961548 -1 1 1 0 0.009857287 0.01053543 0.01057887 0.01061197 0.01099501 1000 0.009857287 0.01053543 0.01057887 0.01061197 0.01099501 1000 0.01173965 0.01192472 0.0115238 0.01145668 0.01042639 1000 0.01173965 0.01192472 0.0115238 0.01145668 0.01042639 1000
lala 6 1.2 0 first 6 1 97 4 3.84 1.37999701499939 1 0 -1 0 0.009850767 0.009942765 0.01042516 1000 1000 1000 0.009850767 0.009942765 0.01042516 1000 1000 1000 0.01683499 0.01620055 0.01609861 0.01646433 0.01634873 1000 0.01683499 0.01620055 0.01609861 0.01646433 0.01634873 1000
lala 10 0.6 0 second 3 1 98 5 3.65 0.579997777938843 -1 1 -1 0 0.01740995 0.01740965 0.01749071 0.01781812 0.01782205 1000 0.01740995 0.01740965 0.01749071 0.01781812 0.01782205 1000 0.01673086 0.01618267 0.01601218 0.01633284 0.01615911 1000 0.01673086 0.01618267 0.01601218 0.01633284 0.01615911 1000
lala 3 1.2 1 second 15 1 99 5 4.25 3.41999530792236 0 1 1 0 0.01824498 0.01806987 0.01817307 0.01859474 0.0186755 1000 0.01824498 0.01806987 0.01817307 0.01859474 0.0186755 1000 0.01692778 0.01709552 0.01622723 0.01662426 0.01756321 1000 0.01692778 0.01709552 0.01622723 0.01662426 0.01756321 1000
lala 11 0.3 0 first 3 1 100 5 3.95 0.879997491836548 -1 1 -1 1 0.01488103 0.01524322 0.01563514 0.01492726 0.01506784 0.01584035 0.01488103 0.01524322 0.01563514 0.01492726 0.01506784 0.01584035 0.01546651 0.01618353 0.01636964 0.01614658 0.01571125 1000 0.01546651 0.01618353 0.01636964 0.01614658 0.01571125 1000
lala 6 1.2 0 first 9 1 101 5 3.05 2.11999654769897 1 1 -1 0 0.01686552 0.01678445 0.01664526 1000 1000 1000 0.01686552 0.01678445 0.01664526 1000 1000 1000 0.01734549 0.01708944 0.01675697 0.0167985 0.0165578 1000 0.01734549 0.01708944 0.01675697 0.0167985 0.0165578 1000
lala 6 1.2 1 first 4 1 102 6 5.16 0.539997816085815 -1 0 1 0 0.0169776 0.01641122 0.01700577 1000 1000 1000 0.0169776 0.01641122 0.01700577 1000 1000 1000 0.01658119 0.01668223 0.01738161 0.01759111 0.0174743 1000 0.01658119 0.01668223 0.01738161 0.01759111 0.0174743 1000
lala 10 1.2 0 second 14 1 103 5 2.1 1.69999694824219 0 0 -1 1 0.01712501 0.016519 0.01634691 0.01623129 0.01650524 1000 0.01712501 0.016519 0.01634691 0.01623129 0.01650524 1000 0.01554774 0.01640272 0.01704903 0.0169076 0.01667346 1000 0.01554774 0.01640272 0.01704903 0.0169076 0.01667346 1000
lala 7 1.2 1 first 6 1 104 4 5.04 0.959997415542603 1 0 1 1 0.001928648 0.002282964 0.002034608 1000 1000 1000 0.001928648 0.002282964 0.002034608 1000 1000 1000 0.004058153 0.00415383 0.004385086 0.00478512 0.005000148 1000 0.004058153 0.00415383 0.004385086 0.00478512 0.005000148 1000
lala 7 1.2 0 second 8 1 105 5 3.3 2.11999654769897 1 0 -1 0 0.005393439 0.006096995 0.006588083 0.006621863 0.006824052 1000 0.005393439 0.006096995 0.006588083 0.006621863 0.006824052 1000 0.007226095 0.006793175 0.006528204 0.005944482 0.006635389 1000 0.007226095 0.006793175 0.006528204 0.005944482 0.006635389 1000
lala 9 1.2 1 second 17 1 106 6 5.580001 0.879997491836548 0 1 1 0 0.007912282 0.007950202 0.007456234 0.007211579 0.00720221 1000 0.007912282 0.007950202 0.007456234 0.007211579 0.00720221 1000 0.006694178 0.006505284 0.007205762 0.007969532 0.00817763 1000 0.006694178 0.006505284 0.007205762 0.007969532 0.00817763 1000
lala 3 1.2 1 second 11 1 107 6 5.580001 1.43999695777893 1 1 1 1 0.006612944 0.005005013 0.005182514 0.004598118 0.003783444 1000 0.006612944 0.005005013 0.005182514 0.004598118 0.003783444 1000 0.003066277 0.003715366 0.003995359 0.004317488 0.0048404 1000 0.003066277 0.003715366 0.003995359 0.004317488 0.0048404 1000
lala 5 1.2 1 second 5 1 108 6 5.580001 1.13999724388123 -1 1 1 0 0.004364574 0.004640293 0.005465663 0.005196702 0.004778135 1000 0.004364574 0.004640293 0.005465663 0.005196702 0.004778135 1000 0.005938487 0.00636238 0.006485254 0.00649539 0.006708661 1000 0.005938487 0.00636238 0.006485254 0.00649539 0.006708661 1000
lala 6 1.2 0 first 12 1 109 4 3.84 0.759997606277466 0 0 -1 0 0.00401322 0.004821633 0.005000111 1000 1000 1000 0.00401322 0.004821633 0.005000111 1000 1000 1000 0.006536214 0.006720543 0.006747222 0.0067381 0.0063825 1000 0.006536214 0.006720543 0.006747222 0.0067381 0.0063825 1000
lala 8 1.2 1 second 13 1 110 4 4.12 0.819997549057007 0 1 1 0 0.002223815 0.002440188 0.002496554 0.002699365 0.002681398 1000 0.002223815 0.002440188 0.002496554 0.002699365 0.002681398 1000 0.003443816 0.003555182 0.003034917 0.0034634 0.003531849 1000 0.003443816 0.003555182 0.003034917 0.0034634 0.003531849 1000
lala 10 1.2 0 first 7 1 111 4 4.12 2.2999963760376 1 1 -1 1 0.003100727 0.004415069 0.005000552 1000 1000 1000 0.003100727 0.004415069 0.005000552 1000 1000 1000 0.005548852 0.005109026 0.004537581 0.004645135 0.004643172 1000 0.005548852 0.005109026 0.004537581 0.004645135 0.004643172 1000
lala 6 1.2 0 second 5 1 112 6 4.380001 0.439997911453247 -1 1 -1 1 0.001389532 0.001630791 0.001069748 0.001388964 0.001927226 1000 0.001389532 0.001630791 0.001069748 0.001388964 0.001927226 1000 0.00251044 0.002481607 0.002844825 0.002972848 0.003288491 1000 0.00251044 0.002481607 0.002844825 0.002972848 0.003288491 1000
lala 7 1.2 1 second 5 1 113 6 5.580001 1.49999690055847 -1 1 1 0 0.003651696 0.003466714 0.003495047 0.002728768 0.002536844 1000 0.003651696 0.003466714 0.003495047 0.002728768 0.002536844 1000 0.004150178 0.00444003 0.00454601 0.005007094 0.005173092 1000 0.004150178 0.00444003 0.00454601 0.005007094 0.005173092 1000
lala 8 1.2 0 second 8 1 114 5 4.5 1.23999714851379 1 0 -1 0 0.004494499 0.004775417 0.004431623 0.005047672 0.005890663 1000 0.004494499 0.004775417 0.004431623 0.005047672 0.005890663 1000 0.005915343 0.005642521 0.005655983 0.006004311 0.005803823 1000 0.005915343 0.005642521 0.005655983 0.006004311 0.005803823 1000
lala 5 1.2 1 first 2 1 115 5 5.7 2.67999601364136 -1 0 1 1 0.005163671 0.006150459 0.006312421 1000 1000 1000 0.005163671 0.006150459 0.006312421 1000 1000 1000 0.005161849 0.005019923 0.004680328 0.00471358 0.004617745 1000 0.005161849 0.005019923 0.004680328 0.00471358 0.004617745 1000
lala 11 2.4 1 first 7 1 116 4 6.52 0.959997415542603 1 1 1 0 0.002545554 0.002734141 0.002607492 1000 1000 1000 0.002545554 0.002734141 0.002607492 1000 1000 1000 -0.0003067199 -0.0001925867 0.0002929587 0.0005680314 0.0006021609 1000 -0.0003067199 -0.0001925867 0.0002929587 0.0005680314 0.0006021609 1000
lala 6 1.2 0 first 0 1 117 4 3.84 2.79999589920044 -1 0 -1 1 0.0008450294 0.0004887021 0.0009767459 1000 1000 1000 0.0008450294 0.0004887021 0.0009767459 1000 1000 1000 0.001112245 0.001522099 0.001898357 0.001715445 0.001520239 1000 0.001112245 0.001522099 0.001898357 0.001715445 0.001520239 1000
lala 8 1.2 1 first 6 1 118 4 3.84 1.99999666213989 1 0 1 1 0.001723264 0.001810219 0.001799304 1000 1000 1000 0.001723264 0.001810219 0.001799304 1000 1000 1000 0.00440595 0.00501596 0.005241964 0.005031839 0.005626902 1000 0.00440595 0.00501596 0.005241964 0.005031839 0.005626902 1000
lala 7 1.2 0 first 0 1 119 4 5.04 0.459997892379761 -1 0 -1 1 0.005653381 0.006105982 0.007012784 1000 1000 1000 0.005653381 0.006105982 0.007012784 1000 1000 1000 0.007052972 0.00701084 0.006800041 0.006579575 0.006590326 1000 0.007052972 0.00701084 0.006800041 0.006579575 0.006590326 1000
lala 10 0.6 0 first 17 1 120 6 4.980001 3.1799955368042 0 1 -1 1 0.006971952 0.006762936 0.007200423 1000 1000 1000 0.006971952 0.006762936 0.007200423 1000 1000 1000 0.008337453 0.008163922 0.007055211 0.007468864 0.008115175 1000 0.008337453 0.008163922 0.007055211 0.007468864 0.008115175 1000
lala 11 0.6 0 second 14 1 121 5 2.7 1.19999718666077 0 0 -1 0 0.007553695 0.008291917 0.008347592 0.008615319 0.00875141 1000 0.007553695 0.008291917 0.008347592 0.008615319 0.00875141 1000 0.009569642 0.009502222 0.009066666 0.009612678 0.009730696 1000 0.009569642 0.009502222 0.009066666 0.009612678 0.009730696 1000
lala 4 1.2 0 second 11 1 122 6 4.380001 3.89999485015869 1 1 -1 1 0.009128814 0.009401422 0.009287031 0.009220107 0.009275136 1000 0.009128814 0.009401422 0.009287031 0.009220107 0.009275136 1000 0.00920728 0.009155863 0.008571508 0.009219435 0.009445824 1000 0.00920728 0.009155863 0.008571508 0.009219435 0.009445824 1000
lala 11 0.3 1 second 17 1 123 6 5.280001 1.21999716758728 0 1 1 1 0.008717008 0.009458729 0.009599085 0.009457332 0.009786317 1000 0.008717008 0.009458729 0.009599085 0.009457332 0.009786317 1000 0.008961521 0.008467868 0.008246989 0.007814001 0.008060341 1000 0.008961521 0.008467868 0.008246989 0.007814001 0.008060341 1000
lala 8 1.2 1 second 5 1 124 6 4.380001 2.85999584197998 -1 1 1 0 0.01026036 0.01020653 0.009743195 0.00947156 0.009489398 1000 0.01026036 0.01020653 0.009743195 0.00947156 0.009489398 1000 0.008385571 0.008551828 0.008564766 0.008395853 0.00928385 1000 0.008385571 0.008551828 0.008564766 0.008395853 0.00928385 1000
lala 7 1.2 1 second 12 1 125 4 5.04 3.63999509811401 0 0 1 0 0.01001521 0.01051314 0.01054187 0.009705814 0.009298566 1000 0.01001521 0.01051314 0.01054187 0.009705814 0.009298566 1000 0.009523347 0.009564182 0.009707527 0.009705513 0.009531543 1000 0.009523347 0.009564182 0.009707527 0.009705513 0.009531543 1000
lala 8 1.2 1 second 12 1 126 4 3.84 2.19999647140503 0 0 1 1 0.01072846 0.01048067 0.01073316 0.01053261 0.01049402 1000 0.01072846 0.01048067 0.01073316 0.01053261 0.01049402 1000 0.009491409 0.00894794 0.009521882 0.009542469 0.009038444 1000 0.009491409 0.00894794 0.009521882 0.009542469 0.009038444 1000
lala 7 1.2 1 second 4 1 127 6 3.96 1.93999671936035 -1 0 1 0 0.006276878 0.006765938 0.006634796 0.006500254 0.006570586 1000 0.006276878 0.006765938 0.006634796 0.006500254 0.006570586 1000 0.00636691 0.00659997 0.00616415 0.006620383 0.007209624 1000 0.00636691 0.00659997 0.00616415 0.006620383 0.007209624 1000
lala 9 1.2 0 first 13 1 128 4 2.92 1.03999733924866 0 1 -1 0 0.006937979 0.006696754 0.006753819 1000 1000 1000 0.006937979 0.006696754 0.006753819 1000 1000 1000 0.007882752 0.007902494 0.007928862 0.008072549 0.007488606 1000 0.007882752 0.007902494 0.007928862 0.008072549 0.007488606 1000
lala 9 1.2 0 first 5 1 129 6 3.180001 0.899997472763062 -1 1 -1 0 -0.009586652 -0.01064522 -0.01178111 1000 1000 1000 -0.009586652 -0.01064522 -0.01178111 1000 1000 1000 -0.01813488 -0.01669881 -0.01676508 -0.01429835 -0.01467035 1000 -0.01813488 -0.01669881 -0.01676508 -0.01429835 -0.01467035 1000
lala 12 0.3 1 second 3 1 130 5 4.25 1.81999683380127 -1 1 1 1 0.00624872 0.007008087 0.007596195 0.008635819 0.009692833 1000 0.00624872 0.007008087 0.007596195 0.008635819 0.009692833 1000 0.01091107 0.01073618 0.01060904 0.01053864 0.01153648 1000 0.01091107 0.01073618 0.01060904 0.01053864 0.01153648 1000
lala 13 0.15 0 first 3 1 131 5 4.1 0.499997854232788 -1 1 -1 1 0.008664923 0.009377329 0.0102231 1000 1000 1000 0.008664923 0.009377329 0.0102231 1000 1000 1000 0.01033494 0.01085104 0.01112741 0.01139046 0.01076855 1000 0.01033494 0.01085104 0.01112741 0.01139046 0.01076855 1000
lala 2 1.2 1 second 16 1 132 6 5.16 0.579997777938843 0 0 1 1 0.01149902 0.01166346 0.01177102 0.0119799 0.01185335 1000 0.01149902 0.01166346 0.01177102 0.0119799 0.01185335 1000 0.01155345 0.01077974 0.01104733 0.01147985 0.01157738 1000 0.01155345 0.01077974 0.01104733 0.01147985 0.01157738 1000
lala 7 1.2 1 first 1 1 133 4 5.32 1.91999673843384 -1 1 1 0 0.01186506 0.01174173 0.01227528 1000 1000 1000 0.01186506 0.01174173 0.01227528 1000 1000 1000 0.010792 0.0105278 0.01117668 0.01142408 0.01147979 1000 0.010792 0.0105278 0.01117668 0.01142408 0.01147979 1000
lala 4 1.2 0 second 15 1 134 5 3.05 2.09999656677246 0 1 -1 1 0.01089336 0.01156022 0.01124008 0.0119161 0.012384 1000 0.01089336 0.01156022 0.01124008 0.0119161 0.012384 1000 0.01233717 0.01223342 0.0120367 0.01195915 0.01173399 1000 0.01233717 0.01223342 0.0120367 0.01195915 0.01173399 1000
lala 9 1.2 1 first 8 1 135 5 5.7 0.919997453689575 1 0 1 1 0.01262449 0.01325802 0.01334984 1000 1000 1000 0.01262449 0.01325802 0.01334984 1000 1000 1000 0.01208897 0.01303721 0.01362831 0.01362341 0.01367519 1000 0.01208897 0.01303721 0.01362831 0.01362341 0.01367519 1000
lala 12 1.2 1 first 7 1 136 4 5.32 1.57999682426453 1 1 1 0 0.01326201 0.01296274 0.01284472 1000 1000 1000 0.01326201 0.01296274 0.01284472 1000 1000 1000 0.01459099 0.0147815 0.01478141 0.01494298 0.01430604 1000 0.01459099 0.0147815 0.01478141 0.01494298 0.01430604 1000
lala 7 1.2 0 second 9 1 137 5 4.25 0.719997644424438 1 1 -1 0 0.01554441 0.01615118 0.01614035 0.01616781 0.01605011 1000 0.01554441 0.01615118 0.01614035 0.01616781 0.01605011 1000 0.01439299 0.01474278 0.01461606 0.01492934 0.01376865 1000 0.01439299 0.01474278 0.01461606 0.01492934 0.01376865 1000
lala 8 1.2 0 first 1 1 138 4 4.12 2.97999572753906 -1 1 -1 0 0.01604351 0.01621717 0.01594335 1000 1000 1000 0.01604351 0.01621717 0.01594335 1000 1000 1000 0.01437246 0.01442585 0.01503711 0.01558088 0.01472244 1000 0.01437246 0.01442585 0.01503711 0.01558088 0.01472244 1000
lala 14 0.075 1 second 3 1 139 5 4.175 1.37999701499939 -1 1 1 1 0.01358024 0.01457269 0.01484742 0.01621296 0.01641749 1000 0.01358024 0.01457269 0.01484742 0.01621296 0.01641749 1000 0.01517747 0.01552888 0.015204 0.01573944 0.0159567 1000 0.01517747 0.01552888 0.015204 0.01573944 0.0159567 1000
lala 3 1.2 0 second 16 1 140 6 3.96 0.799997568130493 0 0 -1 0 0.01558719 0.01592018 0.01563846 0.01523591 0.01512025 1000 0.01558719 0.01592018 0.01563846 0.01523591 0.01512025 1000 0.01607083 0.01661704 0.01650518 0.01689881 0.01657374 1000 0.01607083 0.01661704 0.01650518 0.01689881 0.01657374 1000
lala 12 0.6 0 first 14 1 141 5 3.3 0.659997701644897 0 0 -1 1 0.01820312 0.01866644 0.01843883 1000 1000 1000 0.01820312 0.01866644 0.01843883 1000 1000 1000 0.01811345 0.01854295 0.01910085 0.01918705 0.01981355 1000 0.01811345 0.01854295 0.01910085 0.01918705 0.01981355 1000
lala 9 1.2 1 second 1 1 142 4 5.32 0.61999773979187 -1 1 1 1 0.01968327 0.01981153 0.01987903 0.01992599 0.01948109 1000 0.01968327 0.01981153 0.01987903 0.01992599 0.01948109 1000 0.01969502 0.01957583 0.02027542 0.02111676 0.02101003 1000 0.01969502 0.01957583 0.02027542 0.02111676 0.02101003 1000
lala 10 0.6 1 second 13 1 143 4 3.52 2.45999622344971 0 1 1 0 0.02144679 0.021327 0.02150548 0.02147987 0.02175855 1000 0.02144679 0.021327 0.02150548 0.02147987 0.02175855 1000 0.02093605 0.02112323 0.02225832 0.02248144 0.02266154 1000 0.02093605 0.02112323 0.02225832 0.02248144 0.02266154 1000
lala 8 1.2 1 second 0 1 144 4 6.24 1.07999730110168 -1 0 1 0 0.02386888 0.02426588 0.02415835 0.02390611 0.02403197 1000 0.02386888 0.02426588 0.02415835 0.02390611 0.02403197 1000 0.02243554 0.02204681 0.02277914 0.022953 0.02296564 1000 0.02243554 0.02204681 0.02277914 0.022953 0.02296564 1000
lala 15 0.0375 0 second 3 1 145 5 4.1375 0.739997625350952 -1 1 -1 1 0.0231541 0.02405856 0.02464207 0.02441392 0.02381806 1000 0.0231541 0.02405856 0.02464207 0.02441392 0.02381806 1000 0.02313504 0.02348404 0.0236982 0.02408938 0.02340654 1000 0.02313504 0.02348404 0.0236982 0.02408938 0.02340654 1000
lala 5 1.2 1 first 11 1 146 6 5.580001 0.579997777938843 1 1 1 1 0.02476647 0.02499458 0.02393732 1000 1000 1000 0.02476647 0.02499458 0.02393732 1000 1000 1000 0.0215934 0.02172274 0.02168531 0.02191863 0.02171469 1000 0.0215934 0.02172274 0.02168531 0.02191863 0.02171469 1000
lala 11 0.3 0 first 13 1 147 4 3.22 0.539997816085815 0 1 -1 1 0.02364325 0.0236599 0.0239399 1000 1000 1000 0.02364325 0.0236599 0.0239399 1000 1000 1000 0.02243382 0.02210039 0.02227656 0.0223705 0.0229379 1000 0.02243382 0.02210039 0.02227656 0.0223705 0.0229379 1000
lala 4 1.2 0 first 16 1 148 6 5.16 3.91999483108521 0 0 -1 0 0.02395476 0.02401846 0.02397681 1000 1000 1000 0.02395476 0.02401846 0.02397681 1000 1000 1000 0.02258266 0.02265221 0.02269875 0.02308843 0.02351567 1000 0.02258266 0.02265221 0.02269875 0.02308843 0.02351567 1000
lala 5 1.2 1 second 16 1 149 6 6.36 0.719997644424438 0 0 1 1 0.02236407 0.02193185 0.02167942 0.02213142 0.02176438 1000 0.02236407 0.02193185 0.02167942 0.02213142 0.02176438 1000 0.0226935 0.02294432 0.02263901 0.02313421 0.02262492 1000 0.0226935 0.02294432 0.02263901 0.02313421 0.02262492 1000
lala 5 1.2 1 first 15 1 150 5 4.25 1.21999716758728 0 1 1 1 0.02238698 0.02270226 0.02233456 0.02236998 0.0229764 0.02303366 0.02238698 0.02270226 0.02233456 0.02236998 0.0229764 0.02303366 0.02283698 0.02355995 0.02421093 0.02434568 0.02443583 1000 0.02283698 0.02355995 0.02421093 0.02434568 0.02443583 1000
lala 5 1.2 0 first 10 1 151 6 3.96 2.33999633789063 1 0 -1 0 0.02356143 0.02380356 0.02339893 1000 1000 1000 0.02356143 0.02380356 0.02339893 1000 1000 1000 0.02474308 0.02494789 0.02461436 0.0248127 0.02392101 1000 0.02474308 0.02494789 0.02461436 0.0248127 0.02392101 1000
lala 9 1.2 0 second 12 1 152 4 2.64 0.959997415542603 0 0 -1 0 0.02291651 0.02291508 0.02288567 0.02305113 0.02314347 1000 0.02291651 0.02291508 0.02288567 0.02305113 0.02314347 1000 0.02272629 0.0218848 0.02195428 0.02256184 0.02275656 1000 0.02272629 0.0218848 0.02195428 0.02256184 0.02275656 1000
lala 6 1.2 1 second 2 1 153 5 4.5 0.599997758865356 -1 0 1 1 0.02436695 0.0241008 0.02376835 0.02352433 0.02410661 1000 0.02436695 0.0241008 0.02376835 0.02352433 0.02410661 1000 0.02279862 0.02361522 0.02360658 0.02337082 0.02378163 1000 0.02279862 0.02361522 0.02360658 0.02337082 0.02378163 1000
lala 6 1.2 0 first 10 1 154 6 5.16 0.699997663497925 1 0 -1 0 0.02342673 0.02343082 0.02434158 1000 1000 1000 0.02342673 0.02343082 0.02434158 1000 1000 1000 0.02276533 0.02244514 0.02244705 0.0223433 0.02302762 1000 0.02276533 0.02244514 0.02244705 0.0223433 0.02302762 1000
lala 10 0.6 1 first 12 1 155 4 3.24 1.81999683380127 0 0 1 0 0.0247595 0.02512597 0.02491419 1000 1000 1000 0.0247595 0.02512597 0.02491419 1000 1000 1000 0.02148885 0.02182223 0.02205849 0.02215825 0.02174113 1000 0.02148885 0.02182223 0.02205849 0.02215825 0.02174113 1000
lala 6 1.2 1 second 11 1 156 6 4.380001 1.45999693870544 1 1 1 1 0.02118122 0.02105302 0.02098139 0.0207808 0.0204422 1000 0.02118122 0.02105302 0.02098139 0.0207808 0.0204422 1000 0.01106437 0.01257594 0.01315139 0.01424107 0.01596881 1000 0.01106437 0.01257594 0.01315139 0.01424107 0.01596881 1000
lala 9 1.2 0 second 6 1 157 4 2.64 0.959997415542603 1 0 -1 1 0.01630148 0.01661456 0.01659052 0.01657618 0.01581478 1000 0.01630148 0.01661456 0.01659052 0.01657618 0.01581478 1000 0.01602413 0.01599303 0.01576595 0.01583458 0.01638365 1000 0.01602413 0.01599303 0.01576595 0.01583458 0.01638365 1000
lala 13 0.6 1 second 14 1 158 5 3.9 0.899997472763062 0 0 1 0 0.01765043 0.01783821 0.01804653 0.01816891 0.01809079 1000 0.01765043 0.01783821 0.01804653 0.01816891 0.01809079 1000 0.0178685 0.01767776 0.01829385 0.01822727 0.01794144 1000 0.0178685 0.01767776 0.01829385 0.01822727 0.01794144 1000
lala 14 0.3 1 first 14 1 159 5 3.6 3.51999521255493 0 0 1 1 0.02000307 0.02002069 0.02010545 1000 1000 1000 0.02000307 0.02002069 0.02010545 1000 1000 1000 0.01921528 0.01864011 0.0188389 0.01884265 0.01920268 1000 0.01921528 0.01864011 0.0188389 0.01884265 0.01920268 1000
lala 10 0.6 0 second 1 1 160 4 4.72 1.57999682426453 -1 1 -1 0 0.01993185 0.01993798 0.02002936 0.02012967 0.01973873 1000 0.01993185 0.01993798 0.02002936 0.02012967 0.01973873 1000 0.01872579 0.01850186 0.01883752 0.01924549 0.01929139 1000 0.01872579 0.01850186 0.01883752 0.01924549 0.01929139 1000
lala 12 0.15 0 second 13 1 161 4 3.37 3.09999561309814 0 1 -1 1 0.0192084 0.01955644 0.01943434 0.01946305 0.0185904 1000 0.0192084 0.01955644 0.01943434 0.01946305 0.0185904 1000 0.01873966 0.01959317 0.02006945 0.02009369 0.01990528 1000 0.01873966 0.01959317 0.02006945 0.02009369 0.01990528 1000
lala 8 1.2 0 first 4 1 162 6 2.76 4.21999454498291 -1 0 -1 0 0.01982525 0.01983634 0.02045163 1000 1000 1000 0.01982525 0.01983634 0.02045163 1000 1000 1000 0.01969882 0.0187625 0.01857176 0.0196484 0.01989154 1000 0.01969882 0.0187625 0.01857176 0.0196484 0.01989154 1000
lala 9 1.2 0 first 4 1 163 6 3.96 0.539997816085815 -1 0 -1 0 0.02187713 0.0217941 0.02184336 1000 1000 1000 0.02187713 0.0217941 0.02184336 1000 1000 1000 0.02174783 0.0215988 0.02185142 0.02182261 0.02247373 1000 0.02174783 0.0215988 0.02185142 0.02182261 0.02247373 1000
lala 16 0.01875 0 second 3 1 164 5 4.15625 0.439997911453247 -1 1 -1 0 0.02370832 0.02397143 0.02351276 0.0231034 0.02374302 1000 0.02370832 0.02397143 0.02351276 0.0231034 0.02374302 1000 0.02314918 0.02333564 0.0236303 0.0239892 0.02405647 1000 0.02314918 0.02333564 0.0236303 0.0239892 0.02405647 1000
lala 6 1.2 0 first 16 1 165 6 5.16 0.739997625350952 0 0 -1 0 0.02351356 0.02376318 0.02416302 1000 1000 1000 0.02351356 0.02376318 0.02416302 1000 1000 1000 0.02293354 0.02333546 0.02402287 0.02402317 0.02387201 1000 0.02293354 0.02333546 0.02402287 0.02402317 0.02387201 1000
lala 6 1.2 0 second 15 1 166 5 3.05 0.819997549057007 0 1 -1 1 0.02356916 0.02368998 0.02370545 0.0237586 0.0235159 1000 0.02356916 0.02368998 0.02370545 0.0237586 0.0235159 1000 0.02358091 0.02339425 0.02327137 0.02350708 0.02317344 1000 0.02358091 0.02339425 0.02327137 0.02350708 0.02317344 1000
lala 7 1.2 0 first 15 1 167 5 4.25 1.75999689102173 0 1 -1 1 0.02212449 0.02248197 0.02265183 1000 1000 1000 0.02212449 0.02248197 0.02265183 1000 1000 1000 0.0237682 0.02362669 0.02378978 0.02418679 0.02434708 1000 0.0237682 0.02362669 0.02378978 0.02418679 0.02434708 1000
lala 12 0.15 1 first 17 1 168 6 5.130001 2.37999629974365 0 1 1 0 0.02311189 0.02406127 0.02413798 1000 1000 1000 0.02311189 0.02406127 0.02413798 1000 1000 1000 0.02319057 0.02279091 0.02293884 0.02221117 0.02237796 1000 0.02319057 0.02279091 0.02293884 0.02221117 0.02237796 1000
lala 7 1.2 0 second 2 1 169 5 3.3 2.93999576568604 -1 0 -1 0 0.02370802 0.02317377 0.02316721 0.02399766 0.0240966 1000 0.02370802 0.02317377 0.02316721 0.02399766 0.0240966 1000 0.02377012 0.02388949 0.02434788 0.02396069 0.02433239 1000 0.02377012 0.02388949 0.02434788 0.02396069 0.02433239 1000
lala 8 1.2 1 first 15 1 170 5 5.45 2.79999589920044 0 1 1 1 0.01016008 0.007673629 0.005537669 1000 1000 1000 0.01016008 0.007673629 0.005537669 1000 1000 1000 0.004796566 0.006389744 0.004024029 0.004113922 0.004366445 1000 0.004796566 0.006389744 0.004024029 0.004113922 0.004366445 1000
lala 7 1.2 1 first 16 1 171 6 6.36 0.759997606277466 0 0 1 0 0.007219834 0.007594769 0.007867553 1000 1000 1000 0.007219834 0.007594769 0.007867553 1000 1000 1000 0.009626882 0.009700608 0.01001402 0.01041242 0.01037574 1000 0.009626882 0.009700608 0.01001402 0.01041242 0.01037574 1000
lala 13 0.15 0 second 13 1 172 4 3.52 0.819997549057007 0 1 -1 1 0.01160482 0.01183566 0.01177392 0.01193097 0.01247943 1000 0.01160482 0.01183566 0.01177392 0.01193097 0.01247943 1000 0.01389994 0.01439384 0.01449393 0.01457754 0.0146722 1000 0.01389994 0.01439384 0.01449393 0.01457754 0.0146722 1000
lala 11 0.3 1 second 12 1 173 4 2.94 1.5399968624115 0 0 1 1 0.01571863 0.0164916 0.01706145 0.0169297 0.0168355 1000 0.01571863 0.0164916 0.01706145 0.0169297 0.0168355 1000 0.01619164 0.01632445 0.01596867 0.01563138 0.01591452 1000 0.01619164 0.01632445 0.01596867 0.01563138 0.01591452 1000
lala 10 0.6 0 first 5 1 174 6 3.780001 0.739997625350952 -1 1 -1 0 0.0168415 0.01620915 0.01621066 1000 1000 1000 0.0168415 0.01620915 0.01621066 1000 1000 1000 0.0151871 0.01610796 0.01581622 0.01591976 0.01612662 1000 0.0151871 0.01610796 0.01581622 0.01591976 0.01612662 1000
lala 11 0.6 0 second 5 1 175 6 4.380001 0.899997472763062 -1 1 -1 1 0.01797462 0.01774315 0.01752385 0.01773315 0.01739901 1000 0.01797462 0.01774315 0.01752385 0.01773315 0.01739901 1000 0.01623988 0.01618493 0.01549351 0.0157739 0.01627176 1000 0.01623988 0.01618493 0.01549351 0.0157739 0.01627176 1000
lala 8 1.2 1 second 16 1 176 6 5.16 1.19999718666077 0 0 1 1 0.01678814 0.01669306 0.01657314 0.01628199 0.01584412 1000 0.01678814 0.01669306 0.01657314 0.01628199 0.01584412 1000 0.01743727 0.01802572 0.01821834 0.01845227 0.01850469 1000 0.01743727 0.01802572 0.01821834 0.01845227 0.01850469 1000
lala 7 1.2 1 second 10 1 177 6 6.36 1.3999969959259 1 0 1 0 0.01759827 0.01725758 0.01711467 0.01720268 0.01736438 1000 0.01759827 0.01725758 0.01711467 0.01720268 0.01736438 1000 0.01823036 0.01808328 0.01803067 0.01883255 0.01908536 1000 0.01823036 0.01808328 0.01803067 0.01883255 0.01908536 1000
lala 8 1.2 1 second 10 1 178 6 5.16 2.159996509552 1 0 1 0 0.0187682 0.01913513 0.01917038 0.01915405 0.01896868 1000 0.0187682 0.01913513 0.01917038 0.01915405 0.01896868 1000 0.0199897 0.01947993 0.01919035 0.01964764 0.01964732 1000 0.0199897 0.01947993 0.01919035 0.01964764 0.01964732 1000
lala 9 1.2 1 first 0 1 179 4 5.04 0.939997434616089 -1 0 1 0 0.01916976 0.0192267 0.01899501 1000 1000 1000 0.01916976 0.0192267 0.01899501 1000 1000 1000 0.01874146 0.01820668 0.018241 0.0189972 0.01919202 1000 0.01874146 0.01820668 0.018241 0.0189972 0.01919202 1000
lala 10 1.2 1 first 4 1 180 6 5.16 0.899997472763062 -1 0 1 0 0.02002263 0.01986489 0.01980001 1000 1000 1000 0.02002263 0.01986489 0.01980001 1000 1000 1000 0.01908102 0.01926868 0.0195857 0.01995133 0.01983945 1000 0.01908102 0.01926868 0.0195857 0.01995133 0.01983945 1000
lala 10 0.6 0 second 6 1 181 4 3.24 1.75999689102173 1 0 -1 0 0.01895003 0.01942245 0.01982732 0.01941223 0.01953755 1000 0.01895003 0.01942245 0.01982732 0.01941223 0.01953755 1000 0.02058078 0.02091095 0.02059235 0.02097303 0.02051054 1000 0.02058078 0.02091095 0.02059235 0.02097303 0.02051054 1000
lala 13 0.15 1 second 17 1 182 6 4.980001 1.11999726295471 0 1 1 1 0.02054155 0.02063575 0.02099513 0.02081547 0.02072747 1000 0.02054155 0.02063575 0.02099513 0.02081547 0.02072747 1000 0.02035226 0.02055905 0.02106991 0.02078113 0.02057243 1000 0.02035226 0.02055905 0.02106991 0.02078113 0.02057243 1000
lala 7 1.2 0 first 11 1 183 6 3.180001 0.559997797012329 1 1 -1 0 0.02123559 0.02160346 0.0210415 1000 1000 1000 0.02123559 0.02160346 0.0210415 1000 1000 1000 0.02122432 0.02126391 0.02072144 0.02077484 0.02113455 1000 0.02122432 0.02126391 0.02072144 0.02077484 0.02113455 1000
lala 11 0.3 1 second 1 1 184 4 5.02 1.45999693870544 -1 1 1 0 0.02257797 0.02323679 0.02327925 0.02302823 0.0229666 1000 0.02257797 0.02323679 0.02327925 0.02302823 0.0229666 1000 0.02226097 0.02193823 0.02175952 0.0209587 0.02162791 1000 0.02226097 0.02193823 0.02175952 0.0209587 0.02162791 1000
lala 9 1.2 0 first 10 1 185 6 3.96 2.75999593734741 1 0 -1 0 0.02304704 0.02307587 0.02277688 1000 1000 1000 0.02304704 0.02307587 0.02277688 1000 1000 1000 0.0222431 0.02206176 0.02259051 0.02364074 0.02374664 1000 0.0222431 0.02206176 0.02259051 0.02364074 0.02374664 1000
lala 8 1.2 1 first 9 1 186 5 5.45 0.379997968673706 1 1 1 0 0.02458078 0.02587805 0.02543199 1000 1000 1000 0.02458078 0.02587805 0.02543199 1000 1000 1000 0.02202758 0.02158175 0.02151744 0.0222031 0.02216923 1000 0.02202758 0.02158175 0.02151744 0.0222031 0.02216923 1000
lala 10 0.6 1 second 8 1 187 5 5.1 0.519997835159302 1 0 1 1 0.02205358 0.02270119 0.02296017 0.02341068 0.0234467 1000 0.02205358 0.02270119 0.02296017 0.02341068 0.0234467 1000 0.02279295 0.02329951 0.02359488 0.02329888 0.02313329 1000 0.02279295 0.02329951 0.02359488 0.02329888 0.02313329 1000
lala 12 0.6 0 second 5 1 188 6 4.980001 0.479997873306274 -1 1 -1 0 0.02427353 0.02394438 0.02463148 0.02427477 0.02463082 1000 0.02427353 0.02394438 0.02463148 0.02427477 0.02463082 1000 0.02224619 0.02248748 0.02250132 0.02182011 0.0214325 1000 0.02224619 0.02248748 0.02250132 0.02182011 0.0214325 1000
lala 9 1.2 0 second 16 1 189 6 3.96 0.739997625350952 0 0 -1 0 0.01849393 0.01885838 0.01867048 0.01847652 0.01827593 1000 0.01849393 0.01885838 0.01867048 0.01847652 0.01827593 1000 0.01933357 0.01927088 0.01879814 0.01957865 0.01995288 1000 0.01933357 0.01927088 0.01879814 0.01957865 0.01995288 1000
lala 9 1.2 0 first 9 1 190 5 4.25 0.499997854232788 1 1 -1 1 0.01879495 0.01804212 0.01796175 1000 1000 1000 0.01879495 0.01804212 0.01796175 1000 1000 1000 0.01897313 0.01955176 0.01980239 0.01971389 0.01955643 1000 0.01897313 0.01955176 0.01980239 0.01971389 0.01955643 1000
lala 13 1.2 0 second 7 1 191 4 4.12 1.77999687194824 1 1 -1 0 0.01931457 0.01928662 0.01912958 0.01935097 0.01872792 1000 0.01931457 0.01928662 0.01912958 0.01935097 0.01872792 1000 0.01981921 0.02037814 0.02041027 0.0204994 0.02049222 1000 0.01981921 0.02037814 0.02041027 0.0204994 0.02049222 1000
lala 9 1.2 1 first 15 1 192 5 4.25 0.759997606277466 0 1 1 0 0.01966203 0.0197016 0.01997006 1000 1000 1000 0.01966203 0.0197016 0.01997006 1000 1000 1000 0.0208152 0.02063941 0.02081477 0.02030226 0.02005464 1000 0.0208152 0.02063941 0.02081477 0.02030226 0.02005464 1000
lala 17 0.01875 0 first 3 1 193 5 4.175 1.8599967956543 -1 1 -1 1 0.01960047 0.019996 0.0200645 1000 1000 1000 0.01960047 0.019996 0.0200645 1000 1000 1000 0.02080774 0.02069456 0.02076958 0.02021183 0.0201797 1000 0.02080774 0.02069456 0.02076958 0.02021183 0.0201797 1000
lala 14 0.15 1 first 13 1 194 4 3.67 2.77999591827393 0 1 1 1 0.02201346 0.02188874 0.02193075 1000 1000 1000 0.02201346 0.02188874 0.02193075 1000 1000 1000 0.02098204 0.02074889 0.02073685 0.02056742 0.02083678 1000 0.02098204 0.02074889 0.02073685 0.02056742 0.02083678 1000
lala 11 0.6 1 second 6 1 195 4 3.84 1.8599967956543 1 0 1 1 0.02372796 0.02443168 0.02442157 0.02415606 0.02380206 1000 0.02372796 0.02443168 0.02442157 0.02415606 0.02380206 1000 0.02303772 0.02329492 0.0225466 0.02221284 0.02251211 1000 0.02303772 0.02329492 0.0225466 0.02221284 0.02251211 1000
lala 14 0.15 1 second 17 1 196 6 4.830001 1.83999681472778 0 1 1 0 0.02299721 0.02267165 0.02338312 0.02313595 0.02269977 1000 0.02299721 0.02267165 0.02338312 0.02313595 0.02269977 1000 0.02279076 0.02304203 0.0229468 0.02322342 0.02298222 1000 0.02279076 0.02304203 0.0229468 0.02322342 0.02298222 1000
lala 10 1.2 0 second 15 1 197 5 3.05 1.33999705314636 0 1 -1 1 0.02253307 0.02227796 0.02252276 0.02254148 0.02298047 1000 0.02253307 0.02227796 0.02252276 0.02254148 0.02298047 1000 0.02306625 0.02321722 0.02383824 0.02376654 0.02344886 1000 0.02306625 0.02321722 0.02383824 0.02376654 0.02344886 1000
lala 15 0.3 1 first 17 1 198 6 4.530001 1.45999693870544 0 1 1 1 0.0234204 0.02374388 0.02444057 1000 1000 1000 0.0234204 0.02374388 0.02444057 1000 1000 1000 0.02365644 0.02421632 0.0242026 0.02389956 0.02368313 1000 0.02365644 0.02421632 0.0242026 0.02389956 0.02368313 1000
lala 8 1.2 0 first 2 1 199 5 4.5 2.07999658584595 -1 0 -1 0 0.01882018 0.0149219 0.01151651 1000 1000 1000 0.01882018 0.0149219 0.01151651 1000 1000 1000 0.01202331 0.01284901 0.01379718 0.0142402 0.01437846 1000 0.01202331 0.01284901 0.01379718 0.0142402 0.01437846 1000
lala 10 0.6 1 second 16 1 200 6 4.56 1.87999677658081 0 0 1 0 0.01668249 0.01638319 0.01615578 0.01552051 0.01609994 1000 0.01668249 0.01638319 0.01615578 0.01552051 0.01609994 1000 0.01476817 0.01577798 0.01606478 0.01587438 0.01559826 1000 0.01476817 0.01577798 0.01606478 0.01587438 0.01559826 1000
lala 10 0.6 0 first 9 1 201 5 4.85 1.27999711036682 1 1 -1 1 0.01745553 0.01675251 0.01798837 1000 1000 1000 0.01745553 0.01675251 0.01798837 1000 1000 1000 0.01856337 0.01911544 0.01927071 0.01947065 0.01927301 1000 0.01856337 0.01911544 0.01927071 0.01947065 0.01927301 1000
lala 15 0.3 1 first 14 1 202 5 3.3 0.519997835159302 0 0 1 0 0.01729007 0.01668074 0.01757105 1000 1000 1000 0.01729007 0.01668074 0.01757105 1000 1000 1000 0.01811828 0.01879431 0.01915465 0.0189628 0.01877836 1000 0.01811828 0.01879431 0.01915465 0.0189628 0.01877836 1000
lala 16 0.6 0 second 17 1 203 6 3.930001 0.879997491836548 0 1 -1 1 0.01685208 0.01805075 0.01831053 0.01822312 0.01801131 1000 0.01685208 0.01805075 0.01831053 0.01822312 0.01801131 1000 0.02000486 0.01974892 0.01993753 0.01927806 0.01974583 1000 0.02000486 0.01974892 0.01993753 0.01927806 0.01974583 1000
lala 11 0.6 0 second 15 1 204 5 3.65 0.599997758865356 0 1 -1 1 0.01811305 0.01843102 0.018271 0.0180892 0.01789782 1000 0.01811305 0.01843102 0.018271 0.0180892 0.01789782 1000 0.01841864 0.01816568 0.01889343 0.01926007 0.01897051 1000 0.01841864 0.01816568 0.01889343 0.01926007 0.01897051 1000
lala 9 1.2 0 first 2 1 205 5 5.7 0.679997682571411 -1 0 -1 0 0.01918137 0.01950076 0.01873482 1000 1000 1000 0.01918137 0.01950076 0.01873482 1000 1000 1000 0.02030014 0.0205789 0.02017982 0.02067947 0.02121848 1000 0.02030014 0.0205789 0.02017982 0.02067947 0.02121848 1000
lala 12 0.3 0 second 6 1 206 4 3.54 0.979997396469116 1 0 -1 1 0.01946576 0.02026726 0.02028417 0.01984962 0.0204207 1000 0.01946576 0.02026726 0.02028417 0.01984962 0.0204207 1000 0.02120452 0.02108076 0.02157698 0.02085549 0.02101164 1000 0.02120452 0.02108076 0.02157698 0.02085549 0.02101164 1000
lala 15 0.075 1 second 13 1 207 4 3.595 3.79999494552612 0 1 1 1 0.02003354 0.01985739 0.02016526 0.02086821 0.02016136 1000 0.02003354 0.01985739 0.02016526 0.02086821 0.02016136 1000 0.02127927 0.02148476 0.02196524 0.02180208 0.02148947 1000 0.02127927 0.02148476 0.02196524 0.02180208 0.02148947 1000
lala 10 2.4 1 second 2 1 208 5 8.1 0.699997663497925 -1 0 1 1 0.02125611 0.0212894 0.02109542 0.02091268 0.02059876 1000 0.02125611 0.0212894 0.02109542 0.02091268 0.02059876 1000 0.02118896 0.02152282 0.02143042 0.02200351 0.02231798 1000 0.02118896 0.02152282 0.02143042 0.02200351 0.02231798 1000
lala 11 0.3 1 second 16 1 209 6 4.26 2.23999643325806 0 0 1 0 0.02291418 0.02269757 0.0223405 0.02213209 0.02179665 1000 0.02291418 0.02269757 0.0223405 0.02213209 0.02179665 1000 0.02173887 0.02157877 0.02211961 0.02284165 0.02271797 1000 0.02173887 0.02157877 0.02211961 0.02284165 0.02271797 1000
lala 17 0.3 0 first 17 1 210 6 4.230001 0.679997682571411 0 1 -1 0 0.02194687 0.02239786 0.02220745 1000 1000 1000 0.02194687 0.02239786 0.02220745 1000 1000 1000 0.02444871 0.02433366 0.0244861 0.02384294 0.02428138 1000 0.02444871 0.02433366 0.0244861 0.02384294 0.02428138 1000
lala 14 0.6 1 second 7 1 211 4 4.72 0.419997930526733 1 1 1 1 0.02235701 0.02251889 0.02334443 0.02377086 0.02387096 1000 0.02235701 0.02251889 0.02334443 0.02377086 0.02387096 1000 0.02437404 0.02460428 0.02442519 0.02450081 0.02367185 1000 0.02437404 0.02460428 0.02442519 0.02450081 0.02367185 1000
lala 16 0.075 0 first 13 1 212 4 3.52 0.379997968673706 0 1 -1 0 0.02299164 0.02348898 0.0230337 1000 1000 1000 0.02299164 0.02348898 0.0230337 1000 1000 1000 0.02464213 0.0249583 0.02466569 0.0247393 0.02467196 1000 0.02464213 0.0249583 0.02466569 0.0247393 0.02467196 1000
lala 13 1.2 1 first 5 1 213 6 6.180001 1.05999732017517 -1 1 1 0 0.02388711 0.02365704 0.02305423 1000 1000 1000 0.02388711 0.02365704 0.02305423 1000 1000 1000 0.02464492 0.02432441 0.02512525 0.02566446 0.02525561 1000 0.02464492 0.02432441 0.02512525 0.02566446 0.02525561 1000
lala 12 0.3 0 second 16 1 214 6 3.96 0.539997816085815 0 0 -1 0 -0.0148617 -0.013307 -0.01136068 -0.01019969 -0.009665594 1000 -0.0148617 -0.013307 -0.01136068 -0.01019969 -0.009665594 1000 -0.005467666 -0.004100056 -0.002805847 -0.003209557 -0.003091781 1000 -0.005467666 -0.004100056 -0.002805847 -0.003209557 -0.003091781 1000
lala 12 0.15 0 first 1 1 215 4 4.87 2.31999635696411 -1 1 -1 1 -0.001629603 -0.001598477 -0.0008568612 1000 1000 1000 -0.001629603 -0.001598477 -0.0008568612 1000 1000 1000 0.0006849184 0.001071921 0.001081524 0.001433272 0.001435032 1000 0.0006849184 0.001071921 0.001081524 0.001433272 0.001435032 1000
lala 13 0.15 0 first 16 1 216 6 4.11 0.659997701644897 0 0 -1 0 0.005666949 0.005730172 0.005658549 1000 1000 1000 0.005666949 0.005730172 0.005658549 1000 1000 1000 0.006555747 0.006930206 0.006737502 0.007425252 0.007986223 1000 0.006555747 0.006930206 0.006737502 0.007425252 0.007986223 1000
lala 11 0.6 1 first 9 1 217 5 5.45 0.519997835159302 1 1 1 0 0.00860084 0.008059645 0.00869312 1000 1000 1000 0.00860084 0.008059645 0.00869312 1000 1000 1000 0.008838885 0.009364025 0.009766594 0.009514592 0.009342751 1000 0.008838885 0.009364025 0.009766594 0.009514592 0.009342751 1000
lala 15 0.3 0 second 7 1 218 4 4.42 1.89999675750732 1 1 -1 1 0.01040202 0.0105698 0.01011983 0.01000863 0.01068207 1000 0.01040202 0.0105698 0.01011983 0.01000863 0.01068207 1000 0.01031539 0.01060463 0.01099282 0.01068915 0.01073383 1000 0.01031539 0.01060463 0.01099282 0.01068915 0.01073383 1000
lala 14 0.6 1 second 5 1 219 6 5.580001 0.879997491836548 -1 1 1 0 0.01108404 0.0109785 0.01095412 0.01133495 0.01123777 1000 0.01108404 0.0109785 0.01095412 0.01133495 0.01123777 1000 0.01097632 0.01125127 0.01052671 0.01118794 0.01147646 1000 0.01097632 0.01125127 0.01052671 0.01118794 0.01147646 1000
lala 12 0.3 0 second 12 1 220 4 2.64 0.959997415542603 0 0 -1 0 0.01157667 0.01162887 0.01138649 0.01166082 0.01091202 1000 0.01157667 0.01162887 0.01138649 0.01166082 0.01091202 1000 0.01114611 0.01214708 0.01256189 0.01255901 0.0125622 1000 0.01114611 0.01214708 0.01256189 0.01255901 0.0125622 1000
lala 13 0.075 1 first 1 1 221 4 4.945 1.61999702453613 -1 1 1 1 0.01603289 0.01678191 0.01766947 1000 1000 1000 0.01603289 0.01678191 0.01766947 1000 1000 1000 0.005514767 0.00439674 0.005821766 0.007508278 0.01034267 1000 0.005514767 0.00439674 0.005821766 0.007508278 0.01034267 1000
lala 15 0.6 1 second 5 1 222 6 4.980001 3.05999565124512 -1 1 1 1 0.01108504 0.01094196 0.01109141 0.01108324 0.01145044 1000 0.01108504 0.01094196 0.01109141 0.01108324 0.01145044 1000 0.01250437 0.01245392 0.01236964 0.0121207 0.01172201 1000 0.01250437 0.01245392 0.01236964 0.0121207 0.01172201 1000
lala 16 0.3 0 first 14 1 223 5 3 2.55999612808228 0 0 -1 1 0.01304285 0.01341603 0.01311827 1000 1000 1000 0.01304285 0.01341603 0.01311827 1000 1000 1000 0.01207735 0.0122358 0.0122132 0.01223199 0.01274221 1000 0.01207735 0.0122358 0.0122132 0.01223199 0.01274221 1000
lala 18 0.3 0 first 17 1 224 6 4.530001 2.31999635696411 0 1 -1 1 0.01197135 0.01206427 0.0122207 1000 1000 1000 0.01197135 0.01206427 0.0122207 1000 1000 1000 0.01225058 0.01351076 0.01296931 0.01221939 0.01231613 1000 0.01225058 0.01351076 0.01296931 0.01221939 0.01231613 1000
lala 18 0.01875 0 first 3 1 225 5 4.19375 1.13999724388123 -1 1 -1 1 0.01349731 0.0136264 0.01369426 1000 1000 1000 0.01349731 0.0136264 0.01369426 1000 1000 1000 0.01302791 0.01335603 0.01388739 0.01399639 0.01423566 1000 0.01302791 0.01335603 0.01388739 0.01399639 0.01423566 1000
lala 14 0.0375 1 first 1 1 226 4 4.9075 1.35999703407288 -1 1 1 0 0.0143991 0.01363622 0.01364836 1000 1000 1000 0.0143991 0.01363622 0.01364836 1000 1000 1000 0.01462462 0.01479542 0.01533365 0.01537259 0.01520693 1000 0.01462462 0.01479542 0.01533365 0.01537259 0.01520693 1000
lala 11 0.6 0 second 4 1 227 6 4.56 0.499997854232788 -1 0 -1 0 0.01448119 0.01571591 0.01648427 0.01690762 0.01857128 1000 0.01448119 0.01571591 0.01648427 0.01690762 0.01857128 1000 0.01935556 0.01984913 0.02009695 0.0203719 0.02182886 1000 0.01935556 0.01984913 0.02009695 0.0203719 0.02182886 1000
lala 17 0.15 0 first 14 1 228 5 3.15 1.45999693870544 0 0 -1 0 0.01497868 0.01028707 0.007492098 1000 1000 1000 0.01497868 0.01028707 0.007492098 1000 1000 1000 0.00818898 0.009728443 0.01110979 0.0117731 0.01138587 1000 0.00818898 0.009728443 0.01110979 0.0117731 0.01138587 1000
lala 12 0.3 0 first 9 1 229 5 5.15 0.799997568130493 1 1 -1 1 0.01540087 0.01562662 0.01577849 1000 1000 1000 0.01540087 0.01562662 0.01577849 1000 1000 1000 0.01738459 0.01772219 0.01793949 0.01810833 0.01767541 1000 0.01738459 0.01772219 0.01793949 0.01810833 0.01767541 1000
lala 13 0.15 0 first 6 1 230 4 3.69 0.839997529983521 1 0 -1 0 0.02014553 0.02027081 0.02017257 1000 1000 1000 0.02014553 0.02027081 0.02017257 1000 1000 1000 0.02322981 0.02367956 0.02393766 0.02360562 0.02375835 1000 0.02322981 0.02367956 0.02393766 0.02360562 0.02375835 1000
lala 16 0.6 0 first 5 1 231 6 4.380002 1.49999690055847 -1 1 -1 1 0.02472906 0.02523404 0.02576059 1000 1000 1000 0.02472906 0.02523404 0.02576059 1000 1000 1000 0.01646714 0.01678149 0.01836371 0.01885368 0.01890101 1000 0.01646714 0.01678149 0.01836371 0.01885368 0.01890101 1000
lala 17 0.0375 1 first 13 1 232 4 3.5575 1.77999687194824 0 1 1 0 0.01780929 0.01858358 0.01899023 1000 1000 1000 0.01780929 0.01858358 0.01899023 1000 1000 1000 0.01832747 0.01806932 0.01852033 0.01839298 0.01843825 1000 0.01832747 0.01806932 0.01852033 0.01839298 0.01843825 1000
lala 19 0.0375 0 second 3 1 233 5 4.23125 4.03999471664429 -1 1 -1 1 0.02000012 0.01962818 0.01999441 0.02007262 0.0201166 1000 0.02000012 0.01962818 0.01999441 0.02007262 0.0201166 1000 0.02035934 0.02029732 0.02057871 0.02018426 0.02018902 1000 0.02035934 0.02029732 0.02057871 0.02018426 0.02018902 1000
lala 11 0.6 1 second 8 1 234 5 4.5 2.71999597549438 1 0 1 1 0.02239895 0.02225441 0.0223265 0.02250983 0.02259184 1000 0.02239895 0.02225441 0.0223265 0.02250983 0.02259184 1000 0.02282127 0.02290281 0.02231367 0.02299915 0.02323218 1000 0.02282127 0.02290281 0.02231367 0.02299915 0.02323218 1000
lala 8 1.2 0 second 11 1 235 6 4.380001 0.439997911453247 1 1 -1 0 0.02370258 0.02343349 0.02366944 0.02284335 0.02301714 1000 0.02370258 0.02343349 0.02366944 0.02284335 0.02301714 1000 0.02175345 0.02225535 0.02254475 0.02265036 0.02243751 1000 0.02175345 0.02225535 0.02254475 0.02265036 0.02243751 1000
lala 19 0.3 1 first 17 1 236 6 4.830001 0.99999737739563 0 1 1 1 0.02396953 0.02389123 0.0247076 1000 1000 1000 0.02396953 0.02389123 0.0247076 1000 1000 1000 0.02312742 0.02276075 0.02327971 0.02323165 0.02350881 1000 0.02312742 0.02276075 0.02327971 0.02323165 0.02350881 1000
lala 13 0.15 1 first 12 1 237 4 2.79 2.19999647140503 0 0 1 0 0.02444739 0.02460384 0.02457638 1000 1000 1000 0.02444739 0.02460384 0.02457638 1000 1000 1000 0.01145518 0.0119606 0.01338537 0.01376344 0.01301149 1000 0.01145518 0.0119606 0.01338537 0.01376344 0.01301149 1000
lala 11 1.2 1 first 2 1 238 5 6.900001 0.759997606277466 -1 0 1 0 0.00161588 0.002090686 0.00410881 1000 1000 1000 0.00161588 0.002090686 0.00410881 1000 1000 1000 0.009213065 0.009151376 0.009052686 0.009141945 0.009157065 1000 0.009213065 0.009151376 0.009052686 0.009141945 0.009157065 1000
lala 12 1.2 1 first 2 1 239 5 5.700001 1.01999735832214 -1 0 1 0 0.009417562 0.009668545 0.009752772 1000 1000 1000 0.009417562 0.009668545 0.009752772 1000 1000 1000 0.0126193 0.01259762 0.01250479 0.01229921 0.01225598 1000 0.0126193 0.01259762 0.01250479 0.01229921 0.01225598 1000
lala 15 0.0375 1 first 1 1 240 4 4.87 1.0999972820282 -1 1 1 1 0.01131689 0.01113244 0.01118599 1000 1000 1000 0.01131689 0.01113244 0.01118599 1000 1000 1000 0.01376586 0.01349074 0.01359416 0.01405905 0.01405305 1000 0.01376586 0.01349074 0.01359416 0.01405905 0.01405305 1000
lala 18 0.15 1 second 14 1 241 5 3.3 1.55999684333801 0 0 1 0 0.0165652 0.01667757 0.01670864 0.01689132 0.01677936 1000 0.0165652 0.01667757 0.01670864 0.01689132 0.01677936 1000 0.01537533 0.01532849 0.01607452 0.01609917 0.01575268 1000 0.01537533 0.01532849 0.01607452 0.01609917 0.01575268 1000
lala 13 1.2 1 first 2 1 242 5 4.500001 0.599997758865356 -1 0 1 0 0.01679754 0.01760802 0.01756015 1000 1000 1000 0.01679754 0.01760802 0.01756015 1000 1000 1000 0.01642095 0.0159119 0.01544005 0.01592058 0.01651989 1000 0.01642095 0.0159119 0.01544005 0.01592058 0.01651989 1000
lala 13 0.15 1 second 9 1 243 5 5.3 0.639997720718384 1 1 1 0 0.01806599 0.01895021 0.01923607 0.01907243 0.01888668 1000 0.01806599 0.01895021 0.01923607 0.01907243 0.01888668 1000 0.01794664 0.01766641 0.0171832 0.01771374 0.01757815 1000 0.01794664 0.01766641 0.0171832 0.01771374 0.01757815 1000
lala 18 0.01875 0 second 13 1 244 4 3.53875 0.539997816085815 0 1 -1 1 0.0192876 0.01913838 0.01887925 0.01952597 0.01941558 1000 0.0192876 0.01913838 0.01887925 0.01952597 0.01941558 1000 0.01802013 0.01788925 0.0176536 0.01773128 0.01810837 1000 0.01802013 0.01788925 0.0176536 0.01773128 0.01810837 1000
lala 16 0.0375 1 first 1 1 245 4 4.8325 1.13999724388123 -1 1 1 1 0.01949475 0.02005453 0.02007686 1000 1000 1000 0.01949475 0.02005453 0.02007686 1000 1000 1000 0.01859408 0.01915688 0.01861511 0.01834595 0.01898007 1000 0.01859408 0.01915688 0.01861511 0.01834595 0.01898007 1000
lala 14 2.4 0 first 2 1 246 5 2.100001 0.379997968673706 -1 0 -1 1 0.02084793 0.02108676 0.02057947 1000 1000 1000 0.02084793 0.02108676 0.02057947 1000 1000 1000 0.01970284 0.01999029 0.01967424 0.02034363 0.02125482 1000 0.01970284 0.01999029 0.01967424 0.02034363 0.02125482 1000
lala 16 0.15 1 first 7 1 247 4 4.57 0.61999773979187 1 1 1 1 0.02150743 0.0214499 0.0211769 1000 1000 1000 0.02150743 0.0214499 0.0211769 1000 1000 1000 0.01913763 0.02032428 0.02106991 0.02078556 0.0205836 1000 0.01913763 0.02032428 0.02106991 0.02078556 0.0205836 1000
lala 12 0.3 0 first 4 1 248 6 4.86 0.939997434616089 -1 0 -1 1 0.02220988 0.02186163 0.0225732 1000 1000 1000 0.02220988 0.02186163 0.0225732 1000 1000 1000 0.02142978 0.02228307 0.02203684 0.02210193 0.02221336 1000 0.02142978 0.02228307 0.02203684 0.02210193 0.02221336 1000
lala 14 0.15 0 first 16 1 249 6 4.26 2.7399959564209 0 0 -1 0 0.02193824 0.02234327 0.02290511 1000 1000 1000 0.02193824 0.02234327 0.02290511 1000 1000 1000 0.02050958 0.0210277 0.02151416 0.0213135 0.02126968 1000 0.02050958 0.0210277 0.02151416 0.0213135 0.02126968 1000
lala 13 0.3 1 second 4 1 250 6 5.16 0.659997701644897 -1 0 1 1 -0.0007153077 -0.002036063 -0.002376572 0.001557758 0.004906275 1000 -0.0007153077 -0.002036063 -0.002376572 0.001557758 0.004906275 1000 0.002930173 0.002807081 0.004337681 0.004818266 0.005094836 1000 0.002930173 0.002807081 0.004337681 0.004818266 0.005094836 1000
lala 17 0.3 0 second 5 1 251 6 4.680002 0.679997682571411 -1 1 -1 0 0.005530794 0.006097184 0.006602229 0.005403767 0.005073814 1000 0.005530794 0.006097184 0.006602229 0.005403767 0.005073814 1000 0.006348128 0.007789189 0.008387658 0.00834044 0.008289061 1000 0.006348128 0.007789189 0.008387658 0.00834044 0.008289061 1000
lala 9 1.2 1 second 11 1 252 6 5.580001 1.11999726295471 1 1 1 0 0.01194675 0.01148853 0.01171354 0.01167932 0.01143953 1000 0.01194675 0.01148853 0.01171354 0.01167932 0.01143953 1000 0.01097485 0.011687 0.01140827 0.01124343 0.01172768 1000 0.01097485 0.011687 0.01140827 0.01124343 0.01172768 1000
lala 17 0.075 0 first 7 1 253 4 4.495 0.339998006820679 1 1 -1 0 0.01245625 0.01256642 0.0126943 1000 1000 1000 0.01245625 0.01256642 0.0126943 1000 1000 1000 0.01311006 0.0129671 0.01399616 0.01375516 0.01357043 1000 0.01311006 0.0129671 0.01399616 0.01375516 0.01357043 1000
lala 20 0.15 1 first 17 1 254 6 4.680001 0.879997491836548 0 1 1 1 0.01132463 0.009893964 0.006995113 1000 1000 1000 0.01132463 0.009893964 0.006995113 1000 1000 1000 0.01511187 0.01512021 0.01510224 0.01476682 0.01466369 1000 0.01511187 0.01512021 0.01510224 0.01476682 0.01466369 1000
lala 12 0.6 0 first 15 1 255 5 4.25 0.419997930526733 0 1 -1 0 0.0148969 0.01354623 0.01017945 1000 1000 1000 0.0148969 0.01354623 0.01017945 1000 1000 1000 0.01493818 0.01605994 0.0169132 0.01652808 0.01667301 1000 0.01493818 0.01605994 0.0169132 0.01652808 0.01667301 1000
lala 18 0.3 0 first 5 1 256 6 4.980002 0.679997682571411 -1 1 -1 1 0.01912849 0.01919951 0.01900941 1000 1000 1000 0.01912849 0.01919951 0.01900941 1000 1000 1000 0.0202264 0.02127337 0.02089145 0.02067601 0.02158649 1000 0.0202264 0.02127337 0.02089145 0.02067601 0.02158649 1000
lala 19 0.009375 0 second 13 1 257 4 3.548125 2.11999654769897 0 1 -1 0 0.02287637 0.02334066 0.02357764 0.02411844 0.024481 1000 0.02287637 0.02334066 0.02357764 0.02411844 0.024481 1000 0.02548655 0.02572446 0.02560862 0.02614211 0.02565486 1000 0.02548655 0.02572446 0.02560862 0.02614211 0.02565486 1000
lala 14 0.15 0 second 4 1 258 6 5.01 1.13999724388123 -1 0 -1 0 0.003042216 0.003217852 0.003475128 0.00375237 0.005111831 1000 0.003042216 0.003217852 0.003475128 0.00375237 0.005111831 1000 0.004854909 0.005087535 0.005208739 0.005663799 0.004645586 1000 0.004854909 0.005087535 0.005208739 0.005663799 0.004645586 1000
lala 14 0.15 0 first 6 1 259 4 3.84 1.15999722480774 1 0 -1 1 0.00983924 0.01030343 0.009056194 1000 1000 1000 0.00983924 0.01030343 0.009056194 1000 1000 1000 0.009477533 0.009776406 0.01002799 0.01046303 0.009884627 1000 0.009477533 0.009776406 0.01002799 0.01046303 0.009884627 1000
lala 10 0.6 0 first 10 1 260 6 4.56 1.47999691963196 1 0 -1 0 0.01179657 0.01124867 0.01223987 1000 1000 1000 0.01179657 0.01124867 0.01223987 1000 1000 1000 0.01242004 0.01268121 0.01397424 0.01433257 0.01454114 1000 0.01242004 0.01268121 0.01397424 0.01433257 0.01454114 1000
lala 15 0.15 0 first 6 1 261 4 3.99 1.95999670028687 1 0 -1 0 0.01352506 0.01437825 0.01438929 1000 1000 1000 0.01352506 0.01437825 0.01438929 1000 1000 1000 0.01684082 0.01713501 0.01727446 0.01714259 0.01783292 1000 0.01684082 0.01713501 0.01727446 0.01714259 0.01783292 1000
lala 21 0.15 0 first 17 1 262 6 4.530001 0.579997777938843 0 1 -1 1 0.01811849 0.01893443 0.02013566 1000 1000 1000 0.01811849 0.01893443 0.02013566 1000 1000 1000 0.02025623 0.02016196 0.02091925 0.02120543 0.02109264 1000 0.02025623 0.02016196 0.02091925 0.02120543 0.02109264 1000
lala 16 0.3 1 second 6 1 263 4 4.29 2.87999582290649 1 0 1 1 0.02264646 0.02269757 0.02307818 0.02302348 0.02310104 1000 0.02264646 0.02269757 0.02307818 0.02302348 0.02310104 1000 0.02300115 0.02258049 0.02175781 0.02264092 0.02284211 1000 0.02300115 0.02258049 0.02175781 0.02264092 0.02284211 1000
lala 14 0.075 0 first 9 1 264 5 5.225 1.91999673843384 1 1 -1 1 -0.01023387 -0.01284247 -0.01832821 1000 1000 1000 -0.01023387 -0.01284247 -0.01832821 1000 1000 1000 -0.0116604 -0.0116878 -0.01062742 -0.01007251 -0.01052291 1000 -0.0116604 -0.0116878 -0.01062742 -0.01007251 -0.01052291 1000
lala 14 0.075 0 first 12 1 265 4 2.715 1.19999718666077 0 0 -1 0 -0.005074986 -0.005079951 -0.00511144 1000 1000 1000 -0.005074986 -0.005079951 -0.00511144 1000 1000 1000 -0.002752519 -0.002444857 -0.001682108 -0.001524016 -0.0009952239 1000 -0.002752519 -0.002444857 -0.001682108 -0.001524016 -0.0009952239 1000
lala 11 0.6 1 second 10 1 266 6 5.16 0.739997625350952 1 0 1 1 -0.0006915705 -0.0004405578 -0.0002135706 -0.0003696724 -0.0001589352 1000 -0.0006915705 -0.0004405578 -0.0002135706 -0.0003696724 -0.0001589352 1000 -0.0007991573 -0.0004455142 0.001066466 0.001808192 0.002009355 1000 -0.0007991573 -0.0004455142 0.001066466 0.001808192 0.002009355 1000
lala 15 1.2 0 second 2 1 267 5 3.300001 0.459997892379761 -1 0 -1 0 0.003015559 0.002592916 0.00242215 0.003109147 0.002457136 1000 0.003015559 0.002592916 0.00242215 0.003109147 0.002457136 1000 0.003474646 0.004915655 0.00540767 0.005597802 0.005472633 1000 0.003474646 0.004915655 0.00540767 0.005597802 0.005472633 1000
lala 17 0.075 0 first 1 1 268 4 4.7575 0.779997587203979 -1 1 -1 1 0.004352394 0.003429562 0.004362479 1000 1000 1000 0.004352394 0.003429562 0.004362479 1000 1000 1000 0.004489346 0.004163732 0.005076551 0.005390576 0.005713142 1000 0.004489346 0.004163732 0.005076551 0.005390576 0.005713142 1000
lala 13 0.6 0 second 15 1 269 5 4.85 1.37999701499939 0 1 -1 1 0.00600157 0.005927349 0.005741824 0.006195306 0.005541257 1000 0.00600157 0.005927349 0.005741824 0.006195306 0.005541257 1000 0.005720968 0.006461655 0.006662352 0.006952622 0.007078568 1000 0.005720968 0.006461655 0.006662352 0.006952622 0.007078568 1000
lala 15 0.15 0 second 16 1 270 6 4.41 0.779997587203979 0 0 -1 0 0.006933705 0.007190412 0.007461532 0.007583363 0.007785782 1000 0.006933705 0.007190412 0.007461532 0.007583363 0.007785782 1000 0.007638616 0.00786394 0.007159965 0.007754486 0.008138386 1000 0.007638616 0.00786394 0.007159965 0.007754486 0.008138386 1000
lala 14 1.2 1 first 15 1 271 5 6.05 1.43999695777893 0 1 1 1 0.006800993 0.007334661 0.00627295 1000 1000 1000 0.006800993 0.007334661 0.00627295 1000 1000 1000 0.008152057 0.007576964 0.007596779 0.008322524 0.008309565 1000 0.008152057 0.007576964 0.007596779 0.008322524 0.008309565 1000
lala 12 0.3 1 second 10 1 272 6 4.86 1.89999675750732 1 0 1 1 0.007444725 0.008293465 0.008478643 0.00877838 0.008808251 1000 0.007444725 0.008293465 0.008478643 0.00877838 0.008808251 1000 0.009006684 0.008733881 0.009227232 0.008753421 0.008625704 1000 0.009006684 0.008733881 0.009227232 0.008753421 0.008625704 1000
lala 22 0.075 0 first 17 1 273 6 4.605001 0.439997911453247 0 1 -1 0 0.009063964 0.009992482 0.01052079 1000 1000 1000 0.009063964 0.009992482 0.01052079 1000 1000 1000 0.01100987 0.01114022 0.01144408 0.01132913 0.01121221 1000 0.01100987 0.01114022 0.01144408 0.01132913 0.01121221 1000
lala 10 1.2 0 second 0 1 274 4 3.84 0.459997892379761 -1 0 -1 0 0.01232744 0.01265925 0.01248273 0.0122009 0.01333494 1000 0.01232744 0.01265925 0.01248273 0.0122009 0.01333494 1000 0.01138687 0.01108478 0.0114808 0.0118877 0.0120956 1000 0.01138687 0.01108478 0.0114808 0.0118877 0.0120956 1000
lala 15 0.0375 0 second 12 1 275 4 2.7525 0.719997644424438 0 0 -1 1 0.0130647 0.01318407 0.01318533 0.01320095 0.01346444 1000 0.0130647 0.01318407 0.01318533 0.01320095 0.01346444 1000 0.01251439 0.01159869 0.01221219 0.01294566 0.01277054 1000 0.01251439 0.01159869 0.01221219 0.01294566 0.01277054 1000
lala 16 0.3 0 second 16 1 276 6 4.71 2.05999660491943 0 0 -1 0 0.01321498 0.01311587 0.01318665 0.01328814 0.01350029 1000 0.01321498 0.01311587 0.01318665 0.01328814 0.01350029 1000 0.01305203 0.01237816 0.01268603 0.0135309 0.01364259 1000 0.01305203 0.01237816 0.01268603 0.0135309 0.01364259 1000
lala 20 0.075 1 second 3 1 277 5 4.30625 1.07999730110168 -1 1 1 0 -0.002745943 -0.004488279 -0.005670665 -0.005942853 -0.005088082 1000 -0.002745943 -0.004488279 -0.005670665 -0.005942853 -0.005088082 1000 -0.01297728 -0.01317345 -0.009289704 -0.006119535 -0.003948031 1000 -0.01297728 -0.01317345 -0.009289704 -0.006119535 -0.003948031 1000
lala 15 0.6 1 first 15 1 278 5 5.45 0.939997434616089 0 1 1 1 -0.002646317 -0.003232447 -0.00262557 1000 1000 1000 -0.002646317 -0.003232447 -0.00262557 1000 1000 1000 0.001619489 0.001057539 0.001866983 0.002022584 0.00236358 1000 0.001619489 0.001057539 0.001866983 0.002022584 0.00236358 1000
lala 13 0.3 0 first 10 1 279 6 4.559999 2.69999599456787 1 0 -1 1 0.002455632 0.003233578 0.003709104 1000 1000 1000 0.002455632 0.003233578 0.003709104 1000 1000 1000 0.003967864 0.004823643 0.005287979 0.005114509 0.004966353 1000 0.003967864 0.004823643 0.005287979 0.005114509 0.004966353 1000
lala 17 0.6 0 first 16 1 280 6 5.31 0.439997911453247 0 0 -1 1 0.004628552 0.004095736 0.004892543 1000 1000 1000 0.004628552 0.004095736 0.004892543 1000 1000 1000 0.00709883 0.007566883 0.0072172 0.007077042 0.007460417 1000 0.00709883 0.007566883 0.0072172 0.007077042 0.007460417 1000
lala 16 0.6 1 first 15 1 281 5 4.85 0.61999773979187 0 1 1 1 0.005853623 0.006135519 0.007051907 1000 1000 1000 0.005853623 0.006135519 0.007051907 1000 1000 1000 0.009399938 0.01001795 0.01060004 0.01066011 0.01052641 1000 0.009399938 0.01001795 0.01060004 0.01066011 0.01052641 1000
lala 14 0.15 0 second 10 1 282 6 4.71 1.15999722480774 1 0 -1 0 0.01029525 0.01032508 0.01027905 0.01018297 0.01022913 1000 0.01029525 0.01032508 0.01027905 0.01018297 0.01022913 1000 0.01121905 0.01177417 0.01177051 0.01125776 0.0119471 1000 0.01121905 0.01177417 0.01177051 0.01125776 0.0119471 1000
lala 20 0.009375 1 first 13 1 283 4 3.5575 1.15999722480774 0 1 1 0 0.01087241 0.0112661 0.01118208 1000 1000 1000 0.01087241 0.0112661 0.01118208 1000 1000 1000 0.01050461 0.01109218 0.01140841 0.01115068 0.01113166 1000 0.01050461 0.01109218 0.01140841 0.01115068 0.01113166 1000
lala 21 0.0046875 1 second 13 1 284 4 3.552813 0.719997644424438 0 1 1 0 0.002545391 0.003099228 0.002269104 0.001257405 0.004785771 1000 0.002545391 0.003099228 0.002269104 0.001257405 0.004785771 1000 0.010221 0.0110775 0.01129617 0.01187718 0.01272239 1000 0.010221 0.0110775 0.01129617 0.01187718 0.01272239 1000
lala 19 0.075 0 second 14 1 285 5 3.225 1.77999687194824 0 0 -1 1 0.009426988 0.009135631 0.008890451 0.009545302 0.009836339 1000 0.009426988 0.009135631 0.008890451 0.009545302 0.009836339 1000 0.01089948 0.01120845 0.01111025 0.01157404 0.01108792 1000 0.01089948 0.01120845 0.01111025 0.01157404 0.01108792 1000
lala 17 0.15 1 second 6 1 286 4 4.14 1.57999682426453 1 0 1 1 0.01240948 0.01244174 0.01197609 0.01181236 0.01192177 1000 0.01240948 0.01244174 0.01197609 0.01181236 0.01192177 1000 0.01122988 0.0102495 0.0106186 0.01124902 0.01161294 1000 0.01122988 0.0102495 0.0106186 0.01124902 0.01161294 1000
lala 21 0.0375 0 first 3 1 287 5 4.26875 0.61999773979187 -1 1 -1 0 0.01244019 0.01258898 0.01246654 1000 1000 1000 0.01244019 0.01258898 0.01246654 1000 1000 1000 0.01164642 0.01194478 0.01203375 0.01287954 0.01263588 1000 0.01164642 0.01194478 0.01203375 0.01287954 0.01263588 1000
lala 23 0.075 1 first 17 1 288 6 4.680001 0.679997682571411 0 1 1 1 0.01233842 0.01232934 0.01257775 1000 1000 1000 0.01233842 0.01232934 0.01257775 1000 1000 1000 0.01250272 0.01258108 0.01259444 0.01289936 0.01321866 1000 0.01250272 0.01258108 0.01259444 0.01289936 0.01321866 1000
lala 18 1.2 1 first 16 1 289 6 6.51 0.539997816085815 0 0 1 0 0.01287688 0.01285798 0.01334993 1000 1000 1000 0.01287688 0.01285798 0.01334993 1000 1000 1000 0.0129564 0.01291615 0.01324205 0.01337734 0.01371776 1000 0.0129564 0.01291615 0.01324205 0.01337734 0.01371776 1000
lala 12 0.6 0 second 8 1 290 5 3.9 0.419997930526733 1 0 -1 0 0.01426617 0.01421619 0.01373329 0.01321129 0.01411305 1000 0.01426617 0.01421619 0.01373329 0.01321129 0.01411305 1000 0.01389366 0.01376523 0.01393478 0.01381466 0.01427904 1000 0.01389366 0.01376523 0.01393478 0.01381466 0.01427904 1000
lala 19 0.3 1 second 5 1 291 6 5.280002 1.19999718666077 -1 1 1 0 0.01456223 0.01462724 0.01456334 0.01522637 0.01451631 1000 0.01456223 0.01462724 0.01456334 0.01522637 0.01451631 1000 0.01335874 0.01284028 0.01354423 0.01410104 0.01402929 1000 0.01335874 0.01284028 0.01354423 0.01410104 0.01402929 1000
lala 22 0.01875 0 first 3 1 292 5 4.2875 0.779997587203979 -1 1 -1 1 0.01485715 0.0151647 0.01557317 1000 1000 1000 0.01485715 0.0151647 0.01557317 1000 1000 1000 0.01480626 0.01462436 0.01539259 0.01520592 0.01550419 1000 0.01480626 0.01462436 0.01539259 0.01520592 0.01550419 1000
lala 22 0.0046875 1 first 13 1 293 4 3.548125 0.919997453689575 0 1 1 0 0.01575548 0.01628341 0.0156002 1000 1000 1000 0.01575548 0.01628341 0.0156002 1000 1000 1000 0.0153546 0.01498749 0.01493614 0.01612172 0.0164877 1000 0.0153546 0.01498749 0.01493614 0.01612172 0.0164877 1000
lala 16 0.0375 0 second 12 1 294 4 2.79 1.11999726295471 0 0 -1 1 0.01553289 0.01498675 0.01563472 0.01512132 0.01468628 1000 0.01553289 0.01498675 0.01563472 0.01512132 0.01468628 1000 0.01581464 0.01616387 0.0163622 0.01651437 0.01654392 1000 0.01581464 0.01616387 0.0163622 0.01651437 0.01654392 1000
lala 18 0.15 0 first 6 1 295 4 3.99 0.739997625350952 1 0 -1 0 0.01599561 0.01578557 0.0148264 1000 1000 1000 0.01599561 0.01578557 0.0148264 1000 1000 1000 0.01750869 0.01684785 0.01636282 0.01680055 0.01687154 1000 0.01750869 0.01684785 0.01636282 0.01680055 0.01687154 1000
lala 24 0.0375 1 first 17 1 296 6 4.642501 0.779997587203979 0 1 1 1 0.01623808 0.01594626 0.01612258 1000 1000 1000 0.01623808 0.01594626 0.01612258 1000 1000 1000 0.01776282 0.01712884 0.01777263 0.01795666 0.01787537 1000 0.01776282 0.01712884 0.01777263 0.01795666 0.01787537 1000
lala 18 0.0375 0 second 7 1 297 4 4.5325 0.879997491836548 1 1 -1 0 0.01796424 0.01772713 0.01735874 0.01774561 0.01720264 1000 0.01796424 0.01772713 0.01735874 0.01774561 0.01720264 1000 0.01755416 0.01689017 0.01785329 0.01822932 0.0179882 1000 0.01755416 0.01689017 0.01785329 0.01822932 0.0179882 1000
lala 16 1.2 1 second 2 1 298 5 4.500001 1.17999720573425 -1 0 1 0 0.01731995 0.0172448 0.01712251 0.01761223 0.01770092 1000 0.01731995 0.0172448 0.01712251 0.01761223 0.01770092 1000 0.01777509 0.0169298 0.01782547 0.01843093 0.01813913 1000 0.01777509 0.0169298 0.01782547 0.01843093 0.01813913 1000
lala 19 0.6 1 first 16 1 299 6 5.91 0.679997682571411 0 0 1 0 0.01662936 0.01667473 0.01669926 1000 1000 1000 0.01662936 0.01667473 0.01669926 1000 1000 1000 0.01776159 0.01779722 0.017987 0.01841457 0.01786234 1000 0.01776159 0.01779722 0.017987 0.01841457 0.01786234 1000
lala 13 0.3 1 first 8 1 300 5 4.2 0.459997892379761 1 0 1 1 0.01832485 0.01894184 0.0188671 0.01847639 0.01827391 0.01808737 0.01832485 0.01894184 0.0188671 0.01847639 0.01827391 0.01808737 0.01844212 0.0189148 0.01887614 0.01913288 0.01803103 1000 0.01844212 0.0189148 0.01887614 0.01913288 0.01803103 1000
lala 14 0.15 1 second 8 1 301 5 4.05 1.73999691009521 1 0 1 1 0.01907524 0.01902645 0.01971076 0.01913274 0.01821929 1000 0.01907524 0.01902645 0.01971076 0.01913274 0.01821929 1000 0.0197586 0.01989961 0.01968421 0.01975899 0.01962977 1000 0.0197586 0.01989961 0.01968421 0.01975899 0.01962977 1000
lala 15 0.15 0 second 8 1 302 5 3.9 0.779997587203979 1 0 -1 0 0.01813834 0.0183379 0.01875665 0.01793591 0.01758737 1000 0.01813834 0.0183379 0.01875665 0.01793591 0.01758737 1000 0.01823216 0.01821498 0.01953154 0.01907207 0.01941004 1000 0.01823216 0.01821498 0.01953154 0.01907207 0.01941004 1000
lala 23 0.01875 0 second 3 1 303 5 4.306251 0.499997854232788 -1 1 -1 0 0.02026479 0.02001081 0.01974177 0.01981045 0.01959557 1000 0.02026479 0.02001081 0.01974177 0.01981045 0.01959557 1000 0.01893338 0.01884565 0.0196608 0.0196452 0.01937441 1000 0.01893338 0.01884565 0.0196608 0.0196452 0.01937441 1000
lala 18 0.0375 0 second 1 1 304 4 4.795 0.739997625350952 -1 1 -1 1 0.02004142 0.02039927 0.02058185 0.0206174 0.02024124 1000 0.02004142 0.02039927 0.02058185 0.0206174 0.02024124 1000 0.01975793 0.02032372 0.01965403 0.01988544 0.02026376 1000 0.01975793 0.02032372 0.01965403 0.01988544 0.02026376 1000
lala 17 0.0375 0 second 12 1 305 4 2.8275 1.07999730110168 0 0 -1 1 0.0208179 0.02052364 0.02056885 0.02021768 0.0207181 1000 0.0208179 0.02052364 0.02056885 0.02021768 0.0207181 1000 0.02014331 0.01935839 0.01998451 0.02035864 0.02036493 1000 0.02014331 0.01935839 0.01998451 0.02035864 0.02036493 1000
lala 20 0.0375 1 second 14 1 306 5 3.2625 2.39999628067017 0 0 1 0 -0.03676246 -0.0239344 0.007822266 0.03022008 0.03869443 1000 -0.03676246 -0.0239344 0.007822266 0.03022008 0.03869443 1000 0.02114288 0.01661691 0.01965275 0.01987204 0.01816463 1000 0.02114288 0.01661691 0.01965275 0.01987204 0.01816463 1000
lala 17 0.6 0 first 15 1 307 5 4.25 1.25999712944031 0 1 -1 1 0.01350435 0.0127619 0.0135409 1000 1000 1000 0.01350435 0.0127619 0.0135409 1000 1000 1000 0.01407964 0.01366469 0.01417798 0.01499078 0.01496874 1000 0.01407964 0.01366469 0.01417798 0.01499078 0.01496874 1000
lala 17 0.6 0 first 2 1 308 5 3.900001 0.859997510910034 -1 0 -1 0 0.01448463 0.01411711 0.01376657 1000 1000 1000 0.01448463 0.01411711 0.01376657 1000 1000 1000 0.01644275 0.01622413 0.01661471 0.01593234 0.01515266 1000 0.01644275 0.01622413 0.01661471 0.01593234 0.01515266 1000
lala 18 0.3 0 first 2 1 309 5 4.200001 1.25999712944031 -1 0 -1 0 0.01506586 0.01441025 0.01384872 1000 1000 1000 0.01506586 0.01441025 0.01384872 1000 1000 1000 0.01488327 0.01510762 0.01550409 0.01547296 0.01536091 1000 0.01488327 0.01510762 0.01550409 0.01547296 0.01536091 1000
lala 23 0.0046875 1 second 13 1 310 4 3.543438 0.819997549057007 0 1 1 1 0.0150601 0.01482115 0.01420542 0.01452791 0.0137488 1000 0.0150601 0.01482115 0.01420542 0.01452791 0.0137488 1000 0.01363772 0.0138082 0.01465369 0.01507732 0.0149404 1000 0.01363772 0.0138082 0.01465369 0.01507732 0.0149404 1000
lala 16 0.075 0 first 8 1 311 5 3.975 0.599997758865356 1 0 -1 1 0.01473659 0.01506071 0.01522452 1000 1000 1000 0.01473659 0.01506071 0.01522452 1000 1000 1000 0.01410147 0.01486035 0.01489183 0.01441949 0.01416602 1000 0.01410147 0.01486035 0.01489183 0.01441949 0.01416602 1000
lala 19 0.0375 1 second 1 1 312 4 4.8325 0.39999794960022 -1 1 1 1 0.01476888 0.01453836 0.01481101 0.01414185 0.01435038 1000 0.01476888 0.01453836 0.01481101 0.01414185 0.01435038 1000 0.01527304 0.01478512 0.01373751 0.01418694 0.01418539 1000 0.01527304 0.01478512 0.01373751 0.01418694 0.01418539 1000
lala 19 0.075 1 second 6 1 313 4 4.065 0.819997549057007 1 0 1 1 -0.004128885 -0.003286836 -0.003619453 -0.004677891 -0.005462846 1000 -0.004128885 -0.003286836 -0.003619453 -0.004677891 -0.005462846 1000 -0.009276754 -0.006058717 -0.00402156 -0.0001487361 0.002768553 1000 -0.009276754 -0.006058717 -0.00402156 -0.0001487361 0.002768553 1000
lala 21 0.01875 0 first 14 1 314 5 3.24375 0.839997529983521 0 0 -1 0 -0.001985618 -0.001389701 0.0004759018 1000 1000 1000 -0.001985618 -0.001389701 0.0004759018 1000 1000 1000 0.001403619 0.001864659 0.002027441 0.002277397 0.00241629 1000 0.001403619 0.001864659 0.002027441 0.002277397 0.00241629 1000
lala 25 0.0375 1 second 17 1 315 6 4.605001 0.679997682571411 0 1 1 1 0.003362873 0.003795444 0.003926794 0.00389883 0.004324441 1000 0.003362873 0.003795444 0.003926794 0.00389883 0.004324441 1000 0.004185278 0.004397724 0.005021755 0.004239019 0.003849656 1000 0.004185278 0.004397724 0.005021755 0.004239019 0.003849656 1000
lala 26 0.0375 0 first 17 1 316 6 4.567501 0.99999737739563 0 1 -1 1 0.004514404 0.005170739 0.005406013 1000 1000 1000 0.004514404 0.005170739 0.005406013 1000 1000 1000 0.006354298 0.00633056 0.00567873 0.006388919 0.006340313 1000 0.006354298 0.00633056 0.00567873 0.006388919 0.006340313 1000
lala 15 0.075 0 first 4 1 317 6 5.085 0.739997625350952 -1 0 -1 1 0.0073223 0.007023627 0.006838577 1000 1000 1000 0.0073223 0.007023627 0.006838577 1000 1000 1000 0.006600127 0.006268567 0.006806382 0.006529788 0.005390024 1000 0.006600127 0.006268567 0.006806382 0.006529788 0.005390024 1000
lala 19 0.3 0 first 2 1 318 5 4.500001 0.499997854232788 -1 0 -1 0 0.007023874 0.007401562 0.006547175 1000 1000 1000 0.007023874 0.007401562 0.006547175 1000 1000 1000 0.008182102 0.008050608 0.007368421 0.007910784 0.00818071 1000 0.008182102 0.008050608 0.007368421 0.007910784 0.00818071 1000
lala 27 0.01875 1 second 17 1 319 6 4.586251 0.599997758865356 0 1 1 1 0.008455183 0.00931807 0.009849673 0.009935154 0.0097327 1000 0.008455183 0.00931807 0.009849673 0.009935154 0.0097327 1000 0.008751708 0.008643191 0.008288083 0.008613143 0.007844132 1000 0.008751708 0.008643191 0.008288083 0.008613143 0.007844132 1000
lala 24 0.009375 1 first 13 1 320 4 3.534063 2.43999624252319 0 1 1 1 0.01003347 0.009941102 0.009620935 1000 1000 1000 0.01003347 0.009941102 0.009620935 1000 1000 1000 0.0113933 0.01149873 0.01130039 0.01112639 0.01179653 1000 0.0113933 0.01149873 0.01130039 0.01112639 0.01179653 1000
lala 18 0.3 0 first 15 1 321 5 4.550001 1.83999681472778 0 1 -1 1 0.009380354 0.01003949 0.01105684 1000 1000 1000 0.009380354 0.01003949 0.01105684 1000 1000 1000 0.01323388 0.01345026 0.01326073 0.0129788 0.01280449 1000 0.01323388 0.01345026 0.01326073 0.0129788 0.01280449 1000
lala 11 0.6 0 second 0 1 322 4 4.44 0.519997835159302 -1 0 -1 0 0.01457892 0.01442728 0.0138848 0.01408692 0.01334197 1000 0.01457892 0.01442728 0.0138848 0.01408692 0.01334197 1000 0.01346394 0.0132387 0.01412592 0.0141885 0.01385308 1000 0.01346394 0.0132387 0.01412592 0.0141885 0.01385308 1000
lala 18 0.075 1 second 12 1 323 4 2.9025 1.93999671936035 0 0 1 1 0.009692842 0.0132741 0.01656248 0.01951105 0.02134968 1000 0.009692842 0.0132741 0.01656248 0.01951105 0.02134968 1000 0.03222253 0.03469701 0.03350495 0.02715387 0.01657011 1000 0.03222253 0.03469701 0.03350495 0.02715387 0.01657011 1000
lala 20 0.6 0 second 16 1 324 6 5.31 1.03999733924866 0 0 -1 0 0.01113759 0.01181912 0.01249658 0.01299224 0.01324947 1000 0.01113759 0.01181912 0.01249658 0.01299224 0.01324947 1000 0.01217921 0.01302754 0.01433816 0.01501122 0.01539613 1000 0.01217921 0.01302754 0.01433816 0.01501122 0.01539613 1000
lala 19 0.0375 0 second 12 1 325 4 2.865 1.27999711036682 0 0 -1 0 0.01708744 0.01743084 0.01769905 0.01751066 0.01742059 1000 0.01708744 0.01743084 0.01769905 0.01751066 0.01742059 1000 0.01699851 0.01689301 0.01723725 0.01750098 0.0166771 1000 0.01699851 0.01689301 0.01723725 0.01750098 0.0166771 1000
lala 25 0.01875 1 first 13 1 326 4 3.515313 1.65999698638916 0 1 1 0 0.01680111 0.01667488 0.01662285 1000 1000 1000 0.01680111 0.01667488 0.01662285 1000 1000 1000 0.01639874 0.01662567 0.016509 0.01655581 0.01608097 1000 0.01639874 0.01662567 0.016509 0.01655581 0.01608097 1000
lala 12 0.6 1 first 0 1 327 4 5.04 0.519997835159302 -1 0 1 0 0.0173581 0.01680991 0.01627947 1000 1000 1000 0.0173581 0.01680991 0.01627947 1000 1000 1000 0.01767888 0.01723387 0.01807002 0.01830898 0.01800629 1000 0.01767888 0.01723387 0.01807002 0.01830898 0.01800629 1000
lala 22 0.009375 0 second 14 1 328 5 3.253125 0.739997625350952 0 0 -1 0 0.01814535 0.01843353 0.01800425 0.01728742 0.01809046 1000 0.01814535 0.01843353 0.01800425 0.01728742 0.01809046 1000 0.009144052 0.01063179 0.0107355 0.01128898 0.01179998 1000 0.009144052 0.01063179 0.0107355 0.01128898 0.01179998 1000
lala 21 0.3 1 second 16 1 329 6 5.610001 1.37999701499939 0 0 1 1 0.01803584 0.02268777 0.02627505 0.02961735 0.03109977 1000 0.01803584 0.02268777 0.02627505 0.02961735 0.03109977 1000 0.01396138 0.01551638 0.01438537 0.01286148 0.01250422 1000 0.01396138 0.01551638 0.01438537 0.01286148 0.01250422 1000
lala 20 0.15 0 first 5 1 330 6 5.130002 0.459997892379761 -1 1 -1 0 0.0156783 0.01544431 0.01504777 1000 1000 1000 0.0156783 0.01544431 0.01504777 1000 1000 1000 0.01546592 0.01535607 0.01512834 0.01497451 0.01485676 1000 0.01546592 0.01535607 0.01512834 0.01497451 0.01485676 1000
lala 15 0.0375 1 first 9 1 331 5 5.2625 0.859997510910034 1 1 1 1 0.01489013 0.01525354 0.01544525 1000 1000 1000 0.01489013 0.01525354 0.01544525 1000 1000 1000 0.01745127 0.01749353 0.01761274 0.01749926 0.01750401 1000 0.01745127 0.01749353 0.01761274 0.01749926 0.01750401 1000
lala 13 0.3 0 second 0 1 332 4 4.74 1.51999688148499 -1 0 -1 0 0.01812158 0.01813153 0.01822025 0.01812947 0.01834887 1000 0.01812158 0.01813153 0.01822025 0.01812947 0.01834887 1000 0.01751736 0.01795419 0.01829157 0.01833387 0.01855892 1000 0.01751736 0.01795419 0.01829157 0.01833387 0.01855892 1000
lala 10 0.6 1 first 11 1 333 6 4.980001 2.23999643325806 1 1 1 1 0.01803468 0.01767947 0.0172374 1000 1000 1000 0.01803468 0.01767947 0.0172374 1000 1000 1000 0.01784258 0.0177339 0.01751993 0.01715053 0.01733381 1000 0.01784258 0.0177339 0.01751993 0.01715053 0.01733381 1000
lala 24 0.01875 0 first 3 1 334 5 4.325001 0.879997491836548 -1 1 -1 0 0.01749709 0.01679925 0.01699588 1000 1000 1000 0.01749709 0.01679925 0.01699588 1000 1000 1000 0.01546266 0.01560648 0.01649982 0.01673525 0.0167697 1000 0.01546266 0.01560648 0.01649982 0.01673525 0.0167697 1000
lala 26 0.0375 0 first 13 1 335 4 3.477813 1.8599967956543 0 1 -1 1 0.0168771 0.01614741 0.01584118 1000 1000 1000 0.0168771 0.01614741 0.01584118 1000 1000 1000 0.01598122 0.01619867 0.01647012 0.01636528 0.01644984 1000 0.01598122 0.01619867 0.01647012 0.01636528 0.01644984 1000
lala 14 0.15 0 first 0 1 336 4 4.89 0.679997682571411 -1 0 -1 1 0.009446504 0.008927781 0.00811373 1000 1000 1000 0.009446504 0.008927781 0.00811373 1000 1000 1000 -0.004565235 -0.003051794 -0.0003033496 0.0007305182 0.001438105 1000 -0.004565235 -0.003051794 -0.0003033496 0.0007305182 0.001438105 1000
lala 15 0.15 0 first 0 1 337 4 5.04 1.45999693870544 -1 0 -1 1 0.003166368 0.003115951 0.002950679 1000 1000 1000 0.003166368 0.003115951 0.002950679 1000 1000 1000 0.003604219 0.003399678 0.004000463 0.003914771 0.004055992 1000 0.003604219 0.003399678 0.004000463 0.003914771 0.004055992 1000
lala 19 0.0375 0 first 7 1 338 4 4.57 0.519997835159302 1 1 -1 1 0.004406802 0.004549418 0.005013014 1000 1000 1000 0.004406802 0.004549418 0.005013014 1000 1000 1000 0.003295319 0.003717026 0.003959368 0.004134209 0.003618648 1000 0.003295319 0.003717026 0.003959368 0.004134209 0.003618648 1000
