subject PestNr Step_Size_OnTrial Pest_Faster Pest_Interval Condition block trial velH velH_Pest Reaction_Time velH_Subject Start_Above Response_MotionEstimation RightOrLeftxRotations_first0 xRotations_first1 xRotations_first2 xRotations_first3 xRotations_first4 xRotations_first5 yRotations_first0 yRotations_first1 yRotations_first2 yRotations_first3 yRotations_first4 yRotations_first5 xRotations_second0 xRotations_second1 xRotations_second2 xRotations_second3 xRotations_second4 xRotations_second5 yRotations_second0 yRotations_second1 yRotations_second2 yRotations_second3 yRotations_second4 yRotations_second5
lala 1 1.2 1 first 8 1 1 5 3.3 0.559997797012329 1 0 1 1 -0.01659155 -0.008425419 -0.007795105 -0.009157749 -0.007128748 -0.005648048 -0.01659155 -0.008425419 -0.007795105 -0.009157749 -0.007128748 -0.005648048 -0.001883691 0.002805641 1.512242E-05 -0.0008993168 0.0002397917 1000 -0.001883691 0.002805641 1.512242E-05 -0.0008993168 0.0002397917 1000
lala 1 1.2 1 first 7 1 2 4 5.32 0.639997720718384 1 1 1 1 0.009725693 0.009844853 0.01073524 1000 1000 1000 0.009725693 0.009844853 0.01073524 1000 1000 1000 0.01095075 0.01088625 0.01120176 0.01134872 0.0112907 1000 0.01095075 0.01088625 0.01120176 0.01134872 0.0112907 1000
lala 1 1.2 0 second 14 1 3 5 3.3 0.419997930526733 0 0 -1 1 0.01172898 0.01181518 0.01254115 0.01319766 0.01393721 1000 0.01172898 0.01181518 0.01254115 0.01319766 0.01393721 1000 0.01807979 0.01780895 0.0174542 0.01769069 0.01791508 1000 0.01807979 0.01780895 0.0174542 0.01769069 0.01791508 1000
lala 1 1.2 0 first 4 1 4 6 3.96 0.479997873306274 -1 0 -1 0 0.02022399 0.01955738 0.01954602 1000 1000 1000 0.02022399 0.01955738 0.01954602 1000 1000 1000 0.02098529 0.02144643 0.0216712 0.02164146 0.0217018 1000 0.02098529 0.02144643 0.0216712 0.02164146 0.0217018 1000
lala 1 1.2 0 second 6 1 5 4 2.64 0.379997968673706 1 0 -1 0 0.0235561 0.02361269 0.02350975 0.02337572 0.0237703 1000 0.0235561 0.02361269 0.02350975 0.02337572 0.0237703 1000 0.0243891 0.02420551 0.0241136 0.02477213 0.02526254 1000 0.0243891 0.02420551 0.0241136 0.02477213 0.02526254 1000
lala 1 1.2 1 first 10 1 6 6 3.96 0.419997930526733 1 0 1 1 0.02165638 0.01862139 0.01675355 1000 1000 1000 0.02165638 0.01862139 0.01675355 1000 1000 1000 0.01582168 0.01650944 0.01665123 0.01695331 0.01752148 1000 0.01582168 0.01650944 0.01665123 0.01695331 0.01752148 1000
lala 1 1.2 1 first 0 1 7 4 2.64 0.279998064041138 -1 0 1 1 0.0189279 0.01952038 0.01927181 1000 1000 1000 0.0189279 0.01952038 0.01927181 1000 1000 1000 0.01964558 0.02034095 0.02080079 0.02045046 0.02041184 1000 0.01964558 0.02034095 0.02080079 0.02045046 0.02041184 1000
lala 2 1.2 1 first 10 1 8 6 2.76 0.539997816085815 1 0 1 0 0.02076829 0.02190505 0.02203174 1000 1000 1000 0.02076829 0.02190505 0.02203174 1000 1000 1000 0.01894509 0.0194374 0.01981199 0.01966711 0.01996444 1000 0.01894509 0.0194374 0.01981199 0.01966711 0.01996444 1000
lala 1 1.2 0 first 9 1 9 5 6.65 0.359997987747192 1 1 -1 0 0.0204463 0.01994155 0.01873268 1000 1000 1000 0.0204463 0.01994155 0.01873268 1000 1000 1000 0.01894433 0.01874384 0.01850536 0.01889182 0.01895184 1000 0.01894433 0.01874384 0.01850536 0.01889182 0.01895184 1000
lala 1 1.2 0 second 5 1 10 6 7.98 1.31999707221985 -1 1 -1 0 0.02085887 0.02167059 0.02124264 0.02071908 0.02104676 1000 0.02085887 0.02167059 0.02124264 0.02071908 0.02104676 1000 0.02105282 0.02151546 0.02165055 0.02168995 0.02115815 1000 0.02105282 0.02151546 0.02165055 0.02168995 0.02115815 1000
lala 2 1.2 1 second 5 1 11 6 9.18 1.19999718666077 -1 1 1 1 0.02120299 0.0214791 0.02191128 0.02195359 0.02224967 1000 0.02120299 0.0214791 0.02191128 0.02195359 0.02224967 1000 0.02170631 0.02130103 0.02134195 0.02153934 0.02156422 1000 0.02170631 0.02130103 0.02134195 0.02153934 0.02156422 1000
lala 2 1.2 0 second 14 1 12 5 4.5 0.61999773979187 0 0 -1 1 0.0169356 0.01742444 0.01670985 0.01639042 0.01677572 1000 0.0169356 0.01742444 0.01670985 0.01639042 0.01677572 1000 0.01785294 0.01816187 0.0186677 0.01844265 0.01851738 1000 0.01785294 0.01816187 0.0186677 0.01844265 0.01851738 1000
lala 1 1.2 1 first 1 1 13 4 5.32 0.459997892379761 -1 1 1 1 0.01915441 0.0187458 0.01864508 1000 1000 1000 0.01915441 0.0187458 0.01864508 1000 1000 1000 0.0194663 0.01974897 0.02024598 0.02033175 0.02018675 1000 0.0194663 0.01974897 0.02024598 0.02033175 0.02018675 1000
lala 3 1.2 0 first 10 1 14 6 1.98 0.219998121261597 1 0 -1 1 0.02055269 0.0197045 0.01987732 1000 1000 1000 0.02055269 0.0197045 0.01987732 1000 1000 1000 0.01923739 0.01953415 0.0197715 0.0202943 0.02053885 1000 0.01923739 0.01953415 0.0197715 0.0202943 0.02053885 1000
lala 2 1.2 0 second 8 1 15 5 2.1 0.599997758865356 1 0 -1 1 0.02039642 0.02022432 0.02038807 0.02071864 0.02123271 1000 0.02039642 0.02022432 0.02038807 0.02071864 0.02123271 1000 0.01889694 0.01915713 0.0194396 0.01961447 0.02033284 1000 0.01889694 0.01915713 0.0194396 0.01961447 0.02033284 1000
lala 2 1.2 1 first 9 1 16 5 7.85 0.519997835159302 1 1 1 0 0.01995448 0.01970489 0.0199358 1000 1000 1000 0.01995448 0.01970489 0.0199358 1000 1000 1000 0.02323502 0.02329427 0.02276655 0.02329127 0.02353225 1000 0.02323502 0.02329427 0.02276655 0.02329127 0.02353225 1000
lala 1 1.2 1 second 3 1 17 5 6.65 0.959997415542603 -1 1 1 1 0.01601369 0.01516285 0.01553467 0.01561177 0.0149912 1000 0.01601369 0.01516285 0.01553467 0.01561177 0.0149912 1000 0.01609533 0.01666263 0.01673033 0.01667008 0.01707194 1000 0.01609533 0.01666263 0.01673033 0.01667008 0.01707194 1000
lala 1 1.2 1 first 17 1 18 6 7.98 0.719997644424438 0 1 1 0 0.0197908 0.01848575 0.01792088 1000 1000 1000 0.0197908 0.01848575 0.01792088 1000 1000 1000 0.01844034 0.01854569 0.01899173 0.01908808 0.01920225 1000 0.01844034 0.01854569 0.01899173 0.01908808 0.01920225 1000
lala 2 1.2 0 first 6 1 19 4 3.84 0.39999794960022 1 0 -1 1 0.01359778 0.01055693 0.009590091 1000 1000 1000 0.01359778 0.01055693 0.009590091 1000 1000 1000 0.01159369 0.01128769 0.01142115 0.01167475 0.01163729 1000 0.01159369 0.01128769 0.01142115 0.01167475 0.01163729 1000
lala 1 1.2 0 second 2 1 20 5 3.3 0.659997701644897 -1 0 -1 1 0.00966436 0.009868712 0.0107787 0.01063305 0.009936586 1000 0.00966436 0.009868712 0.0107787 0.01063305 0.009936586 1000 0.01045898 0.01052017 0.01058231 0.0109762 0.01071967 1000 0.01045898 0.01052017 0.01058231 0.0109762 0.01071967 1000
lala 4 1.2 0 first 10 1 21 6 3.18 0.199998140335083 1 0 -1 0 0.01065632 0.009927069 0.008885649 1000 1000 1000 0.01065632 0.009927069 0.008885649 1000 1000 1000 0.0103048 0.01036315 0.01071406 0.01089584 0.01065235 1000 0.0103048 0.01036315 0.01071406 0.01089584 0.01065235 1000
lala 3 1.2 1 second 14 1 22 5 5.7 0.559997797012329 0 0 1 0 0.011882 0.01224354 0.01266719 0.0125577 0.01197425 1000 0.011882 0.01224354 0.01266719 0.0125577 0.01197425 1000 0.01263203 0.01288189 0.01287614 0.0130341 0.01314049 1000 0.01263203 0.01288189 0.01287614 0.0130341 0.01314049 1000
lala 1 1.2 0 first 12 1 23 4 2.64 0.39999794960022 0 0 -1 0 0.01156479 0.01039244 0.008573722 1000 1000 1000 0.01156479 0.01039244 0.008573722 1000 1000 1000 0.0080561 0.007857879 0.007793427 0.00727146 0.006839259 1000 0.0080561 0.007857879 0.007793427 0.00727146 0.006839259 1000
lala 1 1.2 1 first 15 1 24 5 6.65 0.359997987747192 0 1 1 1 0.007738672 0.007881526 0.008292817 1000 1000 1000 0.007738672 0.007881526 0.008292817 1000 1000 1000 0.008251673 0.007779577 0.007924148 0.008379859 0.008657751 1000 0.008251673 0.007779577 0.007924148 0.008379859 0.008657751 1000
lala 1 1.2 1 second 13 1 25 4 5.32 0.919997453689575 0 1 1 0 0.007290576 0.007448267 0.007671887 0.00741603 0.006813342 1000 0.007290576 0.007448267 0.007671887 0.00741603 0.006813342 1000 0.006449136 0.006555387 0.00687198 0.007524051 0.007540625 1000 0.006449136 0.006555387 0.00687198 0.007524051 0.007540625 1000
lala 2 1.2 1 second 17 1 26 6 6.780001 0.61999773979187 0 1 1 1 0.005072118 0.005532438 0.004715036 0.004348347 0.004639857 1000 0.005072118 0.005532438 0.004715036 0.004348347 0.004639857 1000 0.005883434 0.006133738 0.005836375 0.005309153 0.005362647 1000 0.005883434 0.006133738 0.005836375 0.005309153 0.005362647 1000
lala 2 1.2 1 second 12 1 27 4 3.84 0.839997529983521 0 0 1 0 0.007844257 0.00743148 0.007693093 0.007359489 0.006370669 1000 0.007844257 0.00743148 0.007693093 0.007359489 0.006370669 1000 0.006895346 0.006972436 0.007362237 0.007549863 0.006754126 1000 0.006895346 0.006972436 0.007362237 0.007549863 0.006754126 1000
lala 3 1.2 0 first 5 1 28 6 7.98 0.679997682571411 -1 1 -1 0 0.009997623 0.009259365 0.008783109 1000 1000 1000 0.009997623 0.009259365 0.008783109 1000 1000 1000 0.009437624 0.01014251 0.01033451 0.0108419 0.01045478 1000 0.009437624 0.01014251 0.01033451 0.0108419 0.01045478 1000
lala 2 1.2 1 first 3 1 29 5 5.45 0.299998044967651 -1 1 1 1 0.01045972 0.009844812 0.009223544 1000 1000 1000 0.01045972 0.009844812 0.009223544 1000 1000 1000 0.01109827 0.01042642 0.01023366 0.01064723 0.0104294 1000 0.01109827 0.01042642 0.01023366 0.01064723 0.0104294 1000
lala 1 1.2 0 first 16 1 30 6 3.96 0.439997911453247 0 0 -1 1 0.01044635 0.01092628 0.01045145 1000 1000 1000 0.01044635 0.01092628 0.01045145 1000 1000 1000 0.0112141 0.01122489 0.01131094 0.01219233 0.01319851 1000 0.0112141 0.01122489 0.01131094 0.01219233 0.01319851 1000
lala 3 1.2 1 second 9 1 31 5 6.650001 0.699997663497925 1 1 1 1 0.006938006 0.007118303 0.007716297 0.00825741 0.008539946 1000 0.006938006 0.007118303 0.007716297 0.00825741 0.008539946 1000 0.009629752 0.008933035 0.008669754 0.009057276 0.009302078 1000 0.009629752 0.008933035 0.008669754 0.009057276 0.009302078 1000
lala 4 1.2 0 second 14 1 32 5 4.5 0.739997625350952 0 0 -1 0 0.01201241 0.01196141 0.01204575 0.01158908 0.01077998 1000 0.01201241 0.01196141 0.01204575 0.01158908 0.01077998 1000 0.009825313 0.009956115 0.01013871 0.01053529 0.01023671 1000 0.009825313 0.009956115 0.01013871 0.01053529 0.01023671 1000
lala 4 1.2 1 first 9 1 33 5 5.450001 0.61999773979187 1 1 1 0 0.01006586 0.01031554 0.01005647 1000 1000 1000 0.01006586 0.01031554 0.01005647 1000 1000 1000 0.009027087 0.007882439 0.007929374 0.008078203 0.008152531 1000 0.009027087 0.007882439 0.007929374 0.008078203 0.008152531 1000
lala 3 1.2 0 first 6 1 34 4 5.04 0.61999773979187 1 0 -1 0 0.007544358 0.007238302 0.006893904 1000 1000 1000 0.007544358 0.007238302 0.006893904 1000 1000 1000 0.00974988 0.01033466 0.01028788 0.009542108 0.009383914 1000 0.00974988 0.01033466 0.01028788 0.009542108 0.009383914 1000
lala 2 1.2 0 first 0 1 35 4 1.44 0.379997968673706 -1 0 -1 1 0.008966483 0.008445322 0.008872583 1000 1000 1000 0.008966483 0.008445322 0.008872583 1000 1000 1000 0.009497046 0.009781085 0.009886292 0.00997216 0.01009056 1000 0.009497046 0.009781085 0.009886292 0.00997216 0.01009056 1000
lala 2 1.2 1 first 2 1 36 5 4.5 0.419997930526733 -1 0 1 1 0.008268882 0.007771439 0.007876764 1000 1000 1000 0.008268882 0.007771439 0.007876764 1000 1000 1000 0.008471838 0.008539781 0.008890064 0.008647208 0.008102957 1000 0.008471838 0.008539781 0.008890064 0.008647208 0.008102957 1000
lala 1 1.2 1 first 11 1 37 6 7.98 0.61999773979187 1 1 1 0 0.009961778 0.01035625 0.01061193 1000 1000 1000 0.009961778 0.01035625 0.01061193 1000 1000 1000 0.009757182 0.009203895 0.009407136 0.009781945 0.009879 1000 0.009757182 0.009203895 0.009407136 0.009781945 0.009879 1000
lala 2 1.2 1 first 11 1 38 6 6.780001 0.439997911453247 1 1 1 1 0.01012655 0.01024668 0.01119267 1000 1000 1000 0.01012655 0.01024668 0.01119267 1000 1000 1000 0.01239746 0.01284928 0.01355836 0.01449302 0.01440036 1000 0.01239746 0.01284928 0.01355836 0.01449302 0.01440036 1000
lala 3 1.2 0 first 3 1 39 5 4.25 0.39999794960022 -1 1 -1 1 0.01192858 0.01230513 0.01239461 1000 1000 1000 0.01192858 0.01230513 0.01239461 1000 1000 1000 0.01404346 0.01428371 0.01457595 0.0145312 0.01408586 1000 0.01404346 0.01428371 0.01457595 0.0145312 0.01408586 1000
lala 2 1.2 0 second 13 1 40 4 4.12 1.01999735832214 0 1 -1 1 0.01270535 0.01251575 0.01288645 0.01295414 0.01320407 1000 0.01270535 0.01251575 0.01288645 0.01295414 0.01320407 1000 0.01362006 0.0134662 0.01318676 0.01356002 0.01433576 1000 0.01362006 0.0134662 0.01318676 0.01356002 0.01433576 1000
lala 2 1.2 0 second 1 1 41 4 4.12 0.699997663497925 -1 1 -1 1 0.01429398 0.01471983 0.01496571 0.01504016 0.01537424 1000 0.01429398 0.01471983 0.01496571 0.01504016 0.01537424 1000 0.01561497 0.01533641 0.01568703 0.01587289 0.01591782 1000 0.01561497 0.01533641 0.01568703 0.01587289 0.01591782 1000
lala 2 1.2 0 first 15 1 42 5 5.45 0.699997663497925 0 1 -1 1 0.01757154 0.01854226 0.01882073 1000 1000 1000 0.01757154 0.01854226 0.01882073 1000 1000 1000 0.01928026 0.01938241 0.01996288 0.01947272 0.01919772 1000 0.01928026 0.01938241 0.01996288 0.01947272 0.01919772 1000
lala 3 1.2 0 second 0 1 43 4 2.64 0.579997777938843 -1 0 -1 0 0.02041402 0.02055967 0.02067099 0.02065472 0.02073298 1000 0.02041402 0.02055967 0.02067099 0.02065472 0.02073298 1000 0.01806211 0.01825915 0.01874281 0.01905146 0.01929117 1000 0.01806211 0.01825915 0.01874281 0.01905146 0.01929117 1000
lala 2 1.2 1 second 7 1 44 4 4.12 0.439997911453247 1 1 1 1 0.01921928 0.01912753 0.0188443 0.01835985 0.01876531 1000 0.01921928 0.01912753 0.0188443 0.01835985 0.01876531 1000 0.0184662 0.01884902 0.01891864 0.01877737 0.01891014 1000 0.0184662 0.01884902 0.01891864 0.01877737 0.01891014 1000
lala 4 1.2 1 second 6 1 45 4 6.24 0.559997797012329 1 0 1 0 0.01826383 0.0176605 0.01647233 0.01663159 0.01609829 1000 0.01826383 0.0176605 0.01647233 0.01663159 0.01609829 1000 0.01434384 0.01428828 0.01474676 0.01436514 0.01426955 1000 0.01434384 0.01428828 0.01474676 0.01436514 0.01426955 1000
lala 2 1.2 0 first 4 1 46 6 5.16 0.379997968673706 -1 0 -1 1 0.01554588 0.01579014 0.01594077 1000 1000 1000 0.01554588 0.01579014 0.01594077 1000 1000 1000 0.01374334 0.01394945 0.01449424 0.01495981 0.01518077 1000 0.01374334 0.01394945 0.01449424 0.01495981 0.01518077 1000
lala 3 1.2 0 first 17 1 47 6 5.580001 0.339998006820679 0 1 -1 1 0.01461942 0.01453383 0.01523213 1000 1000 1000 0.01461942 0.01453383 0.01523213 1000 1000 1000 0.0171492 0.01767407 0.01749722 0.01750295 0.01780149 1000 0.0171492 0.01767407 0.01749722 0.01750295 0.01780149 1000
lala 4 1.2 1 first 17 1 48 6 6.780001 0.379997968673706 0 1 1 0 0.01598811 0.01582296 0.01598817 1000 1000 1000 0.01598811 0.01582296 0.01598817 1000 1000 1000 0.01744768 0.01828166 0.01884589 0.01930747 0.01943964 1000 0.01744768 0.01828166 0.01884589 0.01930747 0.01943964 1000
lala 4 1.2 0 first 3 1 49 5 5.45 0.39999794960022 -1 1 -1 1 0.01830501 0.0171881 0.01668504 1000 1000 1000 0.01830501 0.0171881 0.01668504 1000 1000 1000 0.01846236 0.01920842 0.01950678 0.01963973 0.01969152 1000 0.01846236 0.01920842 0.01950678 0.01963973 0.01969152 1000
lala 3 1.2 1 first 4 1 50 6 6.36 0.719997644424438 -1 0 1 1 -0.0009937705 5.479348E-05 0.0001369741 0.001973014 0.004096502 0.003664201 -0.0009937705 5.479348E-05 0.0001369741 0.001973014 0.004096502 0.003664201 0.002633461 0.00248103 0.003352659 0.003842001 0.003908436 1000 0.002633461 0.00248103 0.003352659 0.003842001 0.003908436 1000
lala 3 1.2 0 second 12 1 51 4 2.64 0.899997472763062 0 0 -1 0 0.004740803 0.004878284 0.004442456 0.004548859 0.004886373 1000 0.004740803 0.004878284 0.004442456 0.004548859 0.004886373 1000 0.00520768 0.005163062 0.005222744 0.005269115 0.00467552 1000 0.00520768 0.005163062 0.005222744 0.005269115 0.00467552 1000
lala 3 1.2 1 first 11 1 52 6 5.580001 0.779997587203979 1 1 1 0 0.003096747 0.00279563 0.003102328 1000 1000 1000 0.003096747 0.00279563 0.003102328 1000 1000 1000 0.004019984 0.004274607 0.004695307 0.004456721 0.004210175 1000 0.004019984 0.004274607 0.004695307 0.004456721 0.004210175 1000
lala 2 1.2 0 first 16 1 53 6 5.16 0.539997816085815 0 0 -1 1 0.003211341 0.003329124 0.00327738 1000 1000 1000 0.003211341 0.003329124 0.00327738 1000 1000 1000 0.004259943 0.004218383 0.004214864 0.003941867 0.004048359 1000 0.004259943 0.004218383 0.004214864 0.003941867 0.004048359 1000
lala 5 1.2 1 first 17 1 54 6 5.580001 0.23999810218811 0 1 1 0 0.004992939 0.005011728 0.004956031 1000 1000 1000 0.004992939 0.005011728 0.004956031 1000 1000 1000 0.003745059 0.004319158 0.004833457 0.005234894 0.00556175 1000 0.003745059 0.004319158 0.004833457 0.005234894 0.00556175 1000
lala 3 1.2 1 first 15 1 55 5 6.65 0.39999794960022 0 1 1 1 0.004737573 0.004595647 0.004165402 1000 1000 1000 0.004737573 0.004595647 0.004165402 1000 1000 1000 0.006282903 0.005654085 0.005883899 0.005862639 0.005900923 1000 0.006282903 0.005654085 0.005883899 0.005862639 0.005900923 1000
lala 4 1.2 0 second 4 1 56 6 5.16 1.35999703407288 -1 0 -1 0 0.004711548 0.005180069 0.005371003 0.005470722 0.004850566 1000 0.004711548 0.005180069 0.005371003 0.005470722 0.004850566 1000 0.004440062 0.004884909 0.005486789 0.005460793 0.00582312 1000 0.004440062 0.004884909 0.005486789 0.005460793 0.00582312 1000
lala 3 1.2 0 second 2 1 57 5 3.3 1.23999714851379 -1 0 -1 1 0.00481565 0.00449577 0.004067293 0.00420507 0.004882034 1000 0.00481565 0.00449577 0.004067293 0.00420507 0.004882034 1000 0.005019429 0.005225944 0.004930657 0.00435671 0.004810606 1000 0.005019429 0.005225944 0.004930657 0.00435671 0.004810606 1000
lala 3 1.2 1 first 13 1 58 4 5.32 0.759997606277466 0 1 1 1 0.004651133 0.004213002 0.004021993 1000 1000 1000 0.004651133 0.004213002 0.004021993 1000 1000 1000 0.007322364 0.007005697 0.006880682 0.006978573 0.006906446 1000 0.007322364 0.007005697 0.006880682 0.006978573 0.006906446 1000
lala 5 1.2 0 second 10 1 59 6 4.38 0.139998197555542 1 0 -1 0 0.0078498 0.009763975 0.01091516 0.01182859 0.0125562 1000 0.0078498 0.009763975 0.01091516 0.01182859 0.0125562 1000 0.007884076 0.007702322 0.006922615 0.007874658 0.008359262 1000 0.007884076 0.007702322 0.006922615 0.007874658 0.008359262 1000
lala 5 1.2 1 first 9 1 60 5 4.250001 0.599997758865356 1 1 1 1 0.008233854 0.007700589 0.008431915 1000 1000 1000 0.008233854 0.007700589 0.008431915 1000 1000 1000 0.00571803 0.005614559 0.005930366 0.005568569 0.004815337 1000 0.00571803 0.005614559 0.005930366 0.005568569 0.004815337 1000
lala 4 1.2 1 first 12 1 61 4 3.84 0.799997568130493 0 0 1 1 0.001590005 0.001894563 0.002281174 1000 1000 1000 0.001590005 0.001894563 0.002281174 1000 1000 1000 0.003909814 0.003677333 0.003907625 0.003872208 0.003846794 1000 0.003909814 0.003677333 0.003907625 0.003872208 0.003846794 1000
lala 4 1.2 0 first 15 1 62 5 5.45 0.219998121261597 0 1 -1 1 0.002730446 0.003246112 0.003350675 1000 1000 1000 0.002730446 0.003246112 0.003350675 1000 1000 1000 0.005946159 0.006762708 0.007105544 0.006818291 0.006949849 1000 0.005946159 0.006762708 0.007105544 0.006818291 0.006949849 1000
lala 5 1.2 0 first 15 1 63 5 6.65 1.63999700546265 0 1 -1 1 0.007003058 0.007748149 0.007687147 1000 1000 1000 0.007003058 0.007748149 0.007687147 1000 1000 1000 0.009979116 0.009897263 0.01002173 0.009868477 0.009102374 1000 0.009979116 0.009897263 0.01002173 0.009868477 0.009102374 1000
lala 5 1.2 0 second 12 1 64 4 2.64 1.03999733924866 0 0 -1 0 0.009189483 0.009122744 0.009475171 0.009814476 0.00962649 1000 0.009189483 0.009122744 0.009475171 0.009814476 0.00962649 1000 0.01047178 0.01099689 0.01100597 0.01099206 0.01116369 1000 0.01047178 0.01099689 0.01100597 0.01099206 0.01116369 1000
lala 5 1.2 1 second 3 1 65 5 6.65 0.519997835159302 -1 1 1 1 0.01218706 0.01260335 0.0124023 0.0123483 0.01243233 1000 0.01218706 0.01260335 0.0124023 0.0123483 0.01243233 1000 0.01298185 0.01279173 0.01294812 0.01346564 0.01371373 1000 0.01298185 0.01279173 0.01294812 0.01346564 0.01371373 1000
lala 6 1.2 0 first 12 1 66 4 3.84 0.199998140335083 0 0 -1 1 0.01263579 0.01222977 0.01250341 1000 1000 1000 0.01263579 0.01222977 0.01250341 1000 1000 1000 0.01451821 0.01526588 0.01534604 0.01549823 0.01583282 1000 0.01451821 0.01526588 0.01534604 0.01549823 0.01583282 1000
lala 4 1.2 1 first 2 1 67 5 4.5 0.479997873306274 -1 0 1 1 0.01525683 0.01437426 0.01383823 1000 1000 1000 0.01525683 0.01437426 0.01383823 1000 1000 1000 0.01489007 0.01529327 0.01521979 0.01532183 0.01525176 1000 0.01489007 0.01529327 0.01521979 0.01532183 0.01525176 1000
lala 3 1.2 1 second 8 1 68 5 3.3 0.439997911453247 1 0 1 0 0.01459027 0.01478581 0.01516935 0.01500495 0.01413561 1000 0.01459027 0.01478581 0.01516935 0.01500495 0.01413561 1000 0.01318974 0.01361709 0.01370973 0.0136117 0.01396486 1000 0.01318974 0.01361709 0.01370973 0.0136117 0.01396486 1000
lala 5 1.2 1 first 6 1 69 4 5.04 0.539997816085815 1 0 1 1 0.01320344 0.0134212 0.0137007 1000 1000 1000 0.01320344 0.0134212 0.0137007 1000 1000 1000 0.01620039 0.01634738 0.01641226 0.01654236 0.01669117 1000 0.01620039 0.01634738 0.01641226 0.01654236 0.01669117 1000
lala 5 1.2 1 second 14 1 70 5 5.7 0.319998025894165 0 0 1 0 0.01562093 0.015516 0.0152251 0.0152899 0.01533853 1000 0.01562093 0.015516 0.0152251 0.0152899 0.01533853 1000 0.01422537 0.01440309 0.01469235 0.01491052 0.01432377 1000 0.01422537 0.01440309 0.01469235 0.01491052 0.01432377 1000
lala 4 1.2 0 first 8 1 71 5 2.1 0.119998216629028 1 0 -1 0 0.01379857 0.01382947 0.01341528 1000 1000 1000 0.01379857 0.01382947 0.01341528 1000 1000 1000 0.01400185 0.01418907 0.01427951 0.0143836 0.01387187 1000 0.01400185 0.01418907 0.01427951 0.0143836 0.01387187 1000
lala 5 1.2 0 first 2 1 72 5 3.3 0.459997892379761 -1 0 -1 0 0.01410796 0.01381603 0.01319829 1000 1000 1000 0.01410796 0.01381603 0.01319829 1000 1000 1000 0.01434692 0.01397337 0.01419814 0.01425914 0.0143685 1000 0.01434692 0.01397337 0.01419814 0.01425914 0.0143685 1000
lala 3 1.2 0 second 7 1 73 4 2.92 0.719997644424438 1 1 -1 1 0.01281338 0.01317498 0.01288648 0.01253247 0.0129181 1000 0.01281338 0.01317498 0.01288648 0.01253247 0.0129181 1000 0.01462996 0.01498854 0.01531226 0.01500354 0.01435642 1000 0.01462996 0.01498854 0.01531226 0.01500354 0.01435642 1000
lala 4 1.2 1 second 13 1 74 4 4.12 0.639997720718384 0 1 1 1 0.01371982 0.01392157 0.01400789 0.01337726 0.0132195 1000 0.01371982 0.01392157 0.01400789 0.01337726 0.0132195 1000 0.01401429 0.01414651 0.01419223 0.01447094 0.01469733 1000 0.01401429 0.01414651 0.01419223 0.01447094 0.01469733 1000
lala 6 1.2 1 second 3 1 75 5 5.45 0.579997777938843 -1 1 1 0 0.01346787 0.01379534 0.01393059 0.01413383 0.01467721 1000 0.01346787 0.01379534 0.01393059 0.01413383 0.01467721 1000 0.01425051 0.01385175 0.01427327 0.01481224 0.01490547 1000 0.01425051 0.01385175 0.01427327 0.01481224 0.01490547 1000
lala 7 1.2 1 first 12 1 76 4 5.04 0.379997968673706 0 0 1 1 0.01475997 0.01503483 0.01572561 1000 1000 1000 0.01475997 0.01503483 0.01572561 1000 1000 1000 0.01582535 0.01593807 0.01609543 0.01650142 0.01612113 1000 0.01582535 0.01593807 0.01609543 0.01650142 0.01612113 1000
lala 6 1.2 0 first 17 1 77 6 4.380001 0.479997873306274 0 1 -1 1 0.01569194 0.01573752 0.01543329 1000 1000 1000 0.01569194 0.01573752 0.01543329 1000 1000 1000 0.01737124 0.01740485 0.017678 0.01782598 0.01755596 1000 0.01737124 0.01740485 0.017678 0.01782598 0.01755596 1000
lala 4 1.2 0 first 0 1 78 4 3.84 0.439997911453247 -1 0 -1 1 0.01553379 0.01584818 0.0159937 1000 1000 1000 0.01553379 0.01584818 0.0159937 1000 1000 1000 0.01738143 0.01714724 0.0167657 0.01700144 0.01778787 1000 0.01738143 0.01714724 0.0167657 0.01700144 0.01778787 1000
lala 4 1.2 1 first 11 1 79 6 4.380001 0.559997797012329 1 1 1 0 0.0185587 0.01868716 0.01756433 1000 1000 1000 0.0185587 0.01868716 0.01756433 1000 1000 1000 0.0157714 0.01625248 0.01650165 0.0166717 0.017115 1000 0.0157714 0.01625248 0.01650165 0.0166717 0.017115 1000
lala 5 1.2 0 first 13 1 80 4 2.92 0.199998140335083 0 1 -1 0 0.01566371 0.01622829 0.016263 1000 1000 1000 0.01566371 0.01622829 0.016263 1000 1000 1000 0.01759354 0.01744126 0.01769194 0.01794561 0.0177223 1000 0.01759354 0.01744126 0.01769194 0.01794561 0.0177223 1000
lala 5 1.2 1 second 4 1 81 6 6.36 0.359997987747192 -1 0 1 0 0.016781 0.01720625 0.01763391 0.01720644 0.01678476 1000 0.016781 0.01720625 0.01763391 0.01720644 0.01678476 1000 0.01824165 0.01903868 0.01907951 0.01882603 0.01875881 1000 0.01824165 0.01903868 0.01907951 0.01882603 0.01875881 1000
lala 4 1.2 0 second 7 1 82 4 4.12 0.499997854232788 1 1 -1 0 0.01838895 0.01865523 0.01855328 0.01845337 0.0177296 1000 0.01838895 0.01865523 0.01855328 0.01845337 0.0177296 1000 0.01731997 0.01758394 0.01815225 0.01846373 0.01827318 1000 0.01731997 0.01758394 0.01815225 0.01846373 0.01827318 1000
lala 3 1.2 1 first 16 1 83 6 6.36 0.339998006820679 0 0 1 0 0.01703784 0.01669153 0.01689953 1000 1000 1000 0.01703784 0.01669153 0.01689953 1000 1000 1000 0.01763075 0.01805132 0.018139 0.01775571 0.0170545 1000 0.01763075 0.01805132 0.018139 0.01775571 0.0170545 1000
lala 5 1.2 1 first 7 1 84 4 5.32 0.879997491836548 1 1 1 0 0.01767884 0.01799429 0.01797765 1000 1000 1000 0.01767884 0.01799429 0.01797765 1000 1000 1000 0.01838893 0.01858418 0.01828183 0.01745517 0.01748974 1000 0.01838893 0.01858418 0.01828183 0.01745517 0.01748974 1000
lala 6 1.2 0 first 2 1 85 5 4.5 0.479997873306274 -1 0 -1 0 0.01747504 0.01754715 0.017817 1000 1000 1000 0.01747504 0.01754715 0.017817 1000 1000 1000 0.01949219 0.01948624 0.01962271 0.01948776 0.01832634 1000 0.01949219 0.01948624 0.01962271 0.01948776 0.01832634 1000
lala 8 1.2 0 second 12 1 86 4 3.84 0.859997510910034 0 0 -1 0 0.0154167 0.01453001 0.01524901 0.01562218 0.01559223 1000 0.0154167 0.01453001 0.01524901 0.01562218 0.01559223 1000 0.01661348 0.01736582 0.01643625 0.01599628 0.01636761 1000 0.01661348 0.01736582 0.01643625 0.01599628 0.01636761 1000
lala 7 1.2 0 second 3 1 87 5 4.25 0.61999773979187 -1 1 -1 1 0.01532477 0.01474006 0.01504712 0.01577769 0.01605177 1000 0.01532477 0.01474006 0.01504712 0.01577769 0.01605177 1000 0.01595003 0.01649124 0.01671203 0.01653185 0.01666877 1000 0.01595003 0.01649124 0.01671203 0.01653185 0.01666877 1000
lala 6 1.2 1 first 10 1 88 6 5.58 1.61999702453613 1 0 1 1 0.01616259 0.01522093 0.01549285 1000 1000 1000 0.01616259 0.01522093 0.01549285 1000 1000 1000 0.01545929 0.01572699 0.01557815 0.01564926 0.01550205 1000 0.01545929 0.01572699 0.01557815 0.01564926 0.01550205 1000
lala 6 1.2 1 first 15 1 89 5 7.849999 0.159998178482056 0 1 1 1 0.01284973 0.01135937 0.01092811 1000 1000 1000 0.01284973 0.01135937 0.01092811 1000 1000 1000 0.01221058 0.01215363 0.01265407 0.01245205 0.0128161 1000 0.01221058 0.01215363 0.01265407 0.01245205 0.0128161 1000
lala 7 1.2 1 second 15 1 90 5 6.65 0.479997873306274 0 1 1 0 0.01252193 0.01281712 0.0128892 0.01255048 0.01261003 1000 0.01252193 0.01281712 0.0128892 0.01255048 0.01261003 1000 0.01048122 0.01004211 0.009755019 0.009954439 0.009782147 1000 0.01048122 0.01004211 0.009755019 0.009954439 0.009782147 1000
lala 4 1.2 1 second 5 1 91 6 9.18 0.439997911453247 -1 1 1 1 0.01098355 0.01119286 0.01180933 0.01157299 0.01067069 1000 0.01098355 0.01119286 0.01180933 0.01157299 0.01067069 1000 0.009402114 0.009847443 0.01001498 0.01086015 0.01062943 1000 0.009402114 0.009847443 0.01001498 0.01086015 0.01062943 1000
lala 6 1.2 0 second 6 1 92 4 3.84 0.379997968673706 1 0 -1 0 0.01124368 0.01147315 0.01169022 0.01188641 0.01226662 1000 0.01124368 0.01147315 0.01169022 0.01188641 0.01226662 1000 0.01233852 0.01236682 0.01223989 0.01137349 0.01132694 1000 0.01233852 0.01236682 0.01223989 0.01137349 0.01132694 1000
lala 7 1.2 0 second 6 1 93 4 5.04 0.679997682571411 1 0 -1 1 0.01109059 0.01147342 0.01197817 0.0118815 0.01168672 1000 0.01109059 0.01147342 0.01197817 0.0118815 0.01168672 1000 0.01257768 0.01247954 0.01258375 0.01278728 0.0126892 1000 0.01257768 0.01247954 0.01258375 0.01278728 0.0126892 1000
lala 6 1.2 1 first 7 1 94 4 4.12 1.0999972820282 1 1 1 0 0.01151523 0.01148716 0.0115156 1000 1000 1000 0.01151523 0.01148716 0.0115156 1000 1000 1000 0.01176719 0.01201745 0.01235013 0.01277248 0.01269523 1000 0.01176719 0.01201745 0.01235013 0.01277248 0.01269523 1000
lala 6 1.2 1 second 13 1 95 4 4.12 0.519997835159302 0 1 1 0 0.009832067 0.009275332 0.009337571 0.009586896 0.009669126 1000 0.009832067 0.009275332 0.009337571 0.009586896 0.009669126 1000 0.00917517 0.009282476 0.009117968 0.00881885 0.009017917 1000 0.00917517 0.009282476 0.009117968 0.00881885 0.009017917 1000
lala 4 1.2 1 second 16 1 96 6 5.16 0.699997663497925 0 0 1 0 0.008681724 0.008700869 0.008692848 0.008771976 0.008755247 1000 0.008681724 0.008700869 0.008692848 0.008771976 0.008755247 1000 0.007149902 0.007397065 0.007756419 0.007911149 0.007897711 1000 0.007149902 0.007397065 0.007756419 0.007911149 0.007897711 1000
lala 6 1.2 1 second 14 1 97 5 4.5 0.659997701644897 0 0 1 0 0.007963385 0.008212882 0.008044157 0.007694202 0.007829705 1000 0.007963385 0.008212882 0.008044157 0.007694202 0.007829705 1000 0.006359909 0.005927261 0.00640292 0.006971528 0.006908293 1000 0.006359909 0.005927261 0.00640292 0.006971528 0.006908293 1000
lala 5 1.2 0 second 11 1 98 6 3.180001 0.499997854232788 1 1 -1 1 0.00718736 0.006751311 0.006872069 0.007298781 0.007593918 1000 0.00718736 0.006751311 0.006872069 0.007298781 0.007593918 1000 0.005457498 0.005656709 0.005139912 0.005530378 0.005774903 1000 0.005457498 0.005656709 0.005139912 0.005530378 0.005774903 1000
lala 7 1.2 1 second 14 1 99 5 3.3 0.799997568130493 0 0 1 0 0.005523782 0.005449278 0.005684572 0.005907312 0.0054907 1000 0.005523782 0.005449278 0.005684572 0.005907312 0.0054907 1000 0.00632247 0.005611932 0.006035519 0.006378902 0.005886065 1000 0.00632247 0.005611932 0.006035519 0.006378902 0.005886065 1000
lala 5 1.2 0 first 8 1 100 5 3.3 0.579997777938843 1 0 -1 0 -0.02313405 -0.02005478 -0.0175122 -0.01565283 -0.01441014 -0.01275435 -0.02313405 -0.02005478 -0.0175122 -0.01565283 -0.01441014 -0.01275435 -0.01122558 -0.0107969 -0.01107169 -0.01115671 -0.01100862 1000 -0.01122558 -0.0107969 -0.01107169 -0.01115671 -0.01100862 1000
lala 5 1.2 0 first 0 1 101 4 5.04 0.679997682571411 -1 0 -1 1 -0.006004781 -0.001646865 0.000319964 1000 1000 1000 -0.006004781 -0.001646865 0.000319964 1000 1000 1000 0.003174188 0.003684336 0.003700963 0.003634322 0.003701244 1000 0.003174188 0.003684336 0.003700963 0.003634322 0.003701244 1000
lala 7 1.2 1 second 2 1 102 5 5.7 0.259998083114624 -1 0 1 0 0.004315964 0.004659294 0.00437301 0.004394966 0.004707461 1000 0.004315964 0.004659294 0.00437301 0.004394966 0.004707461 1000 0.002538311 0.003030543 0.003479921 0.003490958 0.003508162 1000 0.002538311 0.003030543 0.003479921 0.003490958 0.003508162 1000
lala 5 1.2 1 second 5 1 103 6 7.98 0.499997854232788 -1 1 1 1 0.00211921 0.002212685 0.002184122 0.002159527 0.001704317 1000 0.00211921 0.002212685 0.002184122 0.002159527 0.001704317 1000 0.002261205 0.002624688 0.002672034 0.003084133 0.002856614 1000 0.002261205 0.002624688 0.002672034 0.003084133 0.002856614 1000
lala 6 1.2 1 second 0 1 104 4 6.24 0.679997682571411 -1 0 1 1 0.002197661 0.002253932 0.002481854 0.002760517 0.003015839 1000 0.002197661 0.002253932 0.002481854 0.002760517 0.003015839 1000 0.004918511 0.004602904 0.004309039 0.004620733 0.004997833 1000 0.004918511 0.004602904 0.004309039 0.004620733 0.004997833 1000
lala 7 1.2 0 second 10 1 105 6 4.38 0.539997816085815 1 0 -1 1 0.004512472 0.004193709 0.003730854 0.003895057 0.00408385 1000 0.004512472 0.004193709 0.003730854 0.003895057 0.00408385 1000 0.00420454 0.004270863 0.003884506 0.004003127 0.004476208 1000 0.00420454 0.004270863 0.003884506 0.004003127 0.004476208 1000
lala 8 1.2 1 second 3 1 106 5 5.45 0.419997930526733 -1 1 1 1 0.004968739 0.005450811 0.004908803 0.003598259 0.003571333 1000 0.004968739 0.005450811 0.004908803 0.003598259 0.003571333 1000 0.004215899 0.004434139 0.00459959 0.004095766 0.00412083 1000 0.004215899 0.004434139 0.00459959 0.004095766 0.00412083 1000
lala 6 1.2 0 first 5 1 107 6 6.780001 0.859997510910034 -1 1 -1 0 0.005870649 0.006643672 0.006795082 1000 1000 1000 0.005870649 0.006643672 0.006795082 1000 1000 1000 0.005906258 0.005362226 0.005247828 0.005714012 0.005689013 1000 0.005906258 0.005362226 0.005247828 0.005714012 0.005689013 1000
lala 6 1.2 0 second 9 1 108 5 3.050001 1.13999724388123 1 1 -1 1 0.00433395 0.004217466 0.004800569 0.005474444 0.005635451 1000 0.00433395 0.004217466 0.004800569 0.005474444 0.005635451 1000 0.006879716 0.007090928 0.007223419 0.006668202 0.006907383 1000 0.006879716 0.007090928 0.007223419 0.006668202 0.006907383 1000
lala 6 1.2 0 first 11 1 109 6 4.380001 0.459997892379761 1 1 -1 0 0.008492466 0.00828718 0.008543826 1000 1000 1000 0.008492466 0.00828718 0.008543826 1000 1000 1000 0.009649634 0.01004664 0.009652238 0.009719878 0.01018211 1000 0.009649634 0.01004664 0.009652238 0.009719878 0.01018211 1000
lala 7 1.2 1 first 13 1 110 4 2.92 0.839997529983521 0 1 1 1 0.00898661 0.008555714 0.007959088 1000 1000 1000 0.00898661 0.008555714 0.007959088 1000 1000 1000 0.008657831 0.009316529 0.009517096 0.009857646 0.01059216 1000 0.008657831 0.009316529 0.009517096 0.009857646 0.01059216 1000
lala 7 1.2 1 second 17 1 111 6 5.580001 0.419997930526733 0 1 1 0 0.009869779 0.01014879 0.01027755 0.01015083 0.01016801 1000 0.009869779 0.01014879 0.01027755 0.01015083 0.01016801 1000 0.009744591 0.009468282 0.009791571 0.009994427 0.01005425 1000 0.009744591 0.009468282 0.009791571 0.009994427 0.01005425 1000
lala 6 1.2 1 first 8 1 112 5 4.5 0.519997835159302 1 0 1 0 0.01273997 0.01267897 0.01128368 1000 1000 1000 0.01273997 0.01267897 0.01128368 1000 1000 1000 0.01048456 0.01063499 0.01081631 0.01122869 0.01043914 1000 0.01048456 0.01063499 0.01081631 0.01122869 0.01043914 1000
lala 8 1.2 1 first 10 1 113 6 5.58 0.639997720718384 1 0 1 0 0.01095915 0.01102467 0.01131981 1000 1000 1000 0.01095915 0.01102467 0.01131981 1000 1000 1000 0.0132287 0.01270027 0.01225568 0.01257729 0.01250869 1000 0.0132287 0.01270027 0.01225568 0.01257729 0.01250869 1000
lala 9 1.2 0 first 3 1 114 5 4.25 0.439997911453247 -1 1 -1 1 0.01056426 0.01099324 0.01098496 1000 1000 1000 0.01056426 0.01099324 0.01098496 1000 1000 1000 0.01267928 0.01327435 0.01334067 0.0129596 0.01322341 1000 0.01267928 0.01327435 0.01334067 0.0129596 0.01322341 1000
lala 7 1.2 0 first 8 1 115 5 3.3 0.499997854232788 1 0 -1 0 0.01180084 0.01158955 0.01160223 1000 1000 1000 0.01180084 0.01158955 0.01160223 1000 1000 1000 0.0115159 0.01151274 0.01148653 0.01156343 0.01146553 1000 0.0115159 0.01151274 0.01148653 0.01156343 0.01146553 1000
lala 3 1.2 0 first 1 1 116 4 5.32 0.959997415542603 -1 1 -1 0 0.01125017 0.01147539 0.01122478 1000 1000 1000 0.01125017 0.01147539 0.01122478 1000 1000 1000 0.01355207 0.01415471 0.01499669 0.01464865 0.01327962 1000 0.01355207 0.01415471 0.01499669 0.01464865 0.01327962 1000
lala 8 1.2 1 second 8 1 117 5 4.5 0.0999982357025146 1 0 1 0 0.004921605 0.00486615 0.005323127 0.005968063 0.005427967 1000 0.004921605 0.00486615 0.005323127 0.005968063 0.005427967 1000 0.00469238 0.004756388 0.004677527 0.004910551 0.005000249 1000 0.00469238 0.004756388 0.004677527 0.004910551 0.005000249 1000
lala 10 0.6 0 first 3 1 118 5 4.85 0.459997892379761 -1 1 -1 0 0.004405322 0.004330514 0.004882021 1000 1000 1000 0.004405322 0.004330514 0.004882021 1000 1000 1000 0.003002997 0.002779821 0.003196897 0.003365536 0.003382735 1000 0.003002997 0.002779821 0.003196897 0.003365536 0.003382735 1000
lala 7 1.2 1 first 11 1 119 6 5.580001 0.519997835159302 1 1 1 1 0.003615835 0.003019675 0.002622487 1000 1000 1000 0.003615835 0.003019675 0.002622487 1000 1000 1000 0.004382525 0.004689588 0.004286943 0.004706968 0.004349701 1000 0.004382525 0.004689588 0.004286943 0.004706968 0.004349701 1000
lala 9 1.2 1 first 12 1 120 4 5.04 2.2999963760376 0 0 1 1 0.002700093 0.002468654 0.002923089 1000 1000 1000 0.002700093 0.002468654 0.002923089 1000 1000 1000 0.003606462 0.003171661 0.003157872 0.003332256 0.002905772 1000 0.003606462 0.003171661 0.003157872 0.003332256 0.002905772 1000
lala 8 1.2 0 first 17 1 121 6 4.380001 1.81999683380127 0 1 -1 1 0.002106757 0.002201684 0.002308658 1000 1000 1000 0.002106757 0.002201684 0.002308658 1000 1000 1000 -0.00494476 -0.005156245 -0.005361358 -0.00536012 -0.005179294 1000 -0.00494476 -0.005156245 -0.005361358 -0.00536012 -0.005179294 1000
lala 8 1.2 0 first 2 1 122 5 4.5 0.859997510910034 -1 0 -1 0 -0.00720884 -0.006692518 -0.006206751 1000 1000 1000 -0.00720884 -0.006692518 -0.006206751 1000 1000 1000 -0.007301941 -0.007415799 -0.007432472 -0.007255098 -0.006851931 1000 -0.007301941 -0.007415799 -0.007432472 -0.007255098 -0.006851931 1000
lala 7 1.2 1 second 5 1 123 6 7.98 0.579997777938843 -1 1 1 1 -0.006331587 -0.006586033 -0.007139943 -0.007100913 -0.007692539 1000 -0.006331587 -0.006586033 -0.007139943 -0.007100913 -0.007692539 1000 -0.008217576 -0.008719154 -0.008513334 -0.007831025 -0.007705285 1000 -0.008217576 -0.008719154 -0.008513334 -0.007831025 -0.007705285 1000
lala 8 1.2 1 second 11 1 124 6 4.380001 1.29999709129334 1 1 1 1 -0.006929685 -0.006853191 -0.006960525 -0.006812965 -0.006948351 1000 -0.006929685 -0.006853191 -0.006960525 -0.006812965 -0.006948351 1000 -0.00784814 -0.008128124 -0.008613333 -0.008646013 -0.008047673 1000 -0.00784814 -0.008128124 -0.008613333 -0.008646013 -0.008047673 1000
lala 9 1.2 0 first 8 1 125 5 3.3 0.479997873306274 1 0 -1 1 -0.006983544 -0.006812867 -0.006940099 1000 1000 1000 -0.006983544 -0.006812867 -0.006940099 1000 1000 1000 -0.006286616 -0.005850591 -0.005205099 -0.005310611 -0.004928247 1000 -0.006286616 -0.005850591 -0.005205099 -0.005310611 -0.004928247 1000
lala 11 0.6 0 first 3 1 126 5 5.45 0.459997892379761 -1 1 -1 0 -0.006210234 -0.00565556 -0.005426191 1000 1000 1000 -0.006210234 -0.00565556 -0.005426191 1000 1000 1000 -0.00503706 -0.004716462 -0.005149604 -0.005332713 -0.005010705 1000 -0.00503706 -0.004716462 -0.005149604 -0.005332713 -0.005010705 1000
lala 8 1.2 1 first 15 1 127 5 5.45 0.599997758865356 0 1 1 1 -0.006418509 -0.00602745 -0.005706534 1000 1000 1000 -0.006418509 -0.00602745 -0.005706534 1000 1000 1000 -0.004767152 -0.004659266 -0.004757758 -0.004715505 -0.004979909 1000 -0.004767152 -0.004659266 -0.004757758 -0.004715505 -0.004979909 1000
lala 8 1.2 1 second 5 1 128 6 6.780001 0.919997453689575 -1 1 1 1 -0.003622342 -0.00320055 -0.002576166 -0.002523203 -0.002243327 1000 -0.003622342 -0.00320055 -0.002576166 -0.002523203 -0.002243327 1000 -0.002951417 -0.003476727 -0.003355185 -0.002773341 -0.002679838 1000 -0.002951417 -0.003476727 -0.003355185 -0.002773341 -0.002679838 1000
lala 7 1.2 0 second 9 1 129 5 4.250001 0.519997835159302 1 1 -1 1 -0.00177654 -0.001852121 -0.001629565 -0.001952974 -0.002170807 1000 -0.00177654 -0.001852121 -0.001629565 -0.001952974 -0.002170807 1000 -0.001995364 -0.002018406 -0.002491647 -0.002365665 -0.002112263 1000 -0.001995364 -0.002018406 -0.002491647 -0.002365665 -0.002112263 1000
lala 8 1.2 1 first 9 1 130 5 5.450001 0.819997549057007 1 1 1 0 -0.002229749 -0.001602132 -0.001105577 1000 1000 1000 -0.002229749 -0.001602132 -0.001105577 1000 1000 1000 -0.0007794386 -0.000777259 -0.001143693 -0.001136193 -0.001375526 1000 -0.0007794386 -0.000777259 -0.001143693 -0.001136193 -0.001375526 1000
lala 7 1.2 0 second 7 1 131 4 2.92 1.15999722480774 1 1 -1 0 -0.002022654 -0.00259714 -0.002770281 -0.002179006 -0.0021732 1000 -0.002022654 -0.00259714 -0.002770281 -0.002179006 -0.0021732 1000 -0.0004015895 0.0005050195 0.001532936 0.0005965183 -0.0006532057 1000 -0.0004015895 0.0005050195 0.001532936 0.0005965183 -0.0006532057 1000
lala 9 1.2 1 first 10 1 132 6 4.38 0.779997587203979 1 0 1 1 -0.0007014576 -0.0002679074 -0.0008956325 1000 1000 1000 -0.0007014576 -0.0002679074 -0.0008956325 1000 1000 1000 -0.001715194 -0.002074926 -0.002186492 -0.002417146 -0.003808658 1000 -0.001715194 -0.002074926 -0.002186492 -0.002417146 -0.003808658 1000
lala 9 1.2 1 first 9 1 133 5 4.250001 1.41999697685242 1 1 1 0 -0.0001530025 -0.0002867573 -0.001404009 1000 1000 1000 -0.0001530025 -0.0002867573 -0.001404009 1000 1000 1000 -0.002613803 -0.002230729 -0.002021695 -0.002063252 -0.002199254 1000 -0.002613803 -0.002230729 -0.002021695 -0.002063252 -0.002199254 1000
lala 12 0.6 0 first 3 1 134 5 6.05 0.99999737739563 -1 1 -1 1 -0.004523625 -0.004210438 -0.003504557 1000 1000 1000 -0.004523625 -0.004210438 -0.003504557 1000 1000 1000 -0.001798429 -0.00157115 -0.002115763 -0.002095219 -0.001624338 1000 -0.001798429 -0.00157115 -0.002115763 -0.002095219 -0.001624338 1000
lala 8 1.2 1 first 7 1 135 4 4.12 0.839997529983521 1 1 1 1 -0.001557143 -0.00198846 -0.001972366 1000 1000 1000 -0.001557143 -0.00198846 -0.001972366 1000 1000 1000 -0.002353298 -0.002532291 -0.002941717 -0.002906775 -0.002598318 1000 -0.002353298 -0.002532291 -0.002941717 -0.002906775 -0.002598318 1000
lala 6 1.2 0 first 4 1 136 6 5.16 0.419997930526733 -1 0 -1 0 -0.002960947 -0.003030811 -0.003116417 1000 1000 1000 -0.002960947 -0.003030811 -0.003116417 1000 1000 1000 -0.002572418 -0.002487139 -0.002015468 -0.001539913 -0.001502982 1000 -0.002572418 -0.002487139 -0.002015468 -0.001539913 -0.001502982 1000
lala 10 1.2 0 second 10 1 137 6 3.18 0.739997625350952 1 0 -1 0 -0.001356262 -0.001390076 -0.0009188611 -0.0007055429 -0.001221442 1000 -0.001356262 -0.001390076 -0.0009188611 -0.0007055429 -0.001221442 1000 -0.001102267 -0.0009803433 -0.0008087239 -0.0003210163 -0.0009203536 1000 -0.001102267 -0.0009803433 -0.0008087239 -0.0003210163 -0.0009203536 1000
lala 4 1.2 1 first 1 1 138 4 6.52 0.499997854232788 -1 1 1 0 -0.0003265043 -0.0009605418 -0.002031307 1000 1000 1000 -0.0003265043 -0.0009605418 -0.002031307 1000 1000 1000 0.000217382 -0.0002034259 6.520398E-06 0.0001532402 -8.434084E-05 1000 0.000217382 -0.0002034259 6.520398E-06 0.0001532402 -8.434084E-05 1000
lala 9 1.2 1 first 2 1 139 5 5.7 0.719997644424438 -1 0 1 0 -0.00186696 -0.001741466 -0.001375268 1000 1000 1000 -0.00186696 -0.001741466 -0.001375268 1000 1000 1000 -0.0003068642 -6.764656E-05 0.000507422 0.0008080892 0.0005336519 1000 -0.0003068642 -6.764656E-05 0.000507422 0.0008080892 0.0005336519 1000
lala 9 1.2 0 first 11 1 140 6 3.180001 0.739997625350952 1 1 -1 0 -0.0003761919 -0.0006865008 -0.001080955 1000 1000 1000 -0.0003761919 -0.0006865008 -0.001080955 1000 1000 1000 0.001978216 0.002512619 0.003210113 0.003555228 0.003570356 1000 0.001978216 0.002512619 0.003210113 0.003555228 0.003570356 1000
lala 10 0.6 0 first 8 1 141 5 3.9 0.439997911453247 1 0 -1 0 0.004193422 0.003823949 0.003291371 1000 1000 1000 0.004193422 0.003823949 0.003291371 1000 1000 1000 0.003345051 0.003789666 0.004017513 0.003932828 0.004134718 1000 0.003345051 0.003789666 0.004017513 0.003932828 0.004134718 1000
lala 10 1.2 0 first 9 1 142 5 3.050001 0.39999794960022 1 1 -1 0 0.003472685 0.002889642 0.002477141 1000 1000 1000 0.003472685 0.002889642 0.002477141 1000 1000 1000 -0.001572091 -0.001472774 -0.001231762 -0.0008305178 -0.0008027942 1000 -0.001572091 -0.001472774 -0.001231762 -0.0008305178 -0.0008027942 1000
lala 9 1.2 0 first 7 1 143 4 2.92 0.979997396469116 1 1 -1 1 -0.002879891 -0.002195334 -0.001814556 1000 1000 1000 -0.002879891 -0.002195334 -0.001814556 1000 1000 1000 -0.000163311 -0.0002461667 -0.0001612666 -0.0002046343 7.227289E-05 1000 -0.000163311 -0.0002461667 -0.0001612666 -0.0002046343 7.227289E-05 1000
lala 10 0.6 1 second 7 1 144 4 3.52 1.47999691963196 1 1 1 0 -0.002299144 -0.0019527 -0.002011602 -0.002738264 -0.002720711 1000 -0.002299144 -0.0019527 -0.002011602 -0.002738264 -0.002720711 1000 -0.002065402 -0.001997998 -0.001951832 -0.002112124 -0.002410847 1000 -0.002065402 -0.001997998 -0.001951832 -0.002112124 -0.002410847 1000
lala 9 1.2 1 second 17 1 145 6 5.580001 0.719997644424438 0 1 1 1 -0.002504526 -0.001992245 -0.001905376 -0.001664908 -0.001699063 1000 -0.002504526 -0.001992245 -0.001905376 -0.001664908 -0.001699063 1000 -0.002170185 -0.002443167 -0.002846052 -0.002431402 -0.002134323 1000 -0.002170185 -0.002443167 -0.002846052 -0.002431402 -0.002134323 1000
lala 9 1.2 1 second 5 1 146 6 5.580001 0.559997797012329 -1 1 1 1 -0.0008398455 -0.0007930849 -0.0009173037 -0.0009495444 -0.001085238 1000 -0.0008398455 -0.0007930849 -0.0009173037 -0.0009495444 -0.001085238 1000 -0.002251456 -0.002094509 -0.00172929 -0.001391874 -0.002054838 1000 -0.002251456 -0.002094509 -0.00172929 -0.001391874 -0.002054838 1000
lala 7 1.2 0 first 4 1 147 6 6.36 0.539997816085815 -1 0 -1 1 -0.001416097 -0.001185191 -0.001026655 1000 1000 1000 -0.001416097 -0.001185191 -0.001026655 1000 1000 1000 0.0001099199 0.0001031664 -0.0003252164 -0.0004714688 0.000131086 1000 0.0001099199 0.0001031664 -0.0003252164 -0.0004714688 0.000131086 1000
lala 5 1.2 0 second 16 1 148 6 3.96 0.659997701644897 0 0 -1 1 -0.001591749 -0.001428289 -0.001258842 -0.001115383 -0.001481069 1000 -0.001591749 -0.001428289 -0.001258842 -0.001115383 -0.001481069 1000 -0.001471699 -0.0009178928 -9.926774E-06 0.0003427371 0.000466947 1000 -0.001471699 -0.0009178928 -9.926774E-06 0.0003427371 0.000466947 1000
lala 5 1.2 1 first 1 1 149 4 5.32 0.379997968673706 -1 1 1 0 0.000680888 0.0009181384 0.0007206657 1000 1000 1000 0.000680888 0.0009181384 0.0007206657 1000 1000 1000 0.0006549634 0.0006394123 0.0002436911 -0.0005682856 -0.0003473164 1000 0.0006549634 0.0006394123 0.0002436911 -0.0005682856 -0.0003473164 1000
lala 6 1.2 0 first 16 1 150 6 5.16 0.559997797012329 0 0 -1 0 -0.007508045 -0.007370813 -0.007600063 -0.007583924 -0.007521603 -0.007635175 -0.007508045 -0.007370813 -0.007600063 -0.007583924 -0.007521603 -0.007635175 -0.009540968 -0.009324348 -0.009119477 -0.009552601 -0.00943299 1000 -0.009540968 -0.009324348 -0.009119477 -0.009552601 -0.00943299 1000
lala 8 1.2 1 second 13 1 151 4 1.72 0.499997854232788 0 1 1 1 -0.01202867 -0.01197954 -0.01114139 -0.01069656 -0.01084371 1000 -0.01202867 -0.01197954 -0.01114139 -0.01069656 -0.01084371 1000 -0.01090494 -0.01090494 -0.01150994 -0.01215023 -0.01188225 1000 -0.01090494 -0.01090494 -0.01150994 -0.01215023 -0.01188225 1000
lala 8 1.2 0 second 14 1 152 5 2.1 0.599997758865356 0 0 -1 1 -0.012436 -0.01221612 -0.01214111 -0.012197 -0.01229613 1000 -0.012436 -0.01221612 -0.01214111 -0.012197 -0.01229613 1000 -0.01344875 -0.01350218 -0.01372533 -0.01312351 -0.01257336 1000 -0.01344875 -0.01350218 -0.01372533 -0.01312351 -0.01257336 1000
lala 10 2.4 0 second 5 1 153 6 3.180001 1.37999701499939 -1 1 -1 0 -0.01324542 -0.01286689 -0.01327315 -0.01324483 -0.01324155 1000 -0.01324542 -0.01286689 -0.01327315 -0.01324483 -0.01324155 1000 -0.01404928 -0.01395011 -0.01376285 -0.0136979 -0.01409979 1000 -0.01404928 -0.01395011 -0.01376285 -0.0136979 -0.01409979 1000
lala 11 1.2 0 first 5 1 154 6 4.380001 1.89999675750732 -1 1 -1 1 -0.01483794 -0.01442097 -0.01435636 1000 1000 1000 -0.01483794 -0.01442097 -0.01435636 1000 1000 1000 -0.01504439 -0.01510834 -0.01520701 -0.01580729 -0.01590173 1000 -0.01504439 -0.01510834 -0.01520701 -0.01580729 -0.01590173 1000
lala 10 0.6 1 first 12 1 155 4 4.44 0.299998044967651 0 0 1 0 -0.01503133 -0.0151967 -0.0152717 1000 1000 1000 -0.01503133 -0.0151967 -0.0152717 1000 1000 1000 -0.01477574 -0.01469825 -0.01453822 -0.01526174 -0.01561916 1000 -0.01477574 -0.01469825 -0.01453822 -0.01526174 -0.01561916 1000
lala 11 0.6 0 first 9 1 156 5 3.650001 2.63999605178833 1 1 -1 0 -0.01519665 -0.01525898 -0.01528624 1000 1000 1000 -0.01519665 -0.01525898 -0.01528624 1000 1000 1000 -0.01520789 -0.01474408 -0.01439007 -0.01455977 -0.01491221 1000 -0.01520789 -0.01474408 -0.01439007 -0.01455977 -0.01491221 1000
lala 6 1.2 1 second 1 1 157 4 4.12 1.13999724388123 -1 1 1 0 -0.01606561 -0.01652784 -0.01671909 -0.01631605 -0.01568903 1000 -0.01606561 -0.01652784 -0.01671909 -0.01631605 -0.01568903 1000 -0.01633683 -0.01677263 -0.01706942 -0.01680585 -0.01712398 1000 -0.01633683 -0.01677263 -0.01706942 -0.01680585 -0.01712398 1000
lala 10 0.6 1 second 17 1 158 6 4.980001 0.479997873306274 0 1 1 1 -0.01773388 -0.01763002 -0.01786214 -0.01733594 -0.0166019 1000 -0.01773388 -0.01763002 -0.01786214 -0.01733594 -0.0166019 1000 -0.01753627 -0.01718999 -0.01709912 -0.0170422 -0.01693831 1000 -0.01753627 -0.01718999 -0.01709912 -0.0170422 -0.01693831 1000
lala 11 0.3 0 second 7 1 159 4 3.22 0.779997587203979 1 1 -1 0 -0.01724724 -0.01709963 -0.01738315 -0.01780484 -0.01762697 1000 -0.01724724 -0.01709963 -0.01738315 -0.01780484 -0.01762697 1000 -0.01663689 -0.01645193 -0.01633424 -0.01631093 -0.01652849 1000 -0.01663689 -0.01645193 -0.01633424 -0.01631093 -0.01652849 1000
lala 11 0.6 1 first 12 1 160 4 3.84 0.659997701644897 0 0 1 1 -0.01646671 -0.01642871 -0.01596509 1000 1000 1000 -0.01646671 -0.01642871 -0.01596509 1000 1000 1000 -0.01752725 -0.01767914 -0.01822039 -0.01815481 -0.01790134 1000 -0.01752725 -0.01767914 -0.01822039 -0.01815481 -0.01790134 1000
lala 12 1.2 0 first 5 1 161 6 5.580001 1.31999707221985 -1 1 -1 0 -0.01704442 -0.01803968 -0.01793679 1000 1000 1000 -0.01704442 -0.01803968 -0.01793679 1000 1000 1000 -0.0177296 -0.01755347 -0.01705671 -0.01740313 -0.01751165 1000 -0.0177296 -0.01755347 -0.01705671 -0.01740313 -0.01751165 1000
lala 12 0.6 0 second 9 1 162 5 4.250001 1.01999735832214 1 1 -1 1 -0.01568271 -0.01631067 -0.01583881 -0.01579782 -0.01567079 1000 -0.01568271 -0.01631067 -0.01583881 -0.01579782 -0.01567079 1000 -0.01738931 -0.01734221 -0.01688889 -0.01707268 -0.0180525 1000 -0.01738931 -0.01734221 -0.01688889 -0.01707268 -0.0180525 1000
lala 7 1.2 0 first 16 1 163 6 6.36 0.379997968673706 0 0 -1 0 -0.01707183 -0.0176497 -0.01697447 1000 1000 1000 -0.01707183 -0.0176497 -0.01697447 1000 1000 1000 -0.01567475 -0.01530196 -0.01472093 -0.01480944 -0.0148462 1000 -0.01567475 -0.01530196 -0.01472093 -0.01480944 -0.0148462 1000
lala 7 1.2 1 second 0 1 164 4 5.04 0.819997549057007 -1 0 1 0 -0.01625196 -0.01602144 -0.01639989 -0.01697299 -0.01669266 1000 -0.01625196 -0.01602144 -0.01639989 -0.01697299 -0.01669266 1000 -0.01550327 -0.01533694 -0.01523153 -0.01521191 -0.01563037 1000 -0.01550327 -0.01533694 -0.01523153 -0.01521191 -0.01563037 1000
lala 13 0.6 1 second 9 1 165 5 4.850001 0.699997663497925 1 1 1 0 -0.01328833 -0.0132661 -0.01327116 -0.01426582 -0.01426348 1000 -0.01328833 -0.0132661 -0.01327116 -0.01426582 -0.01426348 1000 -0.01432512 -0.01406284 -0.01420835 -0.01547611 -0.01626989 1000 -0.01432512 -0.01406284 -0.01420835 -0.01547611 -0.01626989 1000
lala 13 1.2 1 first 3 1 166 5 7.25 0.359997987747192 -1 1 1 1 -0.01442688 -0.01441204 -0.01512135 1000 1000 1000 -0.01442688 -0.01441204 -0.01512135 1000 1000 1000 -0.0153946 -0.01543729 -0.01437681 -0.01428385 -0.01406434 1000 -0.0153946 -0.01543729 -0.01437681 -0.01428385 -0.01406434 1000
lala 8 1.2 1 second 4 1 167 6 7.559999 1.01999735832214 -1 0 1 1 -0.01546852 -0.01555081 -0.01552176 -0.01507826 -0.01511013 1000 -0.01546852 -0.01555081 -0.01552176 -0.01507826 -0.01511013 1000 -0.01481297 -0.01449972 -0.01378131 -0.01360557 -0.01335297 1000 -0.01481297 -0.01449972 -0.01378131 -0.01360557 -0.01335297 1000
lala 14 0.3 1 first 9 1 168 5 4.550001 1.25999712944031 1 1 1 1 -0.01442313 -0.01477498 -0.01547094 1000 1000 1000 -0.01442313 -0.01477498 -0.01547094 1000 1000 1000 -0.01473465 -0.01446969 -0.01431455 -0.01430622 -0.0140058 1000 -0.01473465 -0.01446969 -0.01431455 -0.01430622 -0.0140058 1000
lala 11 0.6 0 first 17 1 169 6 4.380001 0.639997720718384 0 1 -1 1 -0.01624527 -0.0162061 -0.01562876 1000 1000 1000 -0.01624527 -0.0162061 -0.01562876 1000 1000 1000 -0.01393939 -0.01488385 -0.01496323 -0.01439045 -0.01390565 1000 -0.01393939 -0.01488385 -0.01496323 -0.01439045 -0.01390565 1000
lala 10 0.6 0 second 2 1 170 5 5.1 2.45999622344971 -1 0 -1 1 -0.01345593 -0.0135359 -0.01331576 -0.01346177 -0.01407787 1000 -0.01345593 -0.0135359 -0.01331576 -0.01346177 -0.01407787 1000 -0.01469917 -0.01432603 -0.01397487 -0.01387537 -0.01372091 1000 -0.01469917 -0.01432603 -0.01397487 -0.01387537 -0.01372091 1000
lala 9 1.2 0 first 13 1 171 4 1.32 0.339998006820679 0 1 -1 1 -0.01428728 -0.01386024 -0.01390292 1000 1000 1000 -0.01428728 -0.01386024 -0.01390292 1000 1000 1000 -0.01322859 -0.01283138 -0.01192503 -0.01209515 -0.01232121 1000 -0.01322859 -0.01283138 -0.01192503 -0.01209515 -0.01232121 1000
lala 8 1.2 1 second 6 1 172 4 6.24 0.479997873306274 1 0 1 0 -0.01192832 -0.01269333 -0.01263031 -0.01239994 -0.01222865 1000 -0.01192832 -0.01269333 -0.01263031 -0.01239994 -0.01222865 1000 -0.01097885 -0.01105691 -0.01150802 -0.01123075 -0.01089421 1000 -0.01097885 -0.01105691 -0.01150802 -0.01123075 -0.01089421 1000
lala 11 0.6 0 first 10 1 173 6 3.78 0.39999794960022 1 0 -1 0 -0.008581651 -0.008894951 -0.008922316 1000 1000 1000 -0.008581651 -0.008894951 -0.008922316 1000 1000 1000 -0.007444483 -0.007297878 -0.00704396 -0.006886205 -0.007636662 1000 -0.007444483 -0.007297878 -0.00704396 -0.006886205 -0.007636662 1000
lala 9 1.2 1 second 6 1 174 4 5.04 0.559997797012329 1 0 1 1 -0.007610306 -0.007751596 -0.007022169 -0.006313411 -0.005987179 1000 -0.007610306 -0.007751596 -0.007022169 -0.006313411 -0.005987179 1000 -0.005924148 -0.005771736 -0.006344035 -0.006602107 -0.006379653 1000 -0.005924148 -0.005771736 -0.006344035 -0.006602107 -0.006379653 1000
lala 9 1.2 0 second 15 1 175 5 4.25 0.459997892379761 0 1 -1 1 -0.006790216 -0.006826435 -0.006675472 -0.006937468 -0.007455005 1000 -0.006790216 -0.006826435 -0.006675472 -0.006937468 -0.007455005 1000 -0.006670829 -0.006229877 -0.006182811 -0.005927042 -0.005689608 1000 -0.006670829 -0.006229877 -0.006182811 -0.005927042 -0.005689608 1000
lala 8 1.2 1 first 0 1 176 4 3.84 0.499997854232788 -1 0 1 0 -0.006211944 -0.006135501 -0.006074061 1000 1000 1000 -0.006211944 -0.006135501 -0.006074061 1000 1000 1000 -0.006955746 -0.007543499 -0.007591264 -0.007295376 -0.00721089 1000 -0.006955746 -0.007543499 -0.007591264 -0.007295376 -0.00721089 1000
lala 10 0.6 0 first 15 1 177 5 4.85 1.0999972820282 0 1 -1 0 -0.007538799 -0.007437168 -0.007534067 1000 1000 1000 -0.007538799 -0.007437168 -0.007534067 1000 1000 1000 -0.008216614 -0.008235263 -0.008088211 -0.00831449 -0.008768808 1000 -0.008216614 -0.008235263 -0.008088211 -0.00831449 -0.008768808 1000
lala 15 0.3 0 second 9 1 178 5 4.25 2.31999635696411 1 1 -1 1 -0.008417282 -0.008935219 -0.008930803 -0.008462954 -0.00835846 1000 -0.008417282 -0.008935219 -0.008930803 -0.008462954 -0.00835846 1000 -0.008691873 -0.008859136 -0.009216922 -0.009109859 -0.008892315 1000 -0.008691873 -0.008859136 -0.009216922 -0.009109859 -0.008892315 1000
lala 9 1.2 1 second 0 1 179 4 2.64 0.979997396469116 -1 0 1 0 -0.008889377 -0.00827785 -0.008231927 -0.00832795 -0.007994398 1000 -0.008889377 -0.00827785 -0.008231927 -0.00832795 -0.007994398 1000 -0.008676304 -0.008661305 -0.008375956 -0.008501282 -0.008655978 1000 -0.008676304 -0.008661305 -0.008375956 -0.008501282 -0.008655978 1000
lala 9 1.2 0 second 4 1 180 6 6.36 1.99999666213989 -1 0 -1 1 -0.008556337 -0.007959791 -0.00882254 -0.01025288 -0.01164211 1000 -0.008556337 -0.007959791 -0.00882254 -0.01025288 -0.01164211 1000 -0.01255322 -0.0124559 -0.01229194 -0.01259349 -0.01194031 1000 -0.01255322 -0.0124559 -0.01229194 -0.01259349 -0.01194031 1000
lala 12 0.6 0 first 12 1 181 4 3.24 1.0999972820282 0 0 -1 1 -0.01390249 -0.01383531 -0.01364301 1000 1000 1000 -0.01390249 -0.01383531 -0.01364301 1000 1000 1000 -0.009909402 -0.01058422 -0.01073456 -0.01105662 -0.01097001 1000 -0.009909402 -0.01058422 -0.01073456 -0.01105662 -0.01097001 1000
lala 9 1.2 0 second 14 1 182 5 3.3 0.579997777938843 0 0 -1 0 -0.003683628 -0.003060308 -0.003149755 -0.00334135 -0.004916679 1000 -0.003683628 -0.003060308 -0.003149755 -0.00334135 -0.004916679 1000 -0.009056451 -0.009190585 -0.00860863 -0.008132567 -0.008392211 1000 -0.009056451 -0.009190585 -0.00860863 -0.008132567 -0.008392211 1000
lala 10 1.2 0 first 6 1 183 4 3.84 1.17999720573425 1 0 -1 0 -0.008303612 -0.008043755 -0.008252837 1000 1000 1000 -0.008303612 -0.008043755 -0.008252837 1000 1000 1000 -0.007503581 -0.007989537 -0.007852465 -0.007267558 -0.007034861 1000 -0.007503581 -0.007989537 -0.007852465 -0.007267558 -0.007034861 1000
lala 10 1.2 1 second 14 1 184 5 4.5 1.21999716758728 0 0 1 1 -0.006818586 -0.006330053 -0.006131461 -0.005930881 -0.006322815 1000 -0.006818586 -0.006330053 -0.006131461 -0.005930881 -0.006322815 1000 -0.005761735 -0.005895495 -0.005677034 -0.005578104 -0.005602912 1000 -0.005761735 -0.005895495 -0.005677034 -0.005578104 -0.005602912 1000
lala 12 0.6 0 first 10 1 185 6 4.38 0.759997606277466 1 0 -1 0 -0.005854929 -0.006044762 -0.005627639 1000 1000 1000 -0.005854929 -0.006044762 -0.005627639 1000 1000 1000 -0.004837557 -0.004293134 -0.004115724 -0.003966136 -0.00412104 1000 -0.004837557 -0.004293134 -0.004115724 -0.003966136 -0.00412104 1000
lala 11 0.6 0 first 14 1 186 5 3.9 0.39999794960022 0 0 -1 1 -0.005170575 -0.004777073 -0.005465436 1000 1000 1000 -0.005170575 -0.004777073 -0.005465436 1000 1000 1000 -0.003963281 -0.00401628 -0.004021809 -0.003411775 -0.003014323 1000 -0.003963281 -0.00401628 -0.004021809 -0.003411775 -0.003014323 1000
lala 12 0.3 0 first 14 1 187 5 4.2 0.539997816085815 0 0 -1 1 -0.003536791 -0.003408252 -0.003380936 1000 1000 1000 -0.003536791 -0.003408252 -0.003380936 1000 1000 1000 -0.003807544 -0.00417801 -0.004107513 -0.003596974 -0.003533363 1000 -0.003807544 -0.00417801 -0.004107513 -0.003596974 -0.003533363 1000
lala 12 0.3 0 second 17 1 188 6 4.680001 0.459997892379761 0 1 -1 1 -0.003215735 -0.002982947 -0.002932103 -0.002629281 -0.003007353 1000 -0.003215735 -0.002982947 -0.002932103 -0.002629281 -0.003007353 1000 -0.00256581 -0.00218802 -0.002227224 -0.001862854 -0.002026981 1000 -0.00256581 -0.00218802 -0.002227224 -0.001862854 -0.002026981 1000
lala 16 0.15 0 first 9 1 189 5 4.400001 0.419997930526733 1 1 -1 1 -0.003932951 -0.003990343 -0.003701938 1000 1000 1000 -0.003932951 -0.003990343 -0.003701938 1000 1000 1000 -0.002208206 -0.002264284 -0.002266046 -0.002785539 -0.002357858 1000 -0.002208206 -0.002264284 -0.002266046 -0.002785539 -0.002357858 1000
lala 13 1.2 1 second 5 1 190 6 6.780001 0.61999773979187 -1 1 1 0 -0.003876674 -0.003430096 -0.003408923 -0.003358137 -0.003366463 1000 -0.003876674 -0.003430096 -0.003408923 -0.003358137 -0.003366463 1000 -0.002435669 -0.002653973 -0.002300554 -0.001953532 -0.002027546 1000 -0.002435669 -0.002653973 -0.002300554 -0.001953532 -0.002027546 1000
lala 10 0.6 0 first 13 1 191 4 1.92 0.119998216629028 0 1 -1 0 -0.0028181 -0.002672494 -0.00219197 1000 1000 1000 -0.0028181 -0.002672494 -0.00219197 1000 1000 1000 -0.001076154 -0.001062464 -0.0005866243 -0.0008637441 -0.001238378 1000 -0.001076154 -0.001062464 -0.0005866243 -0.0008637441 -0.001238378 1000
lala 14 0.6 1 first 3 1 192 5 6.65 0.639997720718384 -1 1 1 1 -0.001032667 -0.0008945302 -0.0004809468 1000 1000 1000 -0.001032667 -0.0008945302 -0.0004809468 1000 1000 1000 0.0009079744 0.0005348815 0.00063725 0.0006852074 5.385432E-05 1000 0.0009079744 0.0005348815 0.00063725 0.0006852074 5.385432E-05 1000
lala 13 0.3 0 second 12 1 193 4 3.54 0.579997777938843 0 0 -1 0 -0.001468483 -0.001390624 -0.001177268 -0.0007713173 -0.001133003 1000 -0.001468483 -0.001390624 -0.001177268 -0.0007713173 -0.001133003 1000 -0.0007394725 -0.0001807846 0.0002928259 0.0004587611 0.0004504396 1000 -0.0007394725 -0.0001807846 0.0002928259 0.0004587611 0.0004504396 1000
lala 13 0.6 0 second 10 1 194 6 4.98 2.49999618530273 1 0 -1 1 -0.0007031378 -0.0009713063 -0.001744093 -0.0014595 -0.001152361 1000 -0.0007031378 -0.0009713063 -0.001744093 -0.0014595 -0.001152361 1000 -0.00131324 -0.001056938 -0.0006783524 -0.0009143815 -0.001199082 1000 -0.00131324 -0.001056938 -0.0006783524 -0.0009143815 -0.001199082 1000
lala 14 0.3 0 first 12 1 195 4 3.84 0.279998064041138 0 0 -1 1 8.24792E-05 0.0008144298 0.0004378016 1000 1000 1000 8.24792E-05 0.0008144298 0.0004378016 1000 1000 1000 6.343042E-05 2.717943E-05 0.0003999609 0.0004637124 0.0004474679 1000 6.343042E-05 2.717943E-05 0.0003999609 0.0004637124 0.0004474679 1000
lala 7 1.2 0 first 1 1 196 4 2.92 0.679997682571411 -1 1 -1 0 0.0004786961 0.0003443714 0.0006364413 1000 1000 1000 0.0004786961 0.0003443714 0.0006364413 1000 1000 1000 0.000464603 0.0004303233 0.0008175094 0.0009744492 0.0009775161 1000 0.000464603 0.0004303233 0.0008175094 0.0009744492 0.0009775161 1000
lala 12 0.15 1 first 7 1 197 4 3.37 1.0999972820282 1 1 1 0 -0.001012663 -0.001588528 -0.001848388 1000 1000 1000 -0.001012663 -0.001588528 -0.001848388 1000 1000 1000 -0.0006870761 -0.000450661 -0.001123447 -0.001359292 -0.0009092599 1000 -0.0006870761 -0.000450661 -0.001123447 -0.001359292 -0.0009092599 1000
lala 10 0.6 0 first 4 1 198 6 6.96 0.499997854232788 -1 0 -1 1 -0.0009567325 -0.00109562 -0.001703769 1000 1000 1000 -0.0009567325 -0.00109562 -0.001703769 1000 1000 1000 -0.001684228 -0.002051931 -0.002556647 -0.002253196 -0.001975114 1000 -0.001684228 -0.002051931 -0.002556647 -0.002253196 -0.001975114 1000
lala 14 0.6 0 first 5 1 199 6 6.180001 0.459997892379761 -1 1 -1 0 -0.002732693 -0.003436105 -0.003345311 1000 1000 1000 -0.002732693 -0.003436105 -0.003345311 1000 1000 1000 -0.003448031 -0.002746068 -0.002783203 -0.002626174 -0.002727656 1000 -0.003448031 -0.002746068 -0.002783203 -0.002626174 -0.002727656 1000
lala 11 0.3 0 second 2 1 200 5 5.4 1.21999716758728 -1 0 -1 0 -0.006556569 -0.006196733 -0.005049016 -0.00525244 -0.006536776 1000 -0.006556569 -0.006196733 -0.005049016 -0.00525244 -0.006536776 1000 -0.01068216 -0.01009874 -0.01007145 -0.01066867 -0.01062811 1000 -0.01068216 -0.01009874 -0.01007145 -0.01066867 -0.01062811 1000
lala 11 0.6 1 second 4 1 201 6 7.559999 0.479997873306274 -1 0 1 1 -0.0116172 -0.01221161 -0.01264147 -0.01251575 -0.01176601 1000 -0.0116172 -0.01221161 -0.01264147 -0.01251575 -0.01176601 1000 -0.01275727 -0.01226461 -0.01209391 -0.01194987 -0.01196701 1000 -0.01275727 -0.01226461 -0.01209391 -0.01194987 -0.01196701 1000
lala 10 0.6 0 first 11 1 202 6 3.780001 0.439997911453247 1 1 -1 0 -0.0126077 -0.01233533 -0.01218745 1000 1000 1000 -0.0126077 -0.01233533 -0.01218745 1000 1000 1000 -0.01291309 -0.01262231 -0.01221019 -0.01259019 -0.01229106 1000 -0.01291309 -0.01262231 -0.01221019 -0.01259019 -0.01229106 1000
lala 11 0.6 1 first 11 1 203 6 4.380001 0.539997816085815 1 1 1 1 -0.01506257 -0.01476924 -0.01474599 1000 1000 1000 -0.01506257 -0.01476924 -0.01474599 1000 1000 1000 -0.01387964 -0.01405545 -0.01334396 -0.01317259 -0.0131265 1000 -0.01387964 -0.01405545 -0.01334396 -0.01317259 -0.0131265 1000
lala 12 0.3 0 first 2 1 204 5 5.7 0.419997930526733 -1 0 -1 1 -0.01233573 -0.01194705 -0.0116923 1000 1000 1000 -0.01233573 -0.01194705 -0.0116923 1000 1000 1000 -0.01242041 -0.01213718 -0.01225137 -0.01312642 -0.01297734 1000 -0.01242041 -0.01213718 -0.01225137 -0.01312642 -0.01297734 1000
lala 8 1.2 1 second 16 1 205 6 7.559999 0.39999794960022 0 0 1 1 -0.01270512 -0.01249557 -0.01183862 -0.01185873 -0.01143792 1000 -0.01270512 -0.01249557 -0.01183862 -0.01185873 -0.01143792 1000 -0.01056031 -0.01010192 -0.01055421 -0.01081189 -0.01053629 1000 -0.01056031 -0.01010192 -0.01055421 -0.01081189 -0.01053629 1000
lala 9 1.2 1 first 16 1 206 6 6.36 0.139998197555542 0 0 1 1 -0.0121745 -0.01203863 -0.01164579 1000 1000 1000 -0.0121745 -0.01203863 -0.01164579 1000 1000 1000 -0.008848103 -0.009276189 -0.009018371 -0.008158169 -0.007740239 1000 -0.008848103 -0.009276189 -0.009018371 -0.008158169 -0.007740239 1000
lala 11 0.6 0 second 13 1 207 4 2.52 0.439997911453247 0 1 -1 0 -0.008263226 -0.008591141 -0.008292571 -0.008418547 -0.008556532 1000 -0.008263226 -0.008591141 -0.008292571 -0.008418547 -0.008556532 1000 -0.007385326 -0.007845534 -0.00765225 -0.007130929 -0.007027633 1000 -0.007385326 -0.007845534 -0.00765225 -0.007130929 -0.007027633 1000
lala 13 0.3 0 first 14 1 208 5 4.5 0.359997987747192 0 0 -1 1 -0.007595409 -0.007998084 -0.007814677 1000 1000 1000 -0.007595409 -0.007998084 -0.007814677 1000 1000 1000 -0.005786234 -0.005609083 -0.005668411 -0.005437903 -0.005581817 1000 -0.005786234 -0.005609083 -0.005668411 -0.005437903 -0.005581817 1000
lala 8 1.2 0 second 1 1 209 4 4.12 0.459997892379761 -1 1 -1 0 -0.006623891 -0.006616099 -0.007348678 -0.0071191 -0.006547381 1000 -0.006623891 -0.006616099 -0.007348678 -0.0071191 -0.006547381 1000 -0.005835399 -0.005237736 -0.004785597 -0.005085601 -0.005429544 1000 -0.005835399 -0.005237736 -0.004785597 -0.005085601 -0.005429544 1000
lala 12 0.3 0 first 11 1 210 6 4.080001 0.39999794960022 1 1 -1 1 -0.005456459 -0.005558384 -0.005317397 1000 1000 1000 -0.005456459 -0.005558384 -0.005317397 1000 1000 1000 -0.005617102 -0.005973536 -0.005546323 -0.005435314 -0.005231242 1000 -0.005617102 -0.005973536 -0.005546323 -0.005435314 -0.005231242 1000
lala 13 0.075 0 second 7 1 211 4 3.295 2.05999660491943 1 1 -1 1 -0.004200367 -0.003910885 -0.003489866 -0.003040017 -0.003378888 1000 -0.004200367 -0.003910885 -0.003489866 -0.003040017 -0.003378888 1000 -0.004720807 -0.004148811 -0.003691158 -0.002833971 -0.003171801 1000 -0.004720807 -0.004148811 -0.003691158 -0.002833971 -0.003171801 1000
lala 13 0.3 1 second 17 1 212 6 4.980001 0.499997854232788 0 1 1 1 -0.003241433 -0.002601741 -0.002006581 -0.002172048 -0.001912155 1000 -0.003241433 -0.002601741 -0.002006581 -0.002172048 -0.001912155 1000 -0.003178136 -0.003596123 -0.003282829 -0.003143482 -0.0030067 1000 -0.003178136 -0.003596123 -0.003282829 -0.003143482 -0.0030067 1000
lala 13 0.15 1 first 11 1 213 6 4.230001 1.59999680519104 1 1 1 1 -0.002987175 -0.003171593 -0.003061983 1000 1000 1000 -0.002987175 -0.003171593 -0.003061983 1000 1000 1000 -0.001278534 -0.001183635 -0.001323076 -0.001297674 -0.001934463 1000 -0.001278534 -0.001183635 -0.001323076 -0.001297674 -0.001934463 1000
lala 14 0.075 1 first 11 1 214 6 4.155001 1.31999707221985 1 1 1 1 -0.002095328 -0.002606389 -0.002227894 1000 1000 1000 -0.002095328 -0.002606389 -0.002227894 1000 1000 1000 -0.001477576 -0.0008068859 -0.000561905 -0.0009645503 -0.0008745609 1000 -0.001477576 -0.0008068859 -0.000561905 -0.0009645503 -0.0008745609 1000
lala 9 1.2 0 second 1 1 215 4 5.32 0.61999773979187 -1 1 -1 1 -0.001827615 -0.001599701 -0.0006693967 -0.0002423044 -0.0001779934 1000 -0.001827615 -0.001599701 -0.0006693967 -0.0002423044 -0.0001779934 1000 0.001273917 0.0007640129 0.0004440633 0.0005916666 0.0006249135 1000 0.001273917 0.0007640129 0.0004440633 0.0005916666 0.0006249135 1000
lala 14 0.3 0 second 14 1 216 5 4.800001 0.419997930526733 0 0 -1 1 -0.001785179 -0.001417751 -0.001526539 -0.001175194 -0.0006767457 1000 -0.001785179 -0.001417751 -0.001526539 -0.001175194 -0.0006767457 1000 0.0007557143 0.001126969 0.001151138 0.0005775395 0.0007105789 1000 0.0007557143 0.001126969 0.001151138 0.0005775395 0.0007105789 1000
lala 12 0.3 1 first 4 1 217 6 7.259999 0.379997968673706 -1 0 1 0 0.001154269 0.001645536 0.001016326 1000 1000 1000 0.001154269 0.001645536 0.001016326 1000 1000 1000 0.001553809 0.002009797 0.002290678 0.002242643 0.002299936 1000 0.001553809 0.002009797 0.002290678 0.002242643 0.002299936 1000
lala 10 2.4 0 second 0 1 218 4 1.32 0.479997873306274 -1 0 -1 0 0.003065588 0.0031643 0.003419736 0.003535968 0.002951758 1000 0.003065588 0.0031643 0.003419736 0.003535968 0.002951758 1000 0.003578115 0.003678981 0.003699212 0.003742509 0.003220638 1000 0.003578115 0.003678981 0.003699212 0.003742509 0.003220638 1000
lala 15 0.3 1 second 12 1 219 4 4.14 0.819997549057007 0 0 1 1 0.001770249 0.002244809 0.002491977 0.002711876 0.002674331 1000 0.001770249 0.002244809 0.002491977 0.002711876 0.002674331 1000 0.003488327 0.004034521 0.003620293 0.004004825 0.004324724 1000 0.003488327 0.004034521 0.003620293 0.004004825 0.004324724 1000
lala 13 0.3 0 second 2 1 220 5 6 0.719997644424438 -1 0 -1 1 0.004153653 0.00339588 0.003453518 0.003944788 0.004245401 1000 0.004153653 0.00339588 0.003453518 0.003944788 0.004245401 1000 0.003414863 0.002761793 0.002635977 0.002207686 0.002344291 1000 0.003414863 0.002761793 0.002635977 0.002207686 0.002344291 1000
lala 10 2.4 1 second 1 1 221 4 7.72 1.55999684333801 -1 1 1 0 0.00352333 0.00339663 0.003246622 0.003385704 0.002865893 1000 0.00352333 0.00339663 0.003246622 0.003385704 0.002865893 1000 0.002096084 0.002218958 0.002571585 0.002755008 0.002700842 1000 0.002096084 0.002218958 0.002571585 0.002755008 0.002700842 1000
lala 15 0.075 1 first 11 1 222 6 4.080001 0.359997987747192 1 1 1 0 0.00515891 0.004948771 0.004797409 1000 1000 1000 0.00515891 0.004948771 0.004797409 1000 1000 1000 0.003725052 0.003923289 0.003729234 0.003638219 0.004075234 1000 0.003725052 0.003923289 0.003729234 0.003638219 0.004075234 1000
lala 11 1.2 0 second 0 1 223 4 2.52 0.679997682571411 -1 0 -1 1 0.004854325 0.005090197 0.005563282 0.005616899 0.005816096 1000 0.004854325 0.005090197 0.005563282 0.005616899 0.005816096 1000 0.005710545 0.005613082 0.005080611 0.00531821 0.005444298 1000 0.005710545 0.005613082 0.005080611 0.00531821 0.005444298 1000
lala 12 1.2 0 first 0 1 224 4 3.72 1.57999682426453 -1 0 -1 0 0.004411647 0.004612582 0.004802404 1000 1000 1000 0.004411647 0.004612582 0.004802404 1000 1000 1000 0.005417763 0.005984454 0.006613207 0.00693013 0.007106341 1000 0.005417763 0.005984454 0.006613207 0.00693013 0.007106341 1000
lala 14 0.15 1 second 17 1 225 6 4.830001 0.639997720718384 0 1 1 0 0.004914376 0.003980209 0.003600005 0.00417022 0.003972456 1000 0.004914376 0.003980209 0.003600005 0.00417022 0.003972456 1000 0.003600749 0.003316057 0.003176081 0.003398525 0.003373236 1000 0.003600749 0.003316057 0.003176081 0.003398525 0.003373236 1000
lala 10 1.2 1 second 16 1 226 6 5.16 0.319998025894165 0 0 1 1 0.003450444 0.003530302 0.003936262 0.003973761 0.004056635 1000 0.003450444 0.003530302 0.003936262 0.003973761 0.004056635 1000 0.004637034 0.004602554 0.004066438 0.004375921 0.004882172 1000 0.004637034 0.004602554 0.004066438 0.004375921 0.004882172 1000
lala 12 0.6 0 second 13 1 227 4 3.12 0.479997873306274 0 1 -1 0 0.005532918 0.005197373 0.005542106 0.005780159 0.005834271 1000 0.005532918 0.005197373 0.005542106 0.005780159 0.005834271 1000 0.00533822 0.005043581 0.004676632 0.005061083 0.005555318 1000 0.00533822 0.005043581 0.004676632 0.005061083 0.005555318 1000
lala 11 2.4 0 second 16 1 228 6 2.76 0.419997930526733 0 0 -1 0 0.003995882 0.004055141 0.004254711 0.004583833 0.004232762 1000 0.003995882 0.004055141 0.004254711 0.004583833 0.004232762 1000 0.001878489 0.002607263 0.002881691 0.002453513 0.002606892 1000 0.001878489 0.002607263 0.002881691 0.002453513 0.002606892 1000
lala 11 1.2 1 first 1 1 229 4 6.52 0.519997835159302 -1 1 1 1 -0.002337728 -0.002957534 -0.002492324 1000 1000 1000 -0.002337728 -0.002957534 -0.002492324 1000 1000 1000 -0.001220578 -0.000849554 -0.000510612 -0.0006227973 -0.001220885 1000 -0.001220578 -0.000849554 -0.000510612 -0.0006227973 -0.001220885 1000
lala 16 0.15 1 first 12 1 230 4 3.99 0.419997930526733 0 0 1 0 0.0005360778 0.0005942718 0.0007773635 1000 1000 1000 0.0005360778 0.0005942718 0.0007773635 1000 1000 1000 0.0003048802 0.0003344824 0.0008659019 0.001081955 0.001293337 1000 0.0003048802 0.0003344824 0.0008659019 0.001081955 0.001293337 1000
lala 11 0.6 0 first 8 1 231 5 4.5 0.379997968673706 1 0 -1 1 0.0003354301 0.0005553882 0.001067249 1000 1000 1000 0.0003354301 0.0005553882 0.001067249 1000 1000 1000 5.924566E-06 9.84369E-05 0.0002132112 8.27058E-05 -0.0005874002 1000 5.924566E-06 9.84369E-05 0.0002132112 8.27058E-05 -0.0005874002 1000
lala 15 0.15 0 first 17 1 232 6 4.680001 0.879997491836548 0 1 -1 1 -0.002212954 -0.002030336 -0.001773733 1000 1000 1000 -0.002212954 -0.002030336 -0.001773733 1000 1000 1000 -0.001151652 -0.001503406 -0.001070673 -0.001320911 -0.0008164271 1000 -0.001151652 -0.001503406 -0.001070673 -0.001320911 -0.0008164271 1000
lala 11 0.6 1 first 15 1 233 5 5.45 0.23999810218811 0 1 1 1 -0.0009706461 -0.001089912 -0.00111113 1000 1000 1000 -0.0009706461 -0.001089912 -0.00111113 1000 1000 1000 -0.0004217052 -0.0003014664 -0.0001734067 -0.0008143716 -0.001163143 1000 -0.0004217052 -0.0003014664 -0.0001734067 -0.0008143716 -0.001163143 1000
lala 14 1.2 1 first 10 1 234 6 6.18 0.659997701644897 1 0 1 0 -0.0003685909 0.0001469708 0.0003009206 1000 1000 1000 -0.0003685909 0.0001469708 0.0003009206 1000 1000 1000 0.001079841 0.001147875 0.001119159 0.0003659876 0.0004488993 1000 0.001079841 0.001147875 0.001119159 0.0003659876 0.0004488993 1000
lala 13 0.3 1 second 4 1 235 6 6.959999 0.339998006820679 -1 0 1 1 0.001235309 0.001121802 0.001242759 0.001332089 0.001388713 1000 0.001235309 0.001121802 0.001242759 0.001332089 0.001388713 1000 0.001556384 0.001690236 0.001256233 0.001573406 0.001493581 1000 0.001556384 0.001690236 0.001256233 0.001573406 0.001493581 1000
lala 11 0.6 1 second 6 1 236 4 4.44 0.499997854232788 1 0 1 0 0.004594097 0.003786376 0.00178222 0.001745987 0.002020181 1000 0.004594097 0.003786376 0.00178222 0.001745987 0.002020181 1000 0.0001824941 -0.0001127655 0.000180959 0.0004057876 -0.0004640995 1000 0.0001824941 -0.0001127655 0.000180959 0.0004057876 -0.0004640995 1000
lala 12 0.6 1 second 8 1 237 5 5.1 0.699997663497925 1 0 1 1 -0.0003265654 -0.0004586059 -0.001081999 -0.00150128 -0.001192044 1000 -0.0003265654 -0.0004586059 -0.001081999 -0.00150128 -0.001192044 1000 -0.001790344 -0.001757843 -0.001612275 -0.00153415 -0.00163254 1000 -0.001790344 -0.001757843 -0.001612275 -0.00153415 -0.00163254 1000
lala 16 0.075 0 first 17 1 238 6 4.755001 0.61999773979187 0 1 -1 1 -0.001812775 -0.001939145 -0.002133165 1000 1000 1000 -0.001812775 -0.001939145 -0.002133165 1000 1000 1000 -0.00273192 -0.002426651 -0.001914086 -0.001806422 -0.001546632 1000 -0.00273192 -0.002426651 -0.001914086 -0.001806422 -0.001546632 1000
lala 12 1.2 0 second 1 1 239 4 5.32 0.439997911453247 -1 1 -1 0 -0.002485716 -0.002305261 -0.00176267 -0.001627807 -0.001560885 1000 -0.002485716 -0.002305261 -0.00176267 -0.001627807 -0.001560885 1000 -0.001192981 -0.001850204 -0.001500265 -0.001082166 -0.001123154 1000 -0.001192981 -0.001850204 -0.001500265 -0.001082166 -0.001123154 1000
lala 12 0.3 1 first 6 1 240 4 4.14 0.639997720718384 1 0 1 1 -0.002561232 -0.002514519 -0.002143531 1000 1000 1000 -0.002561232 -0.002514519 -0.002143531 1000 1000 1000 -0.001522178 -0.001599617 -0.001711058 -0.001608584 -0.001746725 1000 -0.001522178 -0.001599617 -0.001711058 -0.001608584 -0.001746725 1000
lala 16 0.075 0 second 11 1 241 6 4.005002 0.499997854232788 1 1 -1 1 -0.004937723 -0.00411023 -0.00388136 -0.003602262 -0.003299285 1000 -0.004937723 -0.00411023 -0.00388136 -0.003602262 -0.003299285 1000 -0.003309712 -0.003254077 -0.002713529 -0.002690873 -0.002809421 1000 -0.003309712 -0.003254077 -0.002713529 -0.002690873 -0.002809421 1000
lala 13 0.3 1 first 6 1 242 4 3.84 0.639997720718384 1 0 1 1 -0.003568123 -0.002712555 -0.002489695 1000 1000 1000 -0.003568123 -0.002712555 -0.002489695 1000 1000 1000 -0.003247052 -0.002931365 -0.003127046 -0.003591339 -0.003270212 1000 -0.003247052 -0.002931365 -0.003127046 -0.003591339 -0.003270212 1000
lala 14 0.0375 0 first 7 1 243 4 3.3325 0.359997987747192 1 1 -1 0 -0.003363315 -0.003477243 -0.002704252 1000 1000 1000 -0.003363315 -0.003477243 -0.002704252 1000 1000 1000 -0.001491791 -0.001414917 -0.001229944 -0.00133177 -0.0022613 1000 -0.001491791 -0.001414917 -0.001229944 -0.00133177 -0.0022613 1000
lala 12 1.2 1 first 16 1 244 6 3.96 0.659997701644897 0 0 1 0 -0.002013279 -0.001555757 -0.001283861 1000 1000 1000 -0.002013279 -0.001555757 -0.001283861 1000 1000 1000 -0.001465043 -0.001643024 -0.002379779 -0.002611174 -0.001896459 1000 -0.001465043 -0.001643024 -0.002379779 -0.002611174 -0.001896459 1000
lala 15 0.0375 1 second 7 1 245 4 3.37 1.55999684333801 1 1 1 1 -0.003190561 -0.00291582 -0.002930854 -0.003708847 -0.003641824 1000 -0.003190561 -0.00291582 -0.002930854 -0.003708847 -0.003641824 1000 -0.00269268 -0.002703883 -0.002638799 -0.002607428 -0.003122938 1000 -0.00269268 -0.002703883 -0.002638799 -0.002607428 -0.003122938 1000
lala 13 0.3 0 first 8 1 246 5 4.8 0.39999794960022 1 0 -1 1 -0.003587435 -0.003339226 -0.00293394 1000 1000 1000 -0.003587435 -0.003339226 -0.00293394 1000 1000 1000 -0.002413336 -0.002394563 -0.002062097 -0.002700583 -0.00294089 1000 -0.002413336 -0.002394563 -0.002062097 -0.002700583 -0.00294089 1000
lala 15 0.6 0 first 14 1 247 5 5.400001 0.519997835159302 0 0 -1 0 -0.002923309 -0.002684345 -0.002169916 1000 1000 1000 -0.002923309 -0.002684345 -0.002169916 1000 1000 1000 -0.002471168 -0.002842285 -0.002687403 -0.002193271 -0.002073306 1000 -0.002471168 -0.002842285 -0.002687403 -0.002193271 -0.002073306 1000
lala 14 0.6 1 second 2 1 248 5 6.6 0.479997873306274 -1 0 1 1 -0.0007575971 -0.0005912367 -0.0005922771 -0.001000415 -0.00086798 1000 -0.0007575971 -0.0005912367 -0.0005922771 -0.001000415 -0.00086798 1000 -0.0008867636 -0.0009527969 -0.0007263566 -0.0009310258 -0.001800446 1000 -0.0008867636 -0.0009527969 -0.0007263566 -0.0009310258 -0.001800446 1000
lala 15 0.6 1 first 10 1 249 6 5.58 0.519997835159302 1 0 1 1 -0.001497631 -0.001172768 -0.001287252 1000 1000 1000 -0.001497631 -0.001172768 -0.001287252 1000 1000 1000 -0.000197113 -0.0001798678 0.0001826667 0.0003427125 0.0005526508 1000 -0.000197113 -0.0001798678 0.0001826667 0.0003427125 0.0005526508 1000
lala 14 0.15 0 second 8 1 250 5 4.95 0.419997930526733 1 0 -1 0 -0.02027114 -0.01996034 -0.01915814 -0.01944112 -0.02034953 1000 -0.02027114 -0.01996034 -0.01915814 -0.01944112 -0.02034953 1000 -0.02385557 -0.02421772 -0.02438278 -0.0240827 -0.02371391 1000 -0.02385557 -0.02421772 -0.02438278 -0.0240827 -0.02371391 1000
lala 14 0.3 1 first 6 1 251 4 3.54 0.979997396469116 1 0 1 1 -0.02043421 -0.01509579 -0.006980144 1000 1000 1000 -0.02043421 -0.01509579 -0.006980144 1000 1000 1000 0.0009298042 0.0009830816 0.001059985 0.0007313773 -0.0001231081 1000 0.0009298042 0.0009830816 0.001059985 0.0007313773 -0.0001231081 1000
lala 16 0.6 0 second 10 1 252 6 4.98 1.0999972820282 1 0 -1 0 -0.003958347 -0.004629631 -0.00510236 -0.004873633 -0.004544242 1000 -0.003958347 -0.004629631 -0.00510236 -0.004873633 -0.004544242 1000 -0.00627463 -0.005735984 -0.00523058 -0.005847116 -0.005927761 1000 -0.00627463 -0.005735984 -0.00523058 -0.005847116 -0.005927761 1000
lala 13 0.6 0 second 16 1 253 6 3.36 0.519997835159302 0 0 -1 1 -0.005396299 -0.004837707 -0.004696536 -0.004724531 -0.004921393 1000 -0.005396299 -0.004837707 -0.004696536 -0.004724531 -0.004921393 1000 -0.00434801 -0.004529563 -0.004066586 -0.003501612 -0.003734784 1000 -0.00434801 -0.004529563 -0.004066586 -0.003501612 -0.003734784 1000
lala 15 0.6 0 first 6 1 254 4 2.94 0.319998025894165 1 0 -1 0 -0.005149481 -0.004656604 -0.00432123 1000 1000 1000 -0.005149481 -0.004656604 -0.00432123 1000 1000 1000 -0.002428341 -0.002113361 -0.001771701 -0.002110484 -0.002331977 1000 -0.002428341 -0.002113361 -0.001771701 -0.002110484 -0.002331977 1000
lala 17 0.075 1 first 17 1 255 6 4.830001 0.519997835159302 0 1 1 0 -0.001055047 -0.001062979 -0.0009027638 1000 1000 1000 -0.001055047 -0.001062979 -0.0009027638 1000 1000 1000 -0.0005721642 -0.0008689134 -0.0006335109 -0.0003800504 -0.0002525111 1000 -0.0005721642 -0.0008689134 -0.0006335109 -0.0003800504 -0.0002525111 1000
lala 15 0.15 1 first 8 1 256 5 5.1 0.379997968673706 1 0 1 0 -0.001029574 -0.000647483 -0.0007171308 1000 1000 1000 -0.001029574 -0.000647483 -0.0007171308 1000 1000 1000 -0.002596534 -0.002349671 -0.002053777 -0.002599875 -0.003270139 1000 -0.002596534 -0.002349671 -0.002053777 -0.002599875 -0.003270139 1000
lala 15 0.6 1 second 3 1 257 5 6.05 0.899997472763062 -1 1 1 0 -0.005049705 -0.004680697 -0.004451879 -0.004177637 -0.004451999 1000 -0.005049705 -0.004680697 -0.004451879 -0.004177637 -0.004451999 1000 -0.005190968 -0.005511928 -0.004923177 -0.004115316 -0.003859184 1000 -0.005190968 -0.005511928 -0.004923177 -0.004115316 -0.003859184 1000
lala 17 0.0375 0 second 11 1 258 6 4.042501 0.419997930526733 1 1 -1 1 -0.004846706 -0.00460952 -0.003961355 -0.004513199 -0.004995017 1000 -0.004846706 -0.00460952 -0.003961355 -0.004513199 -0.004995017 1000 -0.004028117 -0.004084007 -0.00395167 -0.003637995 -0.004469361 1000 -0.004028117 -0.004084007 -0.00395167 -0.003637995 -0.004469361 1000
lala 16 0.01875 1 second 7 1 259 4 3.35125 0.959997415542603 1 1 1 1 -0.003715619 -0.003674859 -0.004261101 -0.004021486 -0.003618601 1000 -0.003715619 -0.003674859 -0.004261101 -0.004021486 -0.003618601 1000 -0.003316163 -0.002935027 -0.003123669 -0.003837342 -0.003709495 1000 -0.003316163 -0.002935027 -0.003123669 -0.003837342 -0.003709495 1000
lala 14 0.3 0 first 16 1 260 6 3.66 0.61999773979187 0 0 -1 0 -0.0030733 -0.003386809 -0.003637546 1000 1000 1000 -0.0030733 -0.003386809 -0.003637546 1000 1000 1000 -0.00271061 -0.00233208 -0.002937882 -0.002964078 -0.002476681 1000 -0.00271061 -0.00233208 -0.002937882 -0.002964078 -0.002476681 1000
lala 15 0.3 1 second 5 1 261 6 6.480001 0.839997529983521 -1 1 1 0 -0.003061128 -0.002715331 -0.002868279 -0.003659446 -0.003407072 1000 -0.003061128 -0.002715331 -0.002868279 -0.003659446 -0.003407072 1000 -0.002776852 -0.002724805 -0.002665437 -0.002520612 -0.00274346 1000 -0.002776852 -0.002724805 -0.002665437 -0.002520612 -0.00274346 1000
lala 13 0.6 1 second 1 1 262 4 5.92 0.39999794960022 -1 1 1 0 -0.002497972 -0.002385856 -0.001974462 -0.002017899 -0.002599444 1000 -0.002497972 -0.002385856 -0.001974462 -0.002017899 -0.002599444 1000 -0.002173606 -0.002045001 -0.001875197 -0.001705158 -0.001847484 1000 -0.002173606 -0.002045001 -0.001875197 -0.001705158 -0.001847484 1000
lala 15 0.3 0 second 16 1 263 6 3.96 0.759997606277466 0 0 -1 0 -0.001062656 -0.002099132 -0.001905597 -0.001623316 -0.001603278 1000 -0.001062656 -0.002099132 -0.001905597 -0.001623316 -0.001603278 1000 -0.001695319 -0.002227945 -0.002091803 -0.001738705 -0.001110537 1000 -0.001695319 -0.002227945 -0.002091803 -0.001738705 -0.001110537 1000
lala 15 0.3 0 second 2 1 264 5 6.3 1.3999969959259 -1 0 -1 0 -0.001645762 -0.002315721 -0.002363179 -0.001970832 -0.002014201 1000 -0.001645762 -0.002315721 -0.002363179 -0.001970832 -0.002014201 1000 -0.001946421 -0.002297595 -0.002992816 -0.003266476 -0.002863499 1000 -0.001946421 -0.002297595 -0.002992816 -0.003266476 -0.002863499 1000
lala 14 0.3 1 second 4 1 265 6 6.659999 0.439997911453247 -1 0 1 0 -0.001386408 -0.001357752 -0.001738824 -0.001844764 -0.002037239 1000 -0.001386408 -0.001357752 -0.001738824 -0.001844764 -0.002037239 1000 -0.003638507 -0.003120535 -0.003666066 -0.004031953 -0.003760257 1000 -0.003638507 -0.003120535 -0.003666066 -0.004031953 -0.003760257 1000
lala 17 0.15 1 second 9 1 266 5 4.550001 0.479997873306274 1 1 1 1 -0.003107669 -0.002572065 -0.002340595 -0.001773704 -0.001530922 1000 -0.003107669 -0.002572065 -0.002340595 -0.001773704 -0.001530922 1000 -0.001528747 -0.001296289 -0.001072667 -0.0008940074 -0.0008253722 1000 -0.001528747 -0.001296289 -0.001072667 -0.0008940074 -0.0008253722 1000
lala 18 0.0375 1 first 17 1 267 6 4.792501 0.659997701644897 0 1 1 0 -0.003139976 -0.002619993 -0.002147591 1000 1000 1000 -0.003139976 -0.002619993 -0.002147591 1000 1000 1000 -0.0009638154 -0.0008393454 -0.0006977156 -0.0001352708 0.0004980206 1000 -0.0009638154 -0.0008393454 -0.0006977156 -0.0001352708 0.0004980206 1000
lala 16 0.6 0 second 3 1 268 5 5.45 0.599997758865356 -1 1 -1 1 -0.002018524 -0.002073991 -0.002954392 -0.00304639 -0.002419964 1000 -0.002018524 -0.002073991 -0.002954392 -0.00304639 -0.002419964 1000 -0.002558265 -0.002408007 -0.002212483 -0.002712254 -0.002832419 1000 -0.002558265 -0.002408007 -0.002212483 -0.002712254 -0.002832419 1000
lala 15 0.6 0 first 4 1 269 6 6.059999 0.679997682571411 -1 0 -1 0 -0.0026412 -0.004502166 -0.004082599 1000 1000 1000 -0.0026412 -0.004502166 -0.004082599 1000 1000 1000 -0.005007169 -0.004611118 -0.004553941 -0.004275112 -0.005056967 1000 -0.005007169 -0.004611118 -0.004553941 -0.004275112 -0.005056967 1000
lala 16 1.2 1 first 14 1 270 5 6.6 0.939997434616089 0 0 1 0 -0.004147131 -0.004278461 -0.004710288 1000 1000 1000 -0.004147131 -0.004278461 -0.004710288 1000 1000 1000 -0.003774863 -0.003257788 -0.002781278 -0.002197891 -0.001977363 1000 -0.003774863 -0.003257788 -0.002781278 -0.002197891 -0.001977363 1000
lala 17 0.6 1 first 14 1 271 5 6 0.319998025894165 0 0 1 1 -0.003883327 -0.004611642 -0.004617002 1000 1000 1000 -0.003883327 -0.004611642 -0.004617002 1000 1000 1000 -0.003435666 -0.002852011 -0.002634825 -0.002484637 -0.002499939 1000 -0.003435666 -0.002852011 -0.002634825 -0.002484637 -0.002499939 1000
lala 16 0.3 0 second 6 1 272 4 3.24 1.25999712944031 1 0 -1 1 -0.004305917 -0.003995972 -0.004720321 -0.005168939 -0.005023486 1000 -0.004305917 -0.003995972 -0.004720321 -0.005168939 -0.005023486 1000 -0.004645676 -0.004532021 -0.00444363 -0.004818018 -0.005188559 1000 -0.004645676 -0.004532021 -0.00444363 -0.004818018 -0.005188559 1000
lala 16 0.15 1 first 5 1 273 6 6.330001 0.799997568130493 -1 1 1 1 -0.005129361 -0.004797886 -0.005193788 1000 1000 1000 -0.005129361 -0.004797886 -0.005193788 1000 1000 1000 -0.005798106 -0.005012994 -0.004860118 -0.00470246 -0.004430041 1000 -0.005798106 -0.005012994 -0.004860118 -0.00470246 -0.004430041 1000
lala 18 0.0375 0 second 11 1 274 6 4.080001 0.559997797012329 1 1 -1 0 -0.001316721 -0.0008699883 0.0007556066 0.001668741 0.001649086 1000 -0.001316721 -0.0008699883 0.0007556066 0.001668741 0.001649086 1000 -0.003465188 -0.003766885 -0.00375101 -0.002865593 -0.003322961 1000 -0.003465188 -0.003766885 -0.00375101 -0.002865593 -0.003322961 1000
lala 18 0.075 0 second 9 1 275 5 4.475001 0.559997797012329 1 1 -1 1 0.0004123682 0.0003101132 0.000391842 0.0002164344 -0.0005367404 1000 0.0004123682 0.0003101132 0.000391842 0.0002164344 -0.0005367404 1000 0.0003756476 0.0002219344 0.0007038923 0.001144019 0.001228194 1000 0.0003756476 0.0002219344 0.0007038923 0.001144019 0.001228194 1000
lala 17 0.15 1 second 5 1 276 6 6.180001 0.379997968673706 -1 1 1 1 -0.0004073591 -0.0001123974 1.97913E-05 0.0003542303 0.00072362 1000 -0.0004073591 -0.0001123974 1.97913E-05 0.0003542303 0.00072362 1000 0.0005857885 0.0003409181 0.0007476564 0.001017713 0.001271698 1000 0.0005857885 0.0003409181 0.0007476564 0.001017713 0.001271698 1000
lala 18 0.6 1 first 14 1 277 5 5.400001 0.319998025894165 0 0 1 1 0.0003193349 -0.000372234 -8.333277E-05 1000 1000 1000 0.0003193349 -0.000372234 -8.333277E-05 1000 1000 1000 -0.000133998 -0.000169901 -0.0002282359 -0.0004906028 -0.0004847949 1000 -0.000133998 -0.000169901 -0.0002282359 -0.0004906028 -0.0004847949 1000
lala 19 0.6 1 second 14 1 278 5 4.800001 0.359997987747192 0 0 1 0 0.001344336 0.001496407 0.001293124 0.0010266 0.001354159 1000 0.001344336 0.001496407 0.001293124 0.0010266 0.001354159 1000 0.003824819 0.004595744 0.004549427 0.003898091 0.004091923 1000 0.003824819 0.004595744 0.004549427 0.003898091 0.004091923 1000
lala 17 0.3 1 second 3 1 279 5 5.75 0.519997835159302 -1 1 1 0 0.003881254 0.004504367 0.004814184 0.004518746 0.004606184 1000 0.003881254 0.004504367 0.004814184 0.004518746 0.004606184 1000 0.003401014 0.003447515 0.004029979 0.003984556 0.004086702 1000 0.003401014 0.003447515 0.004029979 0.003984556 0.004086702 1000
lala 19 0.0375 0 second 17 1 280 6 4.755001 0.479997873306274 0 1 -1 0 0.004441623 0.004624782 0.004349392 0.004283786 0.004569015 1000 0.004441623 0.004624782 0.004349392 0.004283786 0.004569015 1000 0.00461389 0.004849392 0.004987369 0.004746264 0.004695745 1000 0.00461389 0.004849392 0.004987369 0.004746264 0.004695745 1000
lala 17 0.15 0 first 12 1 281 4 3.84 0.419997930526733 0 0 -1 1 0.001662437 0.001918593 0.001875392 1000 1000 1000 0.001662437 0.001918593 0.001875392 1000 1000 1000 0.002354154 0.002783857 0.002833749 0.002804574 0.003009203 1000 0.002354154 0.002783857 0.002833749 0.002804574 0.003009203 1000
lala 20 1.2 1 second 14 1 282 5 3.600001 0.339998006820679 0 0 1 1 0.004076024 0.004125262 0.003743422 0.003603945 0.003766614 1000 0.004076024 0.004125262 0.003743422 0.003603945 0.003766614 1000 0.003666972 0.004323272 0.004124007 0.003617109 0.003873162 1000 0.003666972 0.004323272 0.004124007 0.003617109 0.003873162 1000
lala 13 1.2 0 first 0 1 283 4 4.92 0.379997968673706 -1 0 -1 0 0.004503591 0.004967114 0.005085825 1000 1000 1000 0.004503591 0.004967114 0.005085825 1000 1000 1000 0.005822508 0.005458088 0.005076481 0.005227432 0.005411497 1000 0.005822508 0.005458088 0.005076481 0.005227432 0.005411497 1000
lala 17 0.3 1 first 10 1 284 6 5.280001 1.01999735832214 1 0 1 1 0.005107186 0.004865887 0.003728106 1000 1000 1000 0.005107186 0.004865887 0.003728106 1000 1000 1000 0.004136114 0.00491878 0.005573356 0.006163943 0.006303912 1000 0.004136114 0.00491878 0.005573356 0.006163943 0.006303912 1000
lala 16 0.3 0 first 4 1 285 6 6.359999 0.499997854232788 -1 0 -1 0 0.00522849 0.004591422 0.00461095 1000 1000 1000 0.00522849 0.004591422 0.00461095 1000 1000 1000 0.005003566 0.005422198 0.005551321 0.005647123 0.004945327 1000 0.005003566 0.005422198 0.005551321 0.005647123 0.004945327 1000
lala 18 0.15 1 second 5 1 286 6 6.030001 0.759997606277466 -1 1 1 1 0.001964499 0.001918247 0.002460745 0.002732431 0.003418892 1000 0.001964499 0.001918247 0.002460745 0.002732431 0.003418892 1000 0.001853504 0.001892647 0.002058703 0.002300973 0.002313184 1000 0.001853504 0.001892647 0.002058703 0.002300973 0.002313184 1000
lala 17 0.01875 1 first 7 1 287 4 3.3325 1.3999969959259 1 1 1 1 0.002054023 0.002024271 0.001771209 1000 1000 1000 0.002054023 0.002024271 0.001771209 1000 1000 1000 0.002679956 0.002030148 0.002127039 0.002311485 0.002050026 1000 0.002679956 0.002030148 0.002127039 0.002311485 0.002050026 1000
lala 18 0.15 1 second 3 1 288 5 5.6 2.21999645233154 -1 1 1 1 0.001750829 0.001560463 0.001937697 0.002073293 0.002199494 1000 0.001750829 0.001560463 0.001937697 0.002073293 0.002199494 1000 0.002089481 0.001690958 0.001960965 0.002351555 0.00227836 1000 0.002089481 0.001690958 0.001960965 0.002351555 0.00227836 1000
lala 18 0.15 0 second 10 1 289 6 5.130001 0.779997587203979 1 0 -1 1 0.002714192 0.002809267 0.002991209 0.00326929 0.002752406 1000 0.002714192 0.002809267 0.002991209 0.00326929 0.002752406 1000 0.002360532 0.002612241 0.002617207 0.002578984 0.002971165 1000 0.002360532 0.002612241 0.002617207 0.002578984 0.002971165 1000
lala 16 0.075 1 first 8 1 290 5 5.025 0.739997625350952 1 0 1 0 0.001918266 0.002276256 0.002035043 1000 1000 1000 0.001918266 0.002276256 0.002035043 1000 1000 1000 0.003465568 0.003259389 0.002766379 0.003588009 0.003961588 1000 0.003465568 0.003259389 0.002766379 0.003588009 0.003961588 1000
lala 17 0.075 1 first 8 1 291 5 4.95 1.7199969291687 1 0 1 0 0.003279172 0.003631955 0.003689918 1000 1000 1000 0.003279172 0.003631955 0.003689918 1000 1000 1000 0.004316156 0.004291781 0.004171529 0.003535042 0.003689496 1000 0.004316156 0.004291781 0.004171529 0.003535042 0.003689496 1000
lala 16 0.3 1 second 16 1 292 6 4.26 2.01999664306641 0 0 1 1 0.003511821 0.003582382 0.003836211 0.003593042 0.003309143 1000 0.003511821 0.003582382 0.003836211 0.003593042 0.003309143 1000 -0.006027484 -0.008757726 -0.009689464 -0.01039619 -0.01174979 1000 -0.006027484 -0.008757726 -0.009689464 -0.01039619 -0.01174979 1000
lala 19 0.075 1 second 10 1 293 6 5.205 0.499997854232788 1 0 1 1 -0.01205697 -0.01141789 -0.01127684 -0.01169977 -0.01158542 1000 -0.01205697 -0.01141789 -0.01127684 -0.01169977 -0.01158542 1000 -0.01208196 -0.01182204 -0.01159464 -0.01227559 -0.01221973 1000 -0.01208196 -0.01182204 -0.01159464 -0.01227559 -0.01221973 1000
lala 20 0.0375 1 second 10 1 294 6 5.1675 0.419997930526733 1 0 1 0 -0.01316209 -0.01281397 -0.0124389 -0.0122081 -0.0121073 1000 -0.01316209 -0.01281397 -0.0124389 -0.0122081 -0.0121073 1000 -0.01128671 -0.0110137 -0.01064629 -0.01058474 -0.01021288 1000 -0.01128671 -0.0110137 -0.01064629 -0.01058474 -0.01021288 1000
lala 13 1.2 1 second 13 1 295 4 4.32 1.07999730110168 0 1 1 0 -0.01093173 -0.01091762 -0.01164388 -0.01172171 -0.01142535 1000 -0.01093173 -0.01091762 -0.01164388 -0.01172171 -0.01142535 1000 -0.01093853 -0.01087825 -0.01139544 -0.01158211 -0.0110889 1000 -0.01093853 -0.01087825 -0.01139544 -0.01158211 -0.0110889 1000
lala 17 0.3 0 second 6 1 296 4 3.54 0.759997606277466 1 0 -1 0 -0.0109083 -0.01005759 -0.009654458 -0.009588103 -0.009425931 1000 -0.0109083 -0.01005759 -0.009654458 -0.009588103 -0.009425931 1000 -0.008680454 -0.008208062 -0.007563768 -0.007276553 -0.007270902 1000 -0.008680454 -0.008208062 -0.007563768 -0.007276553 -0.007270902 1000
lala 12 0.3 0 second 15 1 297 5 5.15 1.01999735832214 0 1 -1 1 -0.01008279 -0.009551186 -0.0086469 -0.008863566 -0.008623421 1000 -0.01008279 -0.009551186 -0.0086469 -0.008863566 -0.008623421 1000 -0.009177967 -0.009036078 -0.0085702 -0.008264498 -0.008101535 1000 -0.009177967 -0.009036078 -0.0085702 -0.008264498 -0.008101535 1000
lala 19 0.0375 0 second 9 1 298 5 4.512501 0.739997625350952 1 1 -1 0 -0.005194989 -0.005325867 -0.005902204 -0.006047644 -0.005743858 1000 -0.005194989 -0.005325867 -0.005902204 -0.006047644 -0.005743858 1000 -0.005103476 -0.004792005 -0.005140064 -0.005559296 -0.005302953 1000 -0.005103476 -0.004792005 -0.005140064 -0.005559296 -0.005302953 1000
lala 19 0.0375 1 first 11 1 299 6 4.117501 0.739997625350952 1 1 1 1 -0.0061625 -0.005698736 -0.004980493 1000 1000 1000 -0.0061625 -0.005698736 -0.004980493 1000 1000 1000 -0.005121551 -0.004870324 -0.00463465 -0.005371221 -0.005924419 1000 -0.005121551 -0.004870324 -0.00463465 -0.005371221 -0.005924419 1000
lala 14 0.6 1 first 13 1 300 4 3.72 1.73999691009521 0 1 1 1 -0.01960445 -0.01853007 -0.02212027 -0.02186177 -0.02123119 -0.02167427 -0.01960445 -0.01853007 -0.02212027 -0.02186177 -0.02123119 -0.02167427 -0.01416474 -0.01435002 -0.01459849 -0.01409661 -0.01379012 1000 -0.01416474 -0.01435002 -0.01459849 -0.01409661 -0.01379012 1000
lala 21 2.4 0 first 14 1 301 5 1.65 0.559997797012329 0 0 -1 1 -0.01413209 -0.01457862 -0.01483082 1000 1000 1000 -0.01413209 -0.01457862 -0.01483082 1000 1000 1000 -0.01539369 -0.01438971 -0.01434085 -0.0147746 -0.0145272 1000 -0.01539369 -0.01438971 -0.01434085 -0.0147746 -0.0145272 1000
lala 16 0.15 0 first 2 1 302 5 6.45 0.61999773979187 -1 0 -1 0 -0.01575755 -0.01477807 -0.01498043 1000 1000 1000 -0.01575755 -0.01477807 -0.01498043 1000 1000 1000 -0.01532056 -0.0152557 -0.01497939 -0.01497306 -0.0147251 1000 -0.01532056 -0.0152557 -0.01497939 -0.01497306 -0.0147251 1000
lala 19 0.15 0 first 3 1 303 5 5.45 0.599997758865356 -1 1 -1 0 -0.01528588 -0.01498377 -0.01501507 1000 1000 1000 -0.01528588 -0.01498377 -0.01501507 1000 1000 1000 -0.01324027 -0.01275176 -0.01200417 -0.01249849 -0.01286252 1000 -0.01324027 -0.01275176 -0.01200417 -0.01249849 -0.01286252 1000
lala 20 0.0375 1 first 9 1 304 5 4.550001 1.77999687194824 1 1 1 1 -0.01288568 -0.01281951 -0.01355063 1000 1000 1000 -0.01288568 -0.01281951 -0.01355063 1000 1000 1000 -0.01110189 -0.01083081 -0.01050424 -0.01037513 -0.010008 1000 -0.01110189 -0.01083081 -0.01050424 -0.01037513 -0.010008 1000
lala 14 0.3 1 first 1 1 305 4 5.619999 0.539997816085815 -1 1 1 0 -0.00830257 -0.008177242 -0.007760053 1000 1000 1000 -0.00830257 -0.008177242 -0.007760053 1000 1000 1000 -0.006593034 -0.006608726 -0.006955389 -0.007318158 -0.006836595 1000 -0.006593034 -0.006608726 -0.006955389 -0.007318158 -0.006836595 1000
lala 14 2.4 0 second 0 1 306 4 7.32 0.859997510910034 -1 0 -1 1 -0.00807988 -0.008417395 -0.008773535 -0.008010063 -0.007582378 1000 -0.00807988 -0.008417395 -0.008773535 -0.008010063 -0.007582378 1000 -0.006994177 -0.006905925 -0.006648121 -0.006915777 -0.007006118 1000 -0.006994177 -0.006905925 -0.006648121 -0.006915777 -0.007006118 1000
lala 18 0.075 0 second 12 1 307 4 3.915 1.91999673843384 0 0 -1 0 -0.004875221 -0.004557332 -0.004007534 -0.004279358 -0.005027098 1000 -0.004875221 -0.004557332 -0.004007534 -0.004279358 -0.005027098 1000 -0.00602026 -0.006575451 -0.006304713 -0.006148037 -0.006629043 1000 -0.00602026 -0.006575451 -0.006304713 -0.006148037 -0.006629043 1000
lala 19 0.3 0 first 5 1 308 6 5.73 0.459997892379761 -1 1 -1 1 -0.00713333 -0.006545499 -0.006380361 1000 1000 1000 -0.00713333 -0.006545499 -0.006380361 1000 1000 1000 -0.006262996 -0.005645404 -0.005156233 -0.005671141 -0.00640521 1000 -0.006262996 -0.005645404 -0.005156233 -0.005671141 -0.00640521 1000
lala 22 1.2 1 first 14 1 309 5 2.85 0.339998006820679 0 0 1 0 -0.009615035 -0.0106726 -0.01131965 1000 1000 1000 -0.009615035 -0.0106726 -0.01131965 1000 1000 1000 -0.0008187414 -0.0003218549 -0.001010362 -0.0008767224 -0.0008274672 1000 -0.0008187414 -0.0003218549 -0.001010362 -0.0008767224 -0.0008274672 1000
lala 17 0.15 1 second 2 1 310 5 6.6 0.639997720718384 -1 0 1 0 -0.002517998 -0.001833134 -0.00157758 -0.001680024 -0.001671248 1000 -0.002517998 -0.001833134 -0.00157758 -0.001680024 -0.001671248 1000 -0.0006749148 -0.00014081 0.0003550604 0.0007070584 0.0009791984 1000 -0.0006749148 -0.00014081 0.0003550604 0.0007070584 0.0009791984 1000
lala 19 0.075 0 second 12 1 311 4 3.99 1.31999707221985 0 0 -1 1 0.002333018 0.002141407 0.00264196 0.002797451 0.002668679 1000 0.002333018 0.002141407 0.00264196 0.002797451 0.002668679 1000 0.005640715 0.00495009 0.004531003 0.004698614 0.004731792 1000 0.005640715 0.00495009 0.004531003 0.004698614 0.004731792 1000
lala 20 0.075 1 second 12 1 312 4 4.065 2.57999610900879 0 0 1 1 0.002457218 0.002494727 0.002736131 0.002343957 0.002386427 1000 0.002457218 0.002494727 0.002736131 0.002343957 0.002386427 1000 0.00254668 0.002598791 0.002753079 0.002712325 0.002273594 1000 0.00254668 0.002598791 0.002753079 0.002712325 0.002273594 1000
lala 20 0.01875 1 first 11 1 313 6 4.098751 0.319998025894165 1 1 1 1 0.004842169 0.004603907 0.004555088 1000 1000 1000 0.004842169 0.004603907 0.004555088 1000 1000 1000 0.003943612 0.004147877 0.003640854 0.003802568 0.004299132 1000 0.003943612 0.004147877 0.003640854 0.003802568 0.004299132 1000
lala 21 0.01875 1 second 9 1 314 5 4.53125 0.359997987747192 1 1 1 1 0.00375955 0.003785438 0.003410842 0.00213413 0.002548852 1000 0.00375955 0.003785438 0.003410842 0.00213413 0.002548852 1000 0.00138635 0.00172423 0.0009413943 0.001091883 0.001397276 1000 0.00138635 0.00172423 0.0009413943 0.001091883 0.001397276 1000
lala 21 0.0375 1 second 12 1 315 4 4.0275 0.439997911453247 0 0 1 0 0.001731136 0.00148297 0.001962116 0.001889801 0.001627291 1000 0.001731136 0.00148297 0.001962116 0.001889801 0.001627291 1000 0.00204802 0.002513034 0.002831589 0.003628687 0.003317182 1000 0.00204802 0.002513034 0.002831589 0.003628687 0.003317182 1000
lala 23 0.6 0 first 14 1 316 5 2.25 0.639997720718384 0 0 -1 1 0.003067529 0.002933418 0.003832348 1000 1000 1000 0.003067529 0.002933418 0.003832348 1000 1000 1000 0.001297711 0.001512853 0.001629828 0.001828906 0.002175316 1000 0.001297711 0.001512853 0.001629828 0.001828906 0.002175316 1000
lala 18 0.075 0 first 8 1 317 5 4.875 1.15999722480774 1 0 -1 1 0.0009063844 0.0008562814 0.001373813 1000 1000 1000 0.0009063844 0.0008562814 0.001373813 1000 1000 1000 0.0007995629 0.001324141 0.001559658 0.001357728 0.001315138 1000 0.0007995629 0.001324141 0.001559658 0.001357728 0.001315138 1000
lala 15 0.3 0 first 1 1 318 4 5.319999 1.89999675750732 -1 1 -1 0 0.0008661743 0.0002899989 -2.091512E-05 1000 1000 1000 0.0008661743 0.0002899989 -2.091512E-05 1000 1000 1000 0.0006883214 0.0007868063 0.0004034856 0.0002560971 0.0001540757 1000 0.0006883214 0.0007868063 0.0004034856 0.0002560971 0.0001540757 1000
lala 15 0.6 1 second 13 1 319 4 3.12 0.779997587203979 0 1 1 1 0.001516249 0.001980575 0.002302609 0.002986132 0.002410527 1000 0.001516249 0.001980575 0.002302609 0.002986132 0.002410527 1000 0.001810083 0.001865061 0.002461075 0.002947678 0.002691227 1000 0.001810083 0.001865061 0.002461075 0.002947678 0.002691227 1000
lala 13 0.15 1 second 15 1 320 5 5.3 0.319998025894165 0 1 1 1 0.001950204 0.002166324 0.002237873 0.002168516 0.002376826 1000 0.001950204 0.002166324 0.002237873 0.002168516 0.002376826 1000 0.003529738 0.003305381 0.003584424 0.003963409 0.0038949 1000 0.003529738 0.003305381 0.003584424 0.003963409 0.0038949 1000
