subject PestNr Step_Size_OnTrial Pest_Faster Pest_Interval Condition block trial velH velH_Pest Reaction_Time velH_Subject Start_Above Response_MotionEstimation RightOrLeftxRotations_first0 xRotations_first1 xRotations_first2 xRotations_first3 xRotations_first4 xRotations_first5 yRotations_first0 yRotations_first1 yRotations_first2 yRotations_first3 yRotations_first4 yRotations_first5 xRotations_second0 xRotations_second1 xRotations_second2 xRotations_second3 xRotations_second4 xRotations_second5 yRotations_second0 yRotations_second1 yRotations_second2 yRotations_second3 yRotations_second4 yRotations_second5
lala 1 1.2 1 first 3 1 1 5 6.65 0.439997911453247 -1 1 1 1 -0.002140605 0.008158777 0.006945048 0.004947721 0.0048849 0.003023789 -0.002140605 0.008158777 0.006945048 0.004947721 0.0048849 0.003023789 0.001834063 0.003983695 0.004325608 0.003791916 0.004224995 1000 0.001834063 0.003983695 0.004325608 0.003791916 0.004224995 1000
lala 1 1.2 1 first 9 1 2 5 6.65 0.579997777938843 1 1 1 0 7.495548E-06 0.0005643985 0.0005614814 1000 1000 1000 7.495548E-06 0.0005643985 0.0005614814 1000 1000 1000 0.0005297129 0.0003915989 0.0002605086 0.0005154609 0.0008756913 1000 0.0005297129 0.0003915989 0.0002605086 0.0005154609 0.0008756913 1000
lala 1 1.2 0 second 16 1 3 6 3.96 0.819997549057007 0 0 -1 0 8.979967E-05 0.000564122 0.000575364 0.0009390903 0.001574781 1000 8.979967E-05 0.000564122 0.000575364 0.0009390903 0.001574781 1000 0.002113863 0.001613278 0.001925505 0.00192044 0.002180648 1000 0.002113863 0.001613278 0.001925505 0.00192044 0.002180648 1000
lala 1 1.2 1 first 10 1 4 6 3.96 0.61999773979187 1 0 1 0 0.001764352 0.001448775 0.001880749 1000 1000 1000 0.001764352 0.001448775 0.001880749 1000 1000 1000 0.001985152 0.001689377 0.002074405 0.002090607 0.001666892 1000 0.001985152 0.001689377 0.002074405 0.002090607 0.001666892 1000
lala 2 1.2 1 first 16 1 5 6 5.16 1.05999732017517 0 0 1 1 0.00247301 0.002990837 0.003041441 1000 1000 1000 0.00247301 0.002990837 0.003041441 1000 1000 1000 0.002410213 0.003232207 0.003279016 0.003325673 0.003077348 1000 0.002410213 0.003232207 0.003279016 0.003325673 0.003077348 1000
lala 1 1.2 1 second 13 1 6 4 5.32 0.519997835159302 0 1 1 1 0.004841508 0.005504998 0.006461493 0.006336143 0.006188962 1000 0.004841508 0.005504998 0.006461493 0.006336143 0.006188962 1000 0.005310136 0.005348496 0.005666845 0.005352968 0.005137413 1000 0.005310136 0.005348496 0.005666845 0.005352968 0.005137413 1000
lala 1 1.2 1 first 17 1 7 6 7.98 0.379997968673706 0 1 1 1 0.005128692 0.005290831 0.00586437 1000 1000 1000 0.005128692 0.005290831 0.00586437 1000 1000 1000 0.00830597 0.008024142 0.007685313 0.007695362 0.00715818 1000 0.00830597 0.008024142 0.007685313 0.007695362 0.00715818 1000
lala 1 1.2 0 first 6 1 8 4 2.64 0.539997816085815 1 0 -1 1 0.005953333 0.006122903 0.006570318 1000 1000 1000 0.005953333 0.006122903 0.006570318 1000 1000 1000 0.008670314 0.008629374 0.008711851 0.008990061 0.009042526 1000 0.008670314 0.008629374 0.008711851 0.008990061 0.009042526 1000
lala 1 1.2 0 first 1 1 9 4 5.32 1.0999972820282 -1 1 -1 0 0.008938756 0.008865084 0.008642325 1000 1000 1000 0.008938756 0.008865084 0.008642325 1000 1000 1000 0.00981972 0.00991394 0.009977441 0.01044677 0.01075172 1000 0.00981972 0.00991394 0.009977441 0.01044677 0.01075172 1000
lala 1 1.2 1 first 7 1 10 4 5.32 0.339998006820679 1 1 1 1 0.01061211 0.01044167 0.01024504 1000 1000 1000 0.01061211 0.01044167 0.01024504 1000 1000 1000 0.01044485 0.01097934 0.01138891 0.01147546 0.01177723 1000 0.01044485 0.01097934 0.01138891 0.01147546 0.01177723 1000
lala 1 1.2 0 first 8 1 11 5 3.3 0.659997701644897 1 0 -1 0 0.01278751 0.01257628 0.01236845 1000 1000 1000 0.01278751 0.01257628 0.01236845 1000 1000 1000 0.01374229 0.01370297 0.01381704 0.01398755 0.01407028 1000 0.01374229 0.01370297 0.01381704 0.01398755 0.01407028 1000
lala 1 1.2 0 first 4 1 12 6 3.96 0.739997625350952 -1 0 -1 0 0.01510981 0.01544231 0.01581613 1000 1000 1000 0.01510981 0.01544231 0.01581613 1000 1000 1000 0.01635321 0.01604513 0.01584333 0.01548742 0.01506659 1000 0.01635321 0.01604513 0.01584333 0.01548742 0.01506659 1000
lala 2 1.2 0 first 4 1 13 6 5.16 1.01999735832214 -1 0 -1 0 0.0170596 0.01706575 0.01728969 1000 1000 1000 0.0170596 0.01706575 0.01728969 1000 1000 1000 0.01885067 0.01922233 0.0195969 0.01923482 0.01931732 1000 0.01885067 0.01922233 0.0195969 0.01923482 0.01931732 1000
lala 3 1.2 0 second 16 1 14 6 3.96 0.899997472763062 0 0 -1 0 0.0219837 0.02154961 0.02171888 0.02166766 0.02168849 1000 0.0219837 0.02154961 0.02171888 0.02166766 0.02168849 1000 0.02181436 0.02194966 0.02158497 0.02117353 0.02096226 1000 0.02181436 0.02194966 0.02158497 0.02117353 0.02096226 1000
lala 3 1.2 1 second 4 1 15 6 6.36 0.339998006820679 -1 0 1 0 0.02289244 0.02263175 0.02273167 0.02265743 0.02282811 1000 0.02289244 0.02263175 0.02273167 0.02265743 0.02282811 1000 0.02360202 0.02404022 0.02340365 0.02329525 0.02321257 1000 0.02360202 0.02404022 0.02340365 0.02329525 0.02321257 1000
lala 1 1.2 0 first 12 1 16 4 2.64 0.539997816085815 0 0 -1 1 0.02244512 0.02266502 0.02294158 1000 1000 1000 0.02244512 0.02266502 0.02294158 1000 1000 1000 0.02478937 0.0246643 0.02462358 0.02442156 0.02490508 1000 0.02478937 0.0246643 0.02462358 0.02442156 0.02490508 1000
lala 1 1.2 0 second 2 1 17 5 3.3 0.859997510910034 -1 0 -1 1 0.0171565 0.01770277 0.0188957 0.01881404 0.01890079 1000 0.0171565 0.01770277 0.0188957 0.01881404 0.01890079 1000 0.01794008 0.01792231 0.01833777 0.01879221 0.01879467 1000 0.01794008 0.01792231 0.01833777 0.01879221 0.01879467 1000
lala 2 1.2 1 second 9 1 18 5 5.45 0.779997587203979 1 1 1 0 0.01720033 0.01709026 0.01710003 0.01755989 0.01816059 1000 0.01720033 0.01709026 0.01710003 0.01755989 0.01816059 1000 0.01910726 0.01936928 0.02004734 0.02058694 0.02087026 1000 0.01910726 0.01936928 0.02004734 0.02058694 0.02087026 1000
lala 3 1.2 1 second 9 1 19 5 4.25 0.339998006820679 1 1 1 1 0.01942625 0.0188577 0.019217 0.01902937 0.0194074 1000 0.01942625 0.0188577 0.019217 0.01902937 0.0194074 1000 0.02358464 0.02375506 0.02290384 0.02134244 0.02133135 1000 0.02358464 0.02375506 0.02290384 0.02134244 0.02133135 1000
lala 2 1.2 0 second 10 1 20 6 2.76 0.459997892379761 1 0 -1 0 0.01579957 0.01670064 0.01708202 0.01779592 0.01699957 1000 0.01579957 0.01670064 0.01708202 0.01779592 0.01699957 1000 0.01524507 0.01519649 0.01557948 0.01626668 0.01705187 1000 0.01524507 0.01519649 0.01557948 0.01626668 0.01705187 1000
lala 2 1.2 1 second 7 1 21 4 4.12 0.679997682571411 1 1 1 1 0.01620114 0.01618312 0.01609907 0.01626335 0.01633637 1000 0.01620114 0.01618312 0.01609907 0.01626335 0.01633637 1000 0.01615509 0.0157115 0.0158528 0.01578855 0.01584839 1000 0.01615509 0.0157115 0.0158528 0.01578855 0.01584839 1000
lala 2 1.2 1 first 13 1 22 4 4.12 0.599997758865356 0 1 1 1 0.01523575 0.01493618 0.01499166 1000 1000 1000 0.01523575 0.01493618 0.01499166 1000 1000 1000 0.01542797 0.01567529 0.01479776 0.01481777 0.01416156 1000 0.01542797 0.01567529 0.01479776 0.01481777 0.01416156 1000
lala 2 1.2 1 second 12 1 23 4 3.84 0.319998025894165 0 0 1 1 0.01548215 0.0161013 0.01554548 0.01514562 0.01499865 1000 0.01548215 0.0161013 0.01554548 0.01514562 0.01499865 1000 0.01574315 0.01606774 0.01609951 0.01556175 0.01543883 1000 0.01574315 0.01606774 0.01609951 0.01556175 0.01543883 1000
lala 3 1.2 1 first 12 1 24 4 2.64 0.539997816085815 0 0 1 1 0.01438461 0.01382901 0.014152 1000 1000 1000 0.01438461 0.01382901 0.014152 1000 1000 1000 0.01690016 0.01757797 0.01757875 0.01759946 0.01745578 1000 0.01690016 0.01757797 0.01757875 0.01759946 0.01745578 1000
lala 1 1.2 1 second 11 1 25 6 7.98 0.499997854232788 1 1 1 1 0.01576362 0.01607031 0.01627127 0.01663309 0.01689664 1000 0.01576362 0.01607031 0.01627127 0.01663309 0.01689664 1000 0.01669433 0.01680979 0.01761563 0.01821294 0.01863396 1000 0.01669433 0.01680979 0.01761563 0.01821294 0.01863396 1000
lala 3 1.2 0 first 13 1 26 4 2.92 0.859997510910034 0 1 -1 1 0.01786996 0.01815064 0.0179121 1000 1000 1000 0.01786996 0.01815064 0.0179121 1000 1000 1000 0.01347146 0.01331405 0.01292774 0.0128494 0.01320391 1000 0.01347146 0.01331405 0.01292774 0.0128494 0.01320391 1000
lala 4 1.2 0 second 9 1 27 5 3.05 0.419997930526733 1 1 -1 0 0.01650342 0.01646413 0.01688549 0.01720727 0.01747889 1000 0.01650342 0.01646413 0.01688549 0.01720727 0.01747889 1000 0.01592762 0.01595453 0.0157692 0.01548944 0.01577497 1000 0.01592762 0.01595453 0.0157692 0.01548944 0.01577497 1000
lala 2 1.2 1 second 3 1 28 5 5.45 0.639997720718384 -1 1 1 1 0.01703546 0.01751479 0.01767597 0.01693358 0.01713143 1000 0.01703546 0.01751479 0.01767597 0.01693358 0.01713143 1000 0.01729065 0.01746119 0.01743254 0.01725614 0.01723408 1000 0.01729065 0.01746119 0.01743254 0.01725614 0.01723408 1000
lala 3 1.2 1 first 7 1 29 4 2.92 0.919997453689575 1 1 1 0 0.01725903 0.01750848 0.01780074 1000 1000 1000 0.01725903 0.01750848 0.01780074 1000 1000 1000 0.0162113 0.01662233 0.01687865 0.01684508 0.01585707 1000 0.0162113 0.01662233 0.01687865 0.01684508 0.01585707 1000
lala 1 1.2 1 second 5 1 30 6 7.98 0.359997987747192 -1 1 1 0 0.01540046 0.01590163 0.01569357 0.01553528 0.01627758 1000 0.01540046 0.01590163 0.01569357 0.01553528 0.01627758 1000 0.01645127 0.01496891 0.01360996 0.01294666 0.0128244 1000 0.01645127 0.01496891 0.01360996 0.01294666 0.0128244 1000
lala 4 1.2 0 first 12 1 31 4 1.44 0.259998083114624 0 0 -1 0 0.01422076 0.01466814 0.01453944 1000 1000 1000 0.01422076 0.01466814 0.01453944 1000 1000 1000 0.01856864 0.01863237 0.01848763 0.01819308 0.01817785 1000 0.01856864 0.01863237 0.01848763 0.01819308 0.01817785 1000
lala 4 1.2 0 second 13 1 32 4 4.12 0.659997701644897 0 1 -1 1 0.0160806 0.01603381 0.01580502 0.0155766 0.01556287 1000 0.0160806 0.01603381 0.01580502 0.0155766 0.01556287 1000 0.01637001 0.01695041 0.01718444 0.01649114 0.0164053 1000 0.01637001 0.01695041 0.01718444 0.01649114 0.0164053 1000
lala 2 1.2 1 first 5 1 33 6 6.780001 0.759997606277466 -1 1 1 0 0.01569582 0.01519911 0.01434634 1000 1000 1000 0.01569582 0.01519911 0.01434634 1000 1000 1000 0.01607159 0.01684949 0.01791274 0.01783265 0.01731611 1000 0.01607159 0.01684949 0.01791274 0.01783265 0.01731611 1000
lala 4 1.2 1 first 4 1 34 6 5.16 0.779997587203979 -1 0 1 1 0.01793844 0.01724718 0.01704374 1000 1000 1000 0.01793844 0.01724718 0.01704374 1000 1000 1000 0.01484004 0.01473985 0.01510022 0.01528999 0.01589685 1000 0.01484004 0.01473985 0.01510022 0.01528999 0.01589685 1000
lala 5 1.2 0 first 12 1 35 4 2.64 0.319998025894165 0 0 -1 1 0.0171393 0.01603683 0.01522206 1000 1000 1000 0.0171393 0.01603683 0.01522206 1000 1000 1000 0.01419561 0.01445047 0.01516376 0.01559297 0.01586747 1000 0.01419561 0.01445047 0.01516376 0.01559297 0.01586747 1000
lala 4 1.2 0 second 7 1 36 4 1.72 0.519997835159302 1 1 -1 1 0.01704595 0.01692605 0.0166574 0.0166387 0.01674241 1000 0.01704595 0.01692605 0.0166574 0.0166387 0.01674241 1000 0.0169118 0.01700143 0.01680595 0.01657751 0.01655566 1000 0.0169118 0.01700143 0.01680595 0.01657751 0.01655566 1000
lala 1 1.2 0 second 14 1 37 5 3.3 0.219998121261597 0 0 -1 0 0.01559517 0.01606052 0.01649107 0.0170541 0.0169289 1000 0.01559517 0.01606052 0.01649107 0.0170541 0.0169289 1000 0.01736132 0.01770867 0.01788289 0.01834076 0.01792965 1000 0.01736132 0.01770867 0.01788289 0.01834076 0.01792965 1000
lala 6 1.2 1 first 12 1 38 4 3.84 0.139998197555542 0 0 1 0 0.01496096 0.01468883 0.01434425 1000 1000 1000 0.01496096 0.01468883 0.01434425 1000 1000 1000 0.01666101 0.017575 0.01730547 0.01693599 0.01672618 1000 0.01666101 0.017575 0.01730547 0.01693599 0.01672618 1000
lala 2 1.2 1 first 6 1 39 4 3.84 0.459997892379761 1 0 1 1 0.01557707 0.01556135 0.01544482 1000 1000 1000 0.01557707 0.01556135 0.01544482 1000 1000 1000 0.01334745 0.01469071 0.01468229 0.01395154 0.01358154 1000 0.01334745 0.01469071 0.01468229 0.01395154 0.01358154 1000
lala 2 1.2 1 second 11 1 40 6 6.780001 0.339998006820679 1 1 1 1 0.01670267 0.01655408 0.01630681 0.01687133 0.01729763 1000 0.01670267 0.01655408 0.01630681 0.01687133 0.01729763 1000 0.01686523 0.01647173 0.01635971 0.01581775 0.0161117 1000 0.01686523 0.01647173 0.01635971 0.01581775 0.0161117 1000
lala 3 1.2 1 first 10 1 41 6 3.96 0.759997606277466 1 0 1 0 0.01689555 0.01692535 0.01661993 1000 1000 1000 0.01689555 0.01692535 0.01661993 1000 1000 1000 0.01541216 0.01572462 0.01584425 0.01583723 0.01608683 1000 0.01541216 0.01572462 0.01584425 0.01583723 0.01608683 1000
lala 4 1.2 1 second 10 1 42 6 2.76 0.859997510910034 1 0 1 1 0.01598403 0.01672628 0.01726477 0.01729474 0.01696274 1000 0.01598403 0.01672628 0.01726477 0.01729474 0.01696274 1000 0.0166693 0.01702727 0.01728937 0.01740333 0.01728181 1000 0.0166693 0.01702727 0.01728937 0.01740333 0.01728181 1000
lala 1 1.2 1 second 15 1 43 5 6.65 0.819997549057007 0 1 1 0 0.01676419 0.01668481 0.01716158 0.01720549 0.01751716 1000 0.01676419 0.01668481 0.01716158 0.01720549 0.01751716 1000 0.01753027 0.0171236 0.01746528 0.01771486 0.01758519 1000 0.01753027 0.0171236 0.01746528 0.01771486 0.01758519 1000
lala 5 1.2 0 first 4 1 44 6 3.96 0.439997911453247 -1 0 -1 0 0.01554901 0.01501405 0.01553417 1000 1000 1000 0.01554901 0.01501405 0.01553417 1000 1000 1000 0.0185079 0.0190323 0.01860399 0.01812895 0.0179977 1000 0.0185079 0.0190323 0.01860399 0.01812895 0.0179977 1000
lala 3 1.2 1 second 3 1 45 5 4.25 0.719997644424438 -1 1 1 1 0.01647161 0.01650218 0.01663757 0.01690408 0.01644566 1000 0.01647161 0.01650218 0.01663757 0.01690408 0.01644566 1000 0.01665626 0.01673025 0.01729227 0.01745803 0.01716433 1000 0.01665626 0.01673025 0.01729227 0.01745803 0.01716433 1000
lala 7 1.2 0 second 12 1 46 4 2.64 0.259998083114624 0 0 -1 1 0.01674077 0.0167113 0.01673655 0.01675464 0.01694148 1000 0.01674077 0.0167113 0.01673655 0.01675464 0.01694148 1000 0.01639791 0.01625313 0.01629659 0.01670636 0.01708294 1000 0.01639791 0.01625313 0.01629659 0.01670636 0.01708294 1000
lala 5 1.2 1 second 7 1 47 4 2.92 0.819997549057007 1 1 1 0 0.0174637 0.01806135 0.01839015 0.01847529 0.0180424 1000 0.0174637 0.01806135 0.01839015 0.01847529 0.0180424 1000 0.01761362 0.01760438 0.01801544 0.01793819 0.01755944 1000 0.01761362 0.01760438 0.01801544 0.01793819 0.01755944 1000
lala 2 1.2 1 first 17 1 48 6 6.780001 0.01999831199646 0 1 1 1 0.01659884 0.01609288 0.01609608 1000 1000 1000 0.01659884 0.01609288 0.01609608 1000 1000 1000 0.01652854 0.0166577 0.01721153 0.01752997 0.01771916 1000 0.01652854 0.0166577 0.01721153 0.01752997 0.01771916 1000
lala 5 1.2 0 second 9 1 49 5 4.25 0.459997892379761 1 1 -1 0 0.01673284 0.0165016 0.01667403 0.01661789 0.0168342 1000 0.01673284 0.0165016 0.01667403 0.01661789 0.0168342 1000 0.01753301 0.01766885 0.01767693 0.01791778 0.01849602 1000 0.01753301 0.01766885 0.01767693 0.01791778 0.01849602 1000
lala 2 1.2 0 second 15 1 50 5 5.45 0.659997701644897 0 1 -1 1 -0.01408985 -0.01393182 -0.01345299 -0.01345445 -0.01367445 1000 -0.01408985 -0.01393182 -0.01345299 -0.01345445 -0.01367445 1000 -0.01274749 -0.0123403 -0.01190208 -0.01147663 -0.01168088 1000 -0.01274749 -0.0123403 -0.01190208 -0.01147663 -0.01168088 1000
lala 2 1.2 1 first 14 1 51 5 4.5 1.75999689102173 0 0 1 0 -0.01084124 -0.01025377 -0.01001959 1000 1000 1000 -0.01084124 -0.01025377 -0.01001959 1000 1000 1000 -0.01003824 -0.01027519 -0.01029445 -0.009908002 -0.009293315 1000 -0.01003824 -0.01027519 -0.01029445 -0.009908002 -0.009293315 1000
lala 3 1.2 0 second 15 1 52 5 6.65 7.64003992080688 0 1 -1 1 -0.009757171 -0.009243785 -0.009009814 -0.009387624 -0.009546949 1000 -0.009757171 -0.009243785 -0.009009814 -0.009387624 -0.009546949 1000 -0.01038578 -0.00995677 -0.009839161 -0.009813936 -0.009284625 1000 -0.01038578 -0.00995677 -0.009839161 -0.009813936 -0.009284625 1000
lala 6 1.2 1 second 7 1 53 4 1.72 0.439997911453247 1 1 1 1 0.01436712 0.01467415 0.0143964 0.01426078 0.01399049 1000 0.01436712 0.01467415 0.0143964 0.01426078 0.01399049 1000 0.01452766 0.01497863 0.0158631 0.01589095 0.01549292 1000 0.01452766 0.01497863 0.0158631 0.01589095 0.01549292 1000
lala 4 1.2 1 first 15 1 54 5 7.849999 0.579997777938843 0 1 1 0 0.01693107 0.01709669 0.01709336 1000 1000 1000 0.01693107 0.01709669 0.01709336 1000 1000 1000 0.01617073 0.01594274 0.01595007 0.0161839 0.01572764 1000 0.01617073 0.01594274 0.01595007 0.0161839 0.01572764 1000
lala 3 1.2 1 second 14 1 55 5 3.3 0.23999810218811 0 0 1 0 0.01800304 0.01846193 0.01879879 0.01832559 0.01831341 1000 0.01800304 0.01846193 0.01879879 0.01832559 0.01831341 1000 0.01684862 0.01593892 0.01601533 0.01671723 0.01710405 1000 0.01684862 0.01593892 0.01601533 0.01671723 0.01710405 1000
lala 3 1.2 0 first 11 1 56 6 5.580001 0.379997968673706 1 1 -1 0 0.01696141 0.01621291 0.0152243 1000 1000 1000 0.01696141 0.01621291 0.0152243 1000 1000 1000 0.01589532 0.01550919 0.01545971 0.01591229 0.01571602 1000 0.01589532 0.01550919 0.01545971 0.01591229 0.01571602 1000
lala 3 1.2 1 second 17 1 57 6 5.580001 0.339998006820679 0 1 1 1 0.012139 0.01336741 0.01348627 0.01071147 0.006840112 1000 0.012139 0.01336741 0.01348627 0.01071147 0.006840112 1000 0.00974441 0.01033091 0.01099357 0.01092612 0.01063633 1000 0.00974441 0.01033091 0.01099357 0.01092612 0.01063633 1000
lala 3 1.2 0 first 6 1 58 4 2.64 0.899997472763062 1 0 -1 1 0.01043789 0.01042671 0.0103916 1000 1000 1000 0.01043789 0.01042671 0.0103916 1000 1000 1000 0.009323326 0.009584352 0.01025416 0.0109931 0.0110806 1000 0.009323326 0.009584352 0.01025416 0.0109931 0.0110806 1000
lala 2 1.2 1 second 1 1 59 4 6.52 0.959997415542603 -1 1 1 1 0.01102806 0.011394 0.01195028 0.01202832 0.01147285 1000 0.01102806 0.011394 0.01195028 0.01202832 0.01147285 1000 0.01079492 0.01054639 0.01051376 0.01093416 0.01094404 1000 0.01079492 0.01054639 0.01051376 0.01093416 0.01094404 1000
lala 2 1.2 0 first 2 1 60 5 4.5 0.339998006820679 -1 0 -1 1 0.01031941 0.01053164 0.01074391 1000 1000 1000 0.01031941 0.01053164 0.01074391 1000 1000 1000 0.01097484 0.0110981 0.01019789 0.01033533 0.009762011 1000 0.01097484 0.0110981 0.01019789 0.01033533 0.009762011 1000
lala 6 1.2 0 second 4 1 61 6 5.16 0.919997453689575 -1 0 -1 1 0.01000517 0.01000289 0.01039825 0.01083297 0.01147527 1000 0.01000517 0.01000289 0.01039825 0.01083297 0.01147527 1000 0.01157282 0.01118505 0.01104171 0.01088992 0.01156542 1000 0.01157282 0.01118505 0.01104171 0.01088992 0.01156542 1000
lala 3 1.2 1 second 2 1 62 5 5.7 0.659997701644897 -1 0 1 1 0.01130365 0.01123513 0.01169364 0.01209066 0.01245591 1000 0.01130365 0.01123513 0.01169364 0.01209066 0.01245591 1000 0.0127448 0.01295396 0.01307408 0.01327837 0.01363446 1000 0.0127448 0.01295396 0.01307408 0.01327837 0.01363446 1000
lala 5 1.2 0 first 10 1 63 6 1.98 0.339998006820679 1 0 -1 0 0.01397877 0.01397265 0.01380213 1000 1000 1000 0.01397877 0.01397265 0.01380213 1000 1000 1000 0.01600791 0.01601166 0.01575085 0.01539547 0.01555077 1000 0.01600791 0.01601166 0.01575085 0.01539547 0.01555077 1000
lala 4 1.2 0 first 6 1 64 4 3.84 0.539997816085815 1 0 -1 1 0.0182617 0.01806448 0.01790338 1000 1000 1000 0.0182617 0.01806448 0.01790338 1000 1000 1000 0.0189272 0.01870251 0.01906891 0.01932181 0.02046272 1000 0.0189272 0.01870251 0.01906891 0.01932181 0.02046272 1000
lala 4 1.2 0 second 14 1 65 5 2.1 0.639997720718384 0 0 -1 1 0.02323264 0.02324341 0.02344561 0.02352679 0.02412323 1000 0.02323264 0.02324341 0.02344561 0.02352679 0.02412323 1000 0.02708088 0.0273142 0.02405092 0.02008208 0.01954414 1000 0.02708088 0.0273142 0.02405092 0.02008208 0.01954414 1000
lala 7 1.2 1 first 4 1 66 6 6.36 1.45999693870544 -1 0 1 1 0.01987953 0.01980078 0.01992502 1000 1000 1000 0.01987953 0.01980078 0.01992502 1000 1000 1000 0.02216021 0.02222997 0.02237655 0.02267825 0.02250856 1000 0.02216021 0.02222997 0.02237655 0.02267825 0.02250856 1000
lala 4 1.2 1 first 2 1 67 5 4.5 0.579997777938843 -1 0 1 1 0.01897449 0.01955432 0.01954527 1000 1000 1000 0.01897449 0.01955432 0.01954527 1000 1000 1000 0.02156104 0.02116409 0.02113472 0.02093123 0.02128015 1000 0.02156104 0.02116409 0.02113472 0.02093123 0.02128015 1000
lala 5 1.2 1 second 14 1 68 5 3.3 2.91999578475952 0 0 1 0 0.01623609 0.01618593 0.0161267 0.01597906 0.01564143 1000 0.01623609 0.01618593 0.0161267 0.01597906 0.01564143 1000 0.01520526 0.01558803 0.01587922 0.01630428 0.01603591 1000 0.01520526 0.01558803 0.01587922 0.01630428 0.01603591 1000
lala 8 1.2 1 first 4 1 69 6 5.16 0.0999982357025146 -1 0 1 1 0.0139805 0.01397254 0.01419928 1000 1000 1000 0.0139805 0.01397254 0.01419928 1000 1000 1000 0.01498284 0.01501281 0.01500639 0.01477019 0.0151286 1000 0.01498284 0.01501281 0.01500639 0.01477019 0.0151286 1000
lala 4 1.2 1 second 17 1 70 6 4.380001 0.119998216629028 0 1 1 1 0.01528063 0.01487143 0.01476496 0.01425679 0.01358403 1000 0.01528063 0.01487143 0.01476496 0.01425679 0.01358403 1000 0.00815413 0.008487397 0.008623512 0.008540956 0.008482841 1000 0.00815413 0.008487397 0.008623512 0.008540956 0.008482841 1000
lala 3 1.2 0 first 5 1 71 6 5.580001 0.739997625350952 -1 1 -1 1 0.009959877 0.0103451 0.01072297 1000 1000 1000 0.009959877 0.0103451 0.01072297 1000 1000 1000 0.01327342 0.0128144 0.01276374 0.01279548 0.0129704 1000 0.01327342 0.0128144 0.01276374 0.01279548 0.0129704 1000
lala 4 1.2 1 second 16 1 72 6 5.16 0.459997892379761 0 0 1 1 0.01158517 0.01209858 0.01138252 0.01120969 0.01131296 1000 0.01158517 0.01209858 0.01138252 0.01120969 0.01131296 1000 0.01197882 0.01235398 0.01276736 0.01257376 0.01216067 1000 0.01197882 0.01235398 0.01276736 0.01257376 0.01216067 1000
lala 7 1.2 1 second 7 1 73 4 1.32 0.459997892379761 1 1 1 0 0.01056871 0.01020413 0.01025889 0.01062593 0.0111678 1000 0.01056871 0.01020413 0.01025889 0.01062593 0.0111678 1000 0.01206166 0.01192478 0.01178549 0.01181461 0.01175246 1000 0.01206166 0.01192478 0.01178549 0.01181461 0.01175246 1000
lala 1 1.2 1 first 0 1 74 4 2.64 0.419997930526733 -1 0 1 0 0.01301603 0.0126322 0.01195564 1000 1000 1000 0.01301603 0.0126322 0.01195564 1000 1000 1000 0.01099943 0.01057458 0.01005293 0.01077082 0.01157007 1000 0.01099943 0.01057458 0.01005293 0.01077082 0.01157007 1000
lala 4 1.2 1 second 5 1 75 6 6.780001 0.179998159408569 -1 1 1 0 0.01305124 0.01323983 0.01298662 0.01277843 0.01249275 1000 0.01305124 0.01323983 0.01298662 0.01277843 0.01249275 1000 0.01208325 0.01227324 0.0121881 0.01166765 0.01111575 1000 0.01208325 0.01227324 0.0121881 0.01166765 0.01111575 1000
lala 2 1.2 0 first 0 1 76 4 1.44 0.519997835159302 -1 0 -1 0 0.01154588 0.01140063 0.01162951 1000 1000 1000 0.01154588 0.01140063 0.01162951 1000 1000 1000 0.01591622 0.01623973 0.01574622 0.0155358 0.01561008 1000 0.01591622 0.01623973 0.01574622 0.0155358 0.01561008 1000
lala 5 1.2 1 first 15 1 77 5 6.65 0.419997930526733 0 1 1 1 0.01389422 0.01328568 0.01286687 1000 1000 1000 0.01389422 0.01328568 0.01286687 1000 1000 1000 0.01561196 0.0160684 0.0164396 0.01702985 0.01689629 1000 0.01561196 0.0160684 0.0164396 0.01702985 0.01689629 1000
lala 8 1.2 1 first 12 1 78 4 3.84 0.279998064041138 0 0 1 0 0.01712308 0.01723659 0.01882166 1000 1000 1000 0.01712308 0.01723659 0.01882166 1000 1000 1000 0.01941454 0.0195099 0.01937961 0.01953421 0.01996502 1000 0.01941454 0.0195099 0.01937961 0.01953421 0.01996502 1000
lala 6 1.2 0 second 14 1 79 5 2.1 0.299998044967651 0 0 -1 1 0.02033212 0.02015376 0.02009342 0.02010356 0.01938348 1000 0.02033212 0.02015376 0.02009342 0.02010356 0.01938348 1000 0.01721682 0.01733078 0.01734092 0.0176321 0.01759285 1000 0.01721682 0.01733078 0.01734092 0.0176321 0.01759285 1000
lala 5 1.2 1 second 2 1 80 5 3.3 0.199998140335083 -1 0 1 1 0.01826007 0.01856714 0.0191869 0.0189186 0.01883199 1000 0.01826007 0.01856714 0.0191869 0.0189186 0.01883199 1000 0.01908405 0.01959545 0.02017205 0.02043833 0.0197271 1000 0.01908405 0.01959545 0.02017205 0.02043833 0.0197271 1000
lala 6 1.2 1 second 15 1 81 5 5.45 0.61999773979187 0 1 1 0 0.01843177 0.01954096 0.01968703 0.01976936 0.01947674 1000 0.01843177 0.01954096 0.01968703 0.01976936 0.01947674 1000 0.02094233 0.0212818 0.02130007 0.02099781 0.02088519 1000 0.02094233 0.0212818 0.02130007 0.02099781 0.02088519 1000
lala 6 1.2 0 first 2 1 82 5 2.1 0.0399982929229736 -1 0 -1 0 0.0206621 0.02008987 0.0193578 1000 1000 1000 0.0206621 0.02008987 0.0193578 1000 1000 1000 0.02072293 0.02119996 0.02205124 0.02183614 0.02168359 1000 0.02072293 0.02119996 0.02205124 0.02183614 0.02168359 1000
lala 7 1.2 1 first 14 1 83 5 3.3 0.39999794960022 0 0 1 1 0.02270191 0.02197266 0.02136507 1000 1000 1000 0.02270191 0.02197266 0.02136507 1000 1000 1000 0.01660683 0.01727597 0.01829315 0.0188346 0.01914794 1000 0.01660683 0.01727597 0.01829315 0.0188346 0.01914794 1000
lala 3 1.2 1 second 1 1 84 4 5.320001 0.779997587203979 -1 1 1 1 0.02052343 0.02101758 0.02040736 0.02039362 0.02065012 1000 0.02052343 0.02101758 0.02040736 0.02039362 0.02065012 1000 0.02060387 0.01956279 0.01890247 0.01860784 0.01936689 1000 0.02060387 0.01956279 0.01890247 0.01860784 0.01936689 1000
lala 9 1.2 1 first 4 1 85 6 3.96 0.419997930526733 -1 0 1 0 0.02000048 0.01934076 0.01836615 1000 1000 1000 0.02000048 0.01934076 0.01836615 1000 1000 1000 0.01837198 0.01884637 0.01894898 0.01841114 0.01782638 1000 0.01837198 0.01884637 0.01894898 0.01841114 0.01782638 1000
lala 7 1.2 1 second 15 1 86 5 4.25 0.079998254776001 0 1 1 1 0.01820623 0.01818412 0.01886246 0.01940421 0.02006825 1000 0.01820623 0.01818412 0.01886246 0.01940421 0.02006825 1000 0.0186125 0.01818646 0.01791922 0.01809586 0.01829705 1000 0.0186125 0.01818646 0.01791922 0.01809586 0.01829705 1000
lala 5 1.2 1 second 16 1 87 6 3.96 0.779997587203979 0 0 1 0 0.01538548 0.0147725 0.01483097 0.01499286 0.0151036 1000 0.01538548 0.0147725 0.01483097 0.01499286 0.0151036 1000 0.01353275 0.01380168 0.01437518 0.01525312 0.0158476 1000 0.01353275 0.01380168 0.01437518 0.01525312 0.0158476 1000
lala 7 1.2 0 second 2 1 88 5 3.3 0.0599982738494873 -1 0 -1 1 0.01767816 0.01807871 0.01752494 0.01714208 0.01699082 1000 0.01767816 0.01807871 0.01752494 0.01714208 0.01699082 1000 0.01664394 0.01664939 0.01723779 0.01715542 0.01684921 1000 0.01664394 0.01664939 0.01723779 0.01715542 0.01684921 1000
lala 9 1.2 1 second 12 1 89 4 2.64 0.319998025894165 0 0 1 0 0.01854396 0.01910775 0.01901299 0.01863825 0.0183494 1000 0.01854396 0.01910775 0.01901299 0.01863825 0.0183494 1000 0.01855407 0.01894578 0.01875543 0.01822847 0.01786858 1000 0.01855407 0.01894578 0.01875543 0.01822847 0.01786858 1000
lala 5 1.2 0 second 13 1 90 4 5.32 0.359997987747192 0 1 -1 0 0.01783356 0.01787077 0.01814156 0.01895766 0.01945315 1000 0.01783356 0.01787077 0.01814156 0.01895766 0.01945315 1000 0.02010196 0.02047798 0.02095967 0.02158034 0.02128438 1000 0.02010196 0.02047798 0.02095967 0.02158034 0.02128438 1000
lala 10 2.4 1 first 4 1 91 6 1.98 0.919997453689575 -1 0 1 0 0.02043051 0.01951216 0.01874951 1000 1000 1000 0.02043051 0.01951216 0.01874951 1000 1000 1000 0.01977724 0.01982271 0.02015273 0.0204517 0.02091545 1000 0.01977724 0.01982271 0.02015273 0.0204517 0.02091545 1000
lala 8 1.2 0 second 14 1 92 5 2.1 0.359997987747192 0 0 -1 1 0.02074209 0.02081958 0.02104205 0.02073892 0.02081642 1000 0.02074209 0.02081958 0.02104205 0.02073892 0.02081642 1000 0.01956457 0.019818 0.0194778 0.01937119 0.01931564 1000 0.01956457 0.019818 0.0194778 0.01937119 0.01931564 1000
lala 6 1.2 1 second 13 1 93 4 6.52 0.499997854232788 0 1 1 0 0.02062638 0.0206174 0.02100031 0.02146543 0.02225733 1000 0.02062638 0.0206174 0.02100031 0.02146543 0.02225733 1000 0.02226024 0.02218113 0.02216051 0.02201893 0.02214756 1000 0.02226024 0.02218113 0.02216051 0.02201893 0.02214756 1000
lala 3 1.2 0 first 0 1 94 4 2.64 0.359997987747192 -1 0 -1 1 0.02080583 0.02065823 0.02076228 1000 1000 1000 0.02080583 0.02065823 0.02076228 1000 1000 1000 0.02061033 0.02087948 0.0212738 0.02205298 0.02203308 1000 0.02061033 0.02087948 0.0212738 0.02205298 0.02203308 1000
lala 6 1.2 0 first 16 1 95 6 2.76 0.559997797012329 0 0 -1 0 0.02099471 0.02062875 0.0203929 1000 1000 1000 0.02099471 0.02062875 0.0203929 1000 1000 1000 0.02119448 0.02194095 0.02215864 0.02189789 0.02177767 1000 0.02119448 0.02194095 0.02215864 0.02189789 0.02177767 1000
lala 5 1.2 0 second 17 1 96 6 3.180001 0.899997472763062 0 1 -1 0 0.02207599 0.0223854 0.023104 0.02319574 0.02228492 1000 0.02207599 0.0223854 0.023104 0.02319574 0.02228492 1000 0.02000092 0.01959874 0.02016902 0.02072422 0.02086543 1000 0.02000092 0.01959874 0.02016902 0.02072422 0.02086543 1000
lala 6 1.2 1 second 17 1 97 6 4.380001 0.99999737739563 0 1 1 1 0.02336033 0.02303166 0.02271754 0.0224066 0.02240557 1000 0.02336033 0.02303166 0.02271754 0.0224066 0.02240557 1000 0.02226006 0.0224286 0.02169891 0.0210115 0.02029419 1000 0.02226006 0.0224286 0.02169891 0.0210115 0.02029419 1000
lala 11 4.8 1 second 4 1 98 6 1.98 0.799997568130493 -1 0 1 0 0.01907809 0.01902809 0.01920419 0.01937619 0.01954901 1000 0.01907809 0.01902809 0.01920419 0.01937619 0.01954901 1000 0.01997095 0.01963666 0.01926338 0.0192312 0.01917978 1000 0.01997095 0.01963666 0.01926338 0.0192312 0.01917978 1000
lala 7 1.2 1 first 17 1 99 6 3.180001 0.839997529983521 0 1 1 1 0.01760906 0.01821849 0.01836055 1000 1000 1000 0.01760906 0.01821849 0.01836055 1000 1000 1000 0.02043945 0.02023259 0.02011175 0.02017898 0.02056771 1000 0.02043945 0.02023259 0.02011175 0.02017898 0.02056771 1000
lala 8 1.2 1 first 15 1 100 5 3.05 0.879997491836548 0 1 1 0 -0.02039805 -0.01558245 -0.01308208 -0.0126048 -0.01269825 -0.01283808 -0.02039805 -0.01558245 -0.01308208 -0.0126048 -0.01269825 -0.01283808 -0.006700336 -0.007267706 -0.00871821 -0.006291841 -0.005045435 1000 -0.006700336 -0.007267706 -0.00871821 -0.006291841 -0.005045435 1000
lala 9 1.2 1 second 14 1 101 5 3.3 0.01999831199646 0 0 1 1 -0.002885578 -0.002709053 -0.003148872 -0.003370573 -0.002747795 1000 -0.002885578 -0.002709053 -0.003148872 -0.003370573 -0.002747795 1000 -0.001793996 -0.001015573 -0.0004531567 -4.714194E-05 -7.846947E-05 1000 -0.001793996 -0.001015573 -0.0004531567 -4.714194E-05 -7.846947E-05 1000
lala 9 1.2 0 second 15 1 102 5 1.85 0.539997816085815 0 1 -1 0 -0.001295787 -0.0006382717 0.0004824589 0.0005538852 0.0007985213 1000 -0.001295787 -0.0006382717 0.0004824589 0.0005538852 0.0007985213 1000 0.001276803 0.0008629135 0.0007866698 0.001382661 0.001152483 1000 0.001276803 0.0008629135 0.0007866698 0.001382661 0.001152483 1000
lala 10 0.6 0 first 14 1 103 5 2.7 0.119998216629028 0 0 -1 0 -0.0006401646 -0.0003810814 -0.0002753818 1000 1000 1000 -0.0006401646 -0.0003810814 -0.0002753818 1000 1000 1000 0.0008667348 0.0008981907 0.0006761424 0.0009513982 0.001258219 1000 0.0008667348 0.0008981907 0.0006761424 0.0009513982 0.001258219 1000
lala 4 1.2 1 second 11 1 104 6 6.780001 0.0399982929229736 1 1 1 1 0.0002193658 0.000797161 0.001181644 0.0008591418 0.000914357 1000 0.0002193658 0.000797161 0.001181644 0.0008591418 0.000914357 1000 -0.0002855094 -0.0003459693 0.0001756337 0.00097233 0.0008938769 1000 -0.0002855094 -0.0003459693 0.0001756337 0.00097233 0.0008938769 1000
lala 5 1.2 1 second 5 1 105 6 5.580001 0.319998025894165 -1 1 1 0 0.0009682612 0.0009288117 0.00155335 0.002199911 0.002551652 1000 0.0009682612 0.0009288117 0.00155335 0.002199911 0.002551652 1000 0.00200805 0.002228756 0.002436277 0.003047653 0.003429503 1000 0.00200805 0.002228756 0.002436277 0.003047653 0.003429503 1000
lala 4 1.2 1 second 0 1 106 4 3.84 0.579997777938843 -1 0 1 1 0.0006791335 0.001526426 0.001798921 0.00125498 0.001213405 1000 0.0006791335 0.001526426 0.001798921 0.00125498 0.001213405 1000 0.002238267 0.002663499 0.002828784 0.002497225 0.00210948 1000 0.002238267 0.002663499 0.002828784 0.002497225 0.00210948 1000
lala 8 1.2 0 first 17 1 107 6 1.980001 0.0999982357025146 0 1 -1 1 0.002601404 0.001567905 0.001259444 1000 1000 1000 0.002601404 0.001567905 0.001259444 1000 1000 1000 0.0001210625 0.0005659797 0.001315912 0.00240451 0.002444835 1000 0.0001210625 0.0005659797 0.001315912 0.00240451 0.002444835 1000
lala 7 1.2 1 second 13 1 108 4 5.32 0.01999831199646 0 1 1 1 0.0029898 0.00356864 0.004168104 0.003979446 0.004376279 1000 0.0029898 0.00356864 0.004168104 0.003979446 0.004376279 1000 0.003185673 0.003083391 0.003395218 0.003977067 0.003861332 1000 0.003185673 0.003083391 0.003395218 0.003977067 0.003861332 1000
lala 8 1.2 1 second 13 1 109 4 4.12 0.599997758865356 0 1 1 0 0.003683428 0.003730645 0.004382467 0.004817326 0.004589998 1000 0.003683428 0.003730645 0.004382467 0.004817326 0.004589998 1000 0.005220126 0.005169802 0.005615843 0.00597176 0.006254988 1000 0.005220126 0.005169802 0.005615843 0.00597176 0.006254988 1000
lala 12 9.6 0 first 4 1 110 6 1.98 0.179998159408569 -1 0 -1 0 0.003137962 0.003560947 0.004171802 1000 1000 1000 0.003137962 0.003560947 0.004171802 1000 1000 1000 0.005551616 0.005228068 0.005291693 0.005497547 0.005690684 1000 0.005551616 0.005228068 0.005291693 0.005497547 0.005690684 1000
lala 5 1.2 1 second 0 1 111 4 2.64 1.61999702453613 -1 0 1 1 0.006579675 0.007102211 0.007631119 0.008178899 0.008001788 1000 0.006579675 0.007102211 0.007631119 0.008178899 0.008001788 1000 0.007600188 0.007899934 0.008406806 0.008174459 0.007514216 1000 0.007600188 0.007899934 0.008406806 0.008174459 0.007514216 1000
lala 5 1.2 1 first 6 1 112 4 5.04 0.499997854232788 1 0 1 1 0.006115387 0.006453512 0.006368183 1000 1000 1000 0.006115387 0.006453512 0.006368183 1000 1000 1000 0.005392213 0.005237943 0.005877216 0.006241986 0.005238868 1000 0.005392213 0.005237943 0.005877216 0.006241986 0.005238868 1000
lala 2 1.2 1 second 8 1 113 5 4.5 0.979997396469116 1 0 1 1 0.003727384 0.004106134 0.003858816 0.001876507 0.0001553872 1000 0.003727384 0.004106134 0.003858816 0.001876507 0.0001553872 1000 0.002945566 0.00339661 0.003859485 0.00394775 0.003266797 1000 0.002945566 0.00339661 0.003859485 0.00394775 0.003266797 1000
lala 11 0.3 0 second 14 1 114 5 3 1.33999705314636 0 0 -1 0 0.002815733 0.003442974 0.003591693 0.003994714 0.00365813 1000 0.002815733 0.003442974 0.003591693 0.003994714 0.00365813 1000 -0.007269766 -0.007601881 -0.006829379 -0.005956418 -0.005764931 1000 -0.007269766 -0.007601881 -0.006829379 -0.005956418 -0.005764931 1000
lala 12 0.3 1 second 14 1 115 5 3.3 0.859997510910034 0 0 1 1 -0.003007016 -0.002892098 -0.002339358 -0.002264951 -0.002652246 1000 -0.003007016 -0.002892098 -0.002339358 -0.002264951 -0.002652246 1000 -0.006940607 -0.007056305 -0.007041806 -0.006772888 -0.005333237 1000 -0.006940607 -0.007056305 -0.007041806 -0.006772888 -0.005333237 1000
lala 6 1.2 1 first 5 1 116 6 4.380001 4.11999464035034 -1 1 1 0 -0.001695991 -0.0008499281 -0.0007871848 1000 1000 1000 -0.001695991 -0.0008499281 -0.0007871848 1000 1000 1000 -0.0001176208 -9.638406E-06 0.0004102619 0.000409343 0.0003721253 1000 -0.0001176208 -9.638406E-06 0.0004102619 0.000409343 0.0003721253 1000
lala 8 1.2 1 first 7 1 117 4 1.32 0.839997529983521 1 1 1 0 -0.0238022 -0.02195854 -0.02160383 1000 1000 1000 -0.0238022 -0.02195854 -0.02160383 1000 1000 1000 -0.02347131 -0.02294322 -0.02330729 -0.02331004 -0.02297958 1000 -0.02347131 -0.02294322 -0.02330729 -0.02331004 -0.02297958 1000
lala 6 1.2 1 second 0 1 118 4 1.44 1.43999695777893 -1 0 1 0 -0.01425553 -0.01413708 -0.01480551 -0.01496834 -0.01487336 1000 -0.01425553 -0.01413708 -0.01480551 -0.01496834 -0.01487336 1000 -0.01495415 -0.01444528 -0.01358489 -0.01312084 -0.01282198 1000 -0.01495415 -0.01444528 -0.01358489 -0.01312084 -0.01282198 1000
lala 9 1.2 1 second 13 1 119 4 2.92 0.479997873306274 0 1 1 1 -0.0135754 -0.01341662 -0.01299215 -0.01318263 -0.01330465 1000 -0.0135754 -0.01341662 -0.01299215 -0.01318263 -0.01330465 1000 -0.01406296 -0.01438787 -0.01445168 -0.01413452 -0.01358538 1000 -0.01406296 -0.01438787 -0.01445168 -0.01413452 -0.01358538 1000
lala 10 1.2 0 first 12 1 120 4 1.44 1.87999677658081 0 0 -1 1 -0.01334547 -0.01339968 -0.01314075 1000 1000 1000 -0.01334547 -0.01339968 -0.01314075 1000 1000 1000 -0.01131985 -0.01075495 -0.01088071 -0.01116286 -0.01085674 1000 -0.01131985 -0.01075495 -0.01088071 -0.01116286 -0.01085674 1000
lala 10 2.4 0 second 13 1 121 4 1.32 0.499997854232788 0 1 -1 1 -0.0122383 -0.01198671 -0.01142651 -0.01136367 -0.01167866 1000 -0.0122383 -0.01198671 -0.01142651 -0.01136367 -0.01167866 1000 -0.01233329 -0.01248231 -0.01238052 -0.01205409 -0.01153931 1000 -0.01233329 -0.01248231 -0.01238052 -0.01205409 -0.01153931 1000
lala 9 1.2 1 first 17 1 122 6 3.180001 0.379997968673706 0 1 1 1 -0.01596708 -0.01649616 -0.01650478 1000 1000 1000 -0.01596708 -0.01649616 -0.01650478 1000 1000 1000 -0.0118132 -0.01171645 -0.01155988 -0.01104781 -0.0112042 1000 -0.0118132 -0.01171645 -0.01155988 -0.01104781 -0.0112042 1000
lala 6 1.2 0 second 9 1 123 5 5.45 0.139998197555542 1 1 -1 1 -0.01127286 -0.01111508 -0.01015929 -0.009210656 -0.009212539 1000 -0.01127286 -0.01111508 -0.01015929 -0.009210656 -0.009212539 1000 -0.00820242 -0.008374226 -0.007523971 -0.00668094 -0.006719373 1000 -0.00820242 -0.008374226 -0.007523971 -0.00668094 -0.006719373 1000
lala 3 1.2 1 second 8 1 124 5 3.3 0.219998121261597 1 0 1 1 -0.007392254 -0.006533017 -0.006082682 -0.006220719 -0.00648143 1000 -0.007392254 -0.006533017 -0.006082682 -0.006220719 -0.00648143 1000 -0.008419671 -0.008981711 -0.008799059 -0.007753837 -0.007133306 1000 -0.008419671 -0.008981711 -0.008799059 -0.007753837 -0.007133306 1000
lala 5 1.2 1 first 11 1 125 6 5.580001 0.01999831199646 1 1 1 1 -0.005211918 -0.005243527 -0.005312063 1000 1000 1000 -0.005211918 -0.005243527 -0.005312063 1000 1000 1000 -0.004830094 -0.004676174 -0.004637096 -0.00436827 -0.004304808 1000 -0.004830094 -0.004676174 -0.004637096 -0.00436827 -0.004304808 1000
lala 7 1.2 1 first 9 1 126 5 6.65 0.179998159408569 1 1 1 1 -0.006252462 -0.006340445 -0.006291801 1000 1000 1000 -0.006252462 -0.006340445 -0.006291801 1000 1000 1000 -0.004123157 -0.00441619 -0.004342822 -0.0041827 -0.003550858 1000 -0.004123157 -0.00441619 -0.004342822 -0.0041827 -0.003550858 1000
lala 13 4.8 0 first 4 1 127 6 6.78 0.379997968673706 -1 0 -1 0 -0.003368161 -0.00395273 -0.004486843 1000 1000 1000 -0.003368161 -0.00395273 -0.004486843 1000 1000 1000 -0.006176238 -0.006320345 -0.005450596 -0.004790193 -0.004190718 1000 -0.006176238 -0.006320345 -0.005450596 -0.004790193 -0.004190718 1000
lala 11 1.2 1 first 13 1 128 4 2.52 1.11999726295471 0 1 1 1 -0.003658718 -0.004037393 -0.004147375 1000 1000 1000 -0.003658718 -0.004037393 -0.004147375 1000 1000 1000 -0.005233499 -0.004931985 -0.004920135 -0.005347692 -0.005969459 1000 -0.005233499 -0.004931985 -0.004920135 -0.005347692 -0.005969459 1000
lala 11 0.6 0 second 12 1 129 4 2.04 0.119998216629028 0 0 -1 0 -0.00489522 -0.004560499 -0.004064786 -0.004332244 -0.004762473 1000 -0.00489522 -0.004560499 -0.004064786 -0.004332244 -0.004762473 1000 -0.006743983 -0.006765217 -0.00616166 -0.006043635 -0.006456228 1000 -0.006743983 -0.006765217 -0.00616166 -0.006043635 -0.006456228 1000
lala 9 1.2 0 first 7 1 130 4 1.32 0.299998044967651 1 1 -1 0 -0.00689121 -0.006800735 -0.007233 1000 1000 1000 -0.00689121 -0.006800735 -0.007233 1000 1000 1000 -0.007234422 -0.006772632 -0.006236188 -0.006316239 -0.006984249 1000 -0.007234422 -0.006772632 -0.006236188 -0.006316239 -0.006984249 1000
lala 4 1.2 0 second 1 1 131 4 4.120001 0.01999831199646 -1 1 -1 0 -0.007710388 -0.00730367 -0.007443384 -0.007525946 -0.007882576 1000 -0.007710388 -0.00730367 -0.007443384 -0.007525946 -0.007882576 1000 -0.008057107 -0.007600473 -0.006786109 -0.006420755 -0.006705743 1000 -0.008057107 -0.007600473 -0.006786109 -0.006420755 -0.006705743 1000
lala 12 0.6 1 first 12 1 132 4 2.64 0.439997911453247 0 0 1 0 -0.005949246 -0.006484411 -0.006891728 1000 1000 1000 -0.005949246 -0.006484411 -0.006891728 1000 1000 1000 -0.007387409 -0.007215214 -0.006879595 -0.006786164 -0.007063039 1000 -0.007387409 -0.007215214 -0.006879595 -0.006786164 -0.007063039 1000
lala 10 0.6 1 second 7 1 133 4 1.92 0.61999773979187 1 1 1 1 -0.005670662 -0.006209899 -0.006363043 -0.006454083 -0.006804566 1000 -0.005670662 -0.006209899 -0.006363043 -0.006454083 -0.006804566 1000 -0.006655776 -0.006351259 -0.006558128 -0.00684163 -0.00724647 1000 -0.006655776 -0.006351259 -0.006558128 -0.00684163 -0.00724647 1000
lala 13 0.3 0 first 12 1 134 4 2.34 0.679997682571411 0 0 -1 0 -0.007087875 -0.006951755 -0.006959333 1000 1000 1000 -0.007087875 -0.006951755 -0.006959333 1000 1000 1000 -0.006103629 -0.0057196 -0.005422846 -0.00496585 -0.00550148 1000 -0.006103629 -0.0057196 -0.005422846 -0.00496585 -0.00550148 1000
lala 4 1.2 0 first 3 1 135 5 3.05 0.0399982929229736 -1 1 -1 1 -0.007985872 -0.007436622 -0.007271614 1000 1000 1000 -0.007985872 -0.007436622 -0.007271614 1000 1000 1000 -0.006245052 -0.00733275 -0.00693599 -0.00628292 -0.006302749 1000 -0.006245052 -0.00733275 -0.00693599 -0.00628292 -0.006302749 1000
lala 11 0.3 0 second 7 1 136 4 1.62 0.179998159408569 1 1 -1 0 -0.007719279 -0.008021612 -0.007993476 -0.007577316 -0.007930834 1000 -0.007719279 -0.008021612 -0.007993476 -0.007577316 -0.007930834 1000 -0.00879539 -0.008757304 -0.008336395 -0.007683969 -0.007117997 1000 -0.00879539 -0.008757304 -0.008336395 -0.007683969 -0.007117997 1000
lala 8 1.2 1 first 9 1 137 5 5.45 0.219998121261597 1 1 1 0 -0.006332963 -0.006552567 -0.006907556 1000 1000 1000 -0.006332963 -0.006552567 -0.006907556 1000 1000 1000 -0.008275658 -0.007811964 -0.007631676 -0.008225254 -0.009066273 1000 -0.008275658 -0.007811964 -0.007631676 -0.008225254 -0.009066273 1000
lala 7 1.2 0 second 5 1 138 6 3.180001 0.679997682571411 -1 1 -1 0 -0.006366657 -0.006597182 -0.006856963 -0.007282889 -0.007101122 1000 -0.006366657 -0.006597182 -0.006856963 -0.007282889 -0.007101122 1000 -0.01031096 -0.01159304 -0.01181382 -0.0121206 -0.01278715 1000 -0.01031096 -0.01159304 -0.01181382 -0.0121206 -0.01278715 1000
lala 6 1.2 1 second 10 1 139 6 3.18 0.659997701644897 1 0 1 1 -0.01291471 -0.01317875 -0.01298991 -0.0129879 -0.01266349 1000 -0.01291471 -0.01317875 -0.01298991 -0.0129879 -0.01266349 1000 -0.01166615 -0.0117433 -0.01176368 -0.01198489 -0.01191039 1000 -0.01166615 -0.0117433 -0.01176368 -0.01198489 -0.01191039 1000
lala 9 1.2 1 first 9 1 140 5 4.25 1.03999733924866 1 1 1 1 -0.01458734 -0.01474351 -0.01485755 1000 1000 1000 -0.01458734 -0.01474351 -0.01485755 1000 1000 1000 -0.01388301 -0.0135339 -0.01313385 -0.01349673 -0.01359026 1000 -0.01388301 -0.0135339 -0.01313385 -0.01349673 -0.01359026 1000
lala 12 0.6 0 first 13 1 141 4 1.92 0.739997625350952 0 1 -1 1 -0.01396774 -0.01420492 -0.01439542 1000 1000 1000 -0.01396774 -0.01420492 -0.01439542 1000 1000 1000 -0.0130299 -0.01336973 -0.01343342 -0.01339782 -0.01332116 1000 -0.0130299 -0.01336973 -0.01343342 -0.01339782 -0.01332116 1000
lala 8 1.2 1 second 2 1 142 5 4.5 1.03999733924866 -1 0 1 1 -0.01453382 -0.01482351 -0.01510698 -0.01507461 -0.01494456 1000 -0.01453382 -0.01482351 -0.01510698 -0.01507461 -0.01494456 1000 -0.01274878 -0.012829 -0.01316807 -0.01308186 -0.01283981 1000 -0.01274878 -0.012829 -0.01316807 -0.01308186 -0.01283981 1000
lala 12 0.15 1 first 7 1 143 4 1.77 0.519997835159302 1 1 1 1 -0.01267146 -0.01343587 -0.01438732 1000 1000 1000 -0.01267146 -0.01343587 -0.01438732 1000 1000 1000 -0.01511872 -0.01442836 -0.01355423 -0.01368816 -0.0139475 1000 -0.01511872 -0.01442836 -0.01355423 -0.01368816 -0.0139475 1000
lala 4 1.2 0 first 8 1 144 5 2.1 0.499997854232788 1 0 -1 1 -0.0134572 -0.0131766 -0.01388066 1000 1000 1000 -0.0134572 -0.0131766 -0.01388066 1000 1000 1000 -0.01459799 -0.01424895 -0.01342403 -0.01297586 -0.01272826 1000 -0.01459799 -0.01424895 -0.01342403 -0.01297586 -0.01272826 1000
lala 14 4.8 0 first 4 1 145 6 11.58 0.659997701644897 -1 0 -1 1 -0.01168422 -0.01102804 -0.01101858 1000 1000 1000 -0.01168422 -0.01102804 -0.01101858 1000 1000 1000 -0.01519032 -0.01581578 -0.01651312 -0.0171088 -0.01692623 1000 -0.01519032 -0.01581578 -0.01651312 -0.0171088 -0.01692623 1000
lala 10 2.4 1 second 9 1 146 5 1.85 1.11999726295471 1 1 1 0 -0.01281826 -0.01298911 -0.01302132 -0.01317712 -0.01291343 1000 -0.01281826 -0.01298911 -0.01302132 -0.01317712 -0.01291343 1000 -0.01279507 -0.01350145 -0.01403387 -0.01475552 -0.0155819 1000 -0.01279507 -0.01350145 -0.01403387 -0.01475552 -0.0155819 1000
lala 11 4.8 0 first 9 1 147 5 1.65 0.259998083114624 1 1 -1 0 -0.01283497 -0.01316778 -0.01359737 1000 1000 1000 -0.01283497 -0.01316778 -0.01359737 1000 1000 1000 -0.01362207 -0.01345386 -0.01376587 -0.01455142 -0.01530782 1000 -0.01362207 -0.01345386 -0.01376587 -0.01455142 -0.01530782 1000
lala 10 0.6 0 second 17 1 148 6 2.580001 1.61999702453613 0 1 -1 1 -0.01466132 -0.01446924 -0.01448261 -0.01443802 -0.01415979 1000 -0.01466132 -0.01446924 -0.01448261 -0.01443802 -0.01415979 1000 -0.01317335 -0.01357709 -0.01366768 -0.01377056 -0.01333458 1000 -0.01317335 -0.01357709 -0.01366768 -0.01377056 -0.01333458 1000
lala 5 1.2 0 first 1 1 149 4 5.320001 0.39999794960022 -1 1 -1 0 -0.01429932 -0.01440803 -0.01476487 1000 1000 1000 -0.01429932 -0.01440803 -0.01476487 1000 1000 1000 -0.0150616 -0.01460605 -0.01411346 -0.01441955 -0.01524718 1000 -0.0150616 -0.01460605 -0.01411346 -0.01441955 -0.01524718 1000
lala 7 1.2 0 first 0 1 150 4 1.32 0.859997510910034 -1 0 -1 0 -0.01881834 -0.01876354 -0.01898905 -0.01887293 -0.01883486 -0.01887131 -0.01881834 -0.01876354 -0.01898905 -0.01887293 -0.01883486 -0.01887131 -0.01970301 -0.01962078 -0.01916443 -0.01837927 -0.01825032 1000 -0.01970301 -0.01962078 -0.01916443 -0.01837927 -0.01825032 1000
lala 10 0.6 0 first 15 1 151 5 2.45 0.679997682571411 0 1 -1 0 -0.01740364 -0.01776581 -0.01780955 1000 1000 1000 -0.01740364 -0.01776581 -0.01780955 1000 1000 1000 -0.01977051 -0.01959725 -0.01949414 -0.01960297 -0.0192265 1000 -0.01977051 -0.01959725 -0.01949414 -0.01960297 -0.0192265 1000
lala 13 0.075 0 first 7 1 152 4 1.695 0.419997930526733 1 1 -1 0 -0.01779958 -0.01786713 -0.01766956 1000 1000 1000 -0.01779958 -0.01786713 -0.01766956 1000 1000 1000 -0.01862668 -0.01873039 -0.01861085 -0.01915886 -0.01966963 1000 -0.01862668 -0.01873039 -0.01861085 -0.01915886 -0.01966963 1000
lala 9 1.2 0 first 2 1 153 5 3.3 0.419997930526733 -1 0 -1 1 -0.01955644 -0.0186096 -0.01792007 1000 1000 1000 -0.01955644 -0.0186096 -0.01792007 1000 1000 1000 -0.01732573 -0.01771405 -0.01766178 -0.01735335 -0.01684995 1000 -0.01732573 -0.01771405 -0.01766178 -0.01735335 -0.01684995 1000
lala 8 1.2 0 second 0 1 154 4 2.52 1.21999716758728 -1 0 -1 0 -0.0200109 -0.0194691 -0.01930118 -0.01926862 -0.01948769 1000 -0.0200109 -0.0194691 -0.01930118 -0.01926862 -0.01948769 1000 -0.01847039 -0.01784604 -0.01794496 -0.01811573 -0.01833141 1000 -0.01847039 -0.01784604 -0.01794496 -0.01811573 -0.01833141 1000
lala 13 0.3 0 first 13 1 155 4 2.22 1.03999733924866 0 1 -1 1 -0.01812549 -0.01858545 -0.01849341 1000 1000 1000 -0.01812549 -0.01858545 -0.01849341 1000 1000 1000 -0.02185337 -0.02209919 -0.02168529 -0.02085632 -0.02027022 1000 -0.02185337 -0.02209919 -0.02168529 -0.02085632 -0.02027022 1000
lala 8 1.2 1 first 5 1 156 6 4.380001 0.199998140335083 -1 1 1 1 -0.02099632 -0.02132494 -0.0212474 1000 1000 1000 -0.02099632 -0.02132494 -0.0212474 1000 1000 1000 -0.02092144 -0.02059397 -0.02032045 -0.02061385 -0.02070536 1000 -0.02092144 -0.02059397 -0.02032045 -0.02061385 -0.02070536 1000
lala 13 0.15 1 second 14 1 157 5 3.15 0.979997396469116 0 0 1 1 -0.0184423 -0.01850743 -0.01826407 -0.0182993 -0.01830847 1000 -0.0184423 -0.01850743 -0.01826407 -0.0182993 -0.01830847 1000 -0.01917896 -0.01975574 -0.01985077 -0.02035204 -0.02094754 1000 -0.01917896 -0.01975574 -0.01985077 -0.02035204 -0.02094754 1000
lala 10 0.6 0 first 2 1 158 5 3.9 0.879997491836548 -1 0 -1 0 -0.01764654 -0.01735081 -0.01770965 1000 1000 1000 -0.01764654 -0.01735081 -0.01770965 1000 1000 1000 -0.01855997 -0.01885846 -0.01893125 -0.01854696 -0.01882192 1000 -0.01855997 -0.01885846 -0.01893125 -0.01854696 -0.01882192 1000
lala 6 1.2 1 second 11 1 159 6 4.380001 0.579997777938843 1 1 1 1 -0.0197787 -0.01914921 -0.01921533 -0.01959815 -0.01963093 1000 -0.0197787 -0.01914921 -0.01921533 -0.01959815 -0.01963093 1000 -0.01942444 -0.01875778 -0.01904589 -0.01941858 -0.01932524 1000 -0.01942444 -0.01875778 -0.01904589 -0.01941858 -0.01932524 1000
lala 7 1.2 1 first 16 1 160 6 3.96 1.41999697685242 0 0 1 0 -0.02091185 -0.0214 -0.02214706 1000 1000 1000 -0.02091185 -0.0214 -0.02214706 1000 1000 1000 -0.02047536 -0.02055814 -0.02024717 -0.01979876 -0.01928503 1000 -0.02047536 -0.02055814 -0.02024717 -0.01979876 -0.01928503 1000
lala 6 1.2 1 second 1 1 161 4 6.52 1.97999668121338 -1 1 1 1 -0.02115993 -0.02072956 -0.01971463 -0.01932484 -0.01938205 1000 -0.02115993 -0.02072956 -0.01971463 -0.01932484 -0.01938205 1000 -0.02014012 -0.01997561 -0.0196825 -0.01972055 -0.02038328 1000 -0.02014012 -0.01997561 -0.0196825 -0.01972055 -0.02038328 1000
lala 8 1.2 1 second 16 1 162 6 2.76 1.15999722480774 0 0 1 1 -0.02151847 -0.02136475 -0.02128884 -0.02137837 -0.02100049 1000 -0.02151847 -0.02136475 -0.02128884 -0.02137837 -0.02100049 1000 -0.01949196 -0.01946531 -0.01960783 -0.01960244 -0.01985366 1000 -0.01949196 -0.01946531 -0.01960783 -0.01960244 -0.01985366 1000
lala 6 1.2 1 second 6 1 163 4 3.84 1.57999682426453 1 0 1 0 -0.02093565 -0.02135447 -0.02138448 -0.02128843 -0.02129025 1000 -0.02093565 -0.02135447 -0.02138448 -0.02128843 -0.02129025 1000 -0.02106152 -0.02087639 -0.02068543 -0.02054664 -0.02010588 1000 -0.02106152 -0.02087639 -0.02068543 -0.02054664 -0.02010588 1000
lala 15 4.8 1 first 4 1 164 6 16.38 2.11999654769897 -1 0 1 1 -0.02152746 -0.02136079 -0.02128179 1000 1000 1000 -0.02152746 -0.02136079 -0.02128179 1000 1000 1000 -0.02290151 -0.02303102 -0.02320005 -0.02359411 -0.02390902 1000 -0.02290151 -0.02303102 -0.02320005 -0.02359411 -0.02390902 1000
lala 14 0.0375 0 second 7 1 165 4 1.7325 0.959997415542603 1 1 -1 1 -0.02307985 -0.02342795 -0.0236449 -0.0235252 -0.0233387 1000 -0.02307985 -0.02342795 -0.0236449 -0.0235252 -0.0233387 1000 -0.02445323 -0.02500995 -0.02524169 -0.02555516 -0.0255762 1000 -0.02445323 -0.02500995 -0.02524169 -0.02555516 -0.0255762 1000
lala 7 1.2 1 second 11 1 166 6 3.180001 2.45999622344971 1 1 1 0 -0.02418226 -0.02400875 -0.02384246 -0.0234706 -0.02336083 1000 -0.02418226 -0.02400875 -0.02384246 -0.0234706 -0.02336083 1000 -0.02293904 -0.02253918 -0.02279259 -0.02279406 -0.02276644 1000 -0.02293904 -0.02253918 -0.02279259 -0.02279406 -0.02276644 1000
lala 9 1.2 0 first 0 1 167 4 3.72 1.61999702453613 -1 0 -1 1 -0.02295932 -0.02274088 -0.02236585 1000 1000 1000 -0.02295932 -0.02274088 -0.02236585 1000 1000 1000 -0.02214083 -0.02193367 -0.02219781 -0.022335 -0.02212086 1000 -0.02214083 -0.02193367 -0.02219781 -0.022335 -0.02212086 1000
lala 14 0.15 1 first 12 1 168 4 2.49 1.69999694824219 0 0 1 1 -0.02240415 -0.0220948 -0.02227085 1000 1000 1000 -0.02240415 -0.0220948 -0.02227085 1000 1000 1000 -0.02167511 -0.021544 -0.02159254 -0.02129247 -0.02104077 1000 -0.02167511 -0.021544 -0.02159254 -0.02129247 -0.02104077 1000
lala 16 2.4 1 second 4 1 169 6 13.98 2.87999582290649 -1 0 1 1 -0.02184531 -0.02193582 -0.02177212 -0.02159542 -0.0215138 1000 -0.02184531 -0.02193582 -0.02177212 -0.02159542 -0.0215138 1000 -0.02415772 -0.0244089 -0.02363539 -0.02353041 -0.02391536 1000 -0.02415772 -0.0244089 -0.02363539 -0.02353041 -0.02391536 1000
lala 12 2.4 0 first 9 1 170 5 4.05 2.31999635696411 1 1 -1 1 -0.02080955 -0.02047173 -0.02003597 1000 1000 1000 -0.02080955 -0.02047173 -0.02003597 1000 1000 1000 -0.02034081 -0.02036417 -0.02089051 -0.02122096 -0.0215319 1000 -0.02034081 -0.02036417 -0.02089051 -0.02122096 -0.0215319 1000
lala 5 1.2 1 first 8 1 171 5 3.3 2.23999643325806 1 0 1 1 -0.02360933 -0.024026 -0.02395077 1000 1000 1000 -0.02360933 -0.024026 -0.02395077 1000 1000 1000 -0.01640937 -0.01226587 -0.008046795 -0.002291285 0.005099789 1000 -0.01640937 -0.01226587 -0.008046795 -0.002291285 0.005099789 1000
lala 9 1.2 0 second 16 1 172 6 1.98 0.819997549057007 0 0 -1 1 0.01065231 0.01076779 0.01017179 0.008930056 0.006492771 1000 0.01065231 0.01076779 0.01017179 0.008930056 0.006492771 1000 0.004295035 0.004015469 0.004336881 0.005700126 0.005222003 1000 0.004295035 0.004015469 0.004336881 0.005700126 0.005222003 1000
lala 10 2.4 1 second 0 1 173 4 6.12 0.01999831199646 -1 0 1 0 -0.004511625 -0.004318351 -0.002459879 -0.001541268 -0.001757507 1000 -0.004511625 -0.004318351 -0.002459879 -0.001541268 -0.001757507 1000 -0.00102851 -0.001148972 -0.0008015657 -0.0006709452 -0.001220755 1000 -0.00102851 -0.001148972 -0.0008015657 -0.0006709452 -0.001220755 1000
lala 7 1.2 1 second 1 1 174 4 5.320001 0.01999831199646 -1 1 1 1 -0.002829182 -0.002679725 -0.002985948 -0.003414109 -0.004575554 1000 -0.002829182 -0.002679725 -0.002985948 -0.003414109 -0.004575554 1000 -0.005554985 -0.005827219 -0.005288466 -0.004736198 -0.004420001 1000 -0.005554985 -0.005827219 -0.005288466 -0.004736198 -0.004420001 1000
lala 17 2.4 1 second 4 1 175 6 11.58 0.0399982929229736 -1 0 1 1 -0.003431523 -0.003290586 -0.002970814 -0.002520621 -0.002791745 1000 -0.003431523 -0.003290586 -0.002970814 -0.002520621 -0.002791745 1000 -0.002491651 -0.002986532 -0.00273043 -0.00249553 -0.002983039 1000 -0.002491651 -0.002986532 -0.00273043 -0.00249553 -0.002983039 1000
lala 7 1.2 0 first 6 1 176 4 2.64 0.419997930526733 1 0 -1 0 -0.004680966 -0.004770669 -0.004744001 1000 1000 1000 -0.004680966 -0.004770669 -0.004744001 1000 1000 1000 -0.0008623012 -0.001279563 -0.001010404 -0.0004242218 0.0001549435 1000 -0.0008623012 -0.001279563 -0.001010404 -0.0004242218 0.0001549435 1000
lala 11 1.2 1 first 0 1 177 4 4.92 0.499997854232788 -1 0 1 0 -0.0004226931 -0.0004678358 -0.0008438993 1000 1000 1000 -0.0004226931 -0.0004678358 -0.0008438993 1000 1000 1000 -0.0002747593 0.0002355214 0.001270335 0.001516473 0.001854629 1000 -0.0002747593 0.0002355214 0.001270335 0.001516473 0.001854629 1000
lala 10 0.6 1 first 16 1 178 6 2.58 0.01999831199646 0 0 1 1 0.003123485 0.003713401 0.00357302 1000 1000 1000 0.003123485 0.003713401 0.00357302 1000 1000 1000 0.004451753 0.004382678 0.004276766 0.004101004 0.004250627 1000 0.004451753 0.004382678 0.004276766 0.004101004 0.004250627 1000
lala 11 0.6 1 second 15 1 179 5 3.05 0.319998025894165 0 1 1 0 0.007436582 0.007109771 0.007031456 0.00687859 0.006776523 1000 0.007436582 0.007109771 0.007031456 0.00687859 0.006776523 1000 0.008020861 0.008663293 0.008426719 0.008160654 0.008310964 1000 0.008020861 0.008663293 0.008426719 0.008160654 0.008310964 1000
lala 15 0.0375 0 second 7 1 180 4 1.77 2.89999580383301 1 1 -1 1 0.007817509 0.007688454 0.007510682 0.007122078 0.007626756 1000 0.007817509 0.007688454 0.007510682 0.007122078 0.007626756 1000 0.007094941 0.00727665 0.007249188 0.007097404 0.00659739 1000 0.007094941 0.00727665 0.007249188 0.007097404 0.00659739 1000
lala 6 1.2 1 second 8 1 181 5 2.1 0.539997816085815 1 0 1 0 0.00911435 0.008956493 0.009063352 0.008823611 0.008965244 1000 0.00911435 0.008956493 0.009063352 0.008823611 0.008965244 1000 0.009561854 0.009786732 0.01003312 0.00983355 0.009685811 1000 0.009561854 0.009786732 0.01003312 0.00983355 0.009685811 1000
lala 11 0.3 1 second 17 1 182 6 2.880001 0.39999794960022 0 1 1 1 0.009430622 0.009187857 0.009293123 0.009251641 0.009425288 1000 0.009430622 0.009187857 0.009293123 0.009251641 0.009425288 1000 0.009214499 0.009218228 0.008758319 0.008591171 0.008386082 1000 0.009214499 0.009218228 0.008758319 0.008591171 0.008386082 1000
lala 9 1.2 0 first 5 1 183 6 3.180001 0.61999773979187 -1 1 -1 0 0.008840417 0.008748816 0.007367133 1000 1000 1000 0.008840417 0.008748816 0.007367133 1000 1000 1000 0.007522844 0.007112716 0.007614059 0.008376599 0.00960621 1000 0.007522844 0.007112716 0.007614059 0.008376599 0.00960621 1000
lala 10 0.6 0 second 5 1 184 6 3.780001 0.539997816085815 -1 1 -1 0 0.008222084 0.007789827 0.00773731 0.007933565 0.008591619 1000 0.008222084 0.007789827 0.00773731 0.007933565 0.008591619 1000 0.007296797 0.007037633 0.006614274 0.006382672 0.006635694 1000 0.007296797 0.007037633 0.006614274 0.006382672 0.006635694 1000
lala 8 1.2 1 first 1 1 185 4 4.120001 0.179998159408569 -1 1 1 0 0.01057382 0.01022633 0.00975391 1000 1000 1000 0.01057382 0.01022633 0.00975391 1000 1000 1000 0.002818312 0.002512968 0.002684177 0.002843844 0.003084801 1000 0.002818312 0.002512968 0.002684177 0.002843844 0.003084801 1000
lala 12 0.15 0 second 17 1 186 6 2.730001 0.99999737739563 0 1 -1 1 0.00173846 0.002259454 0.003183848 0.003655299 0.003782196 1000 0.00173846 0.002259454 0.003183848 0.003655299 0.003782196 1000 0.002902998 0.002607118 0.001999778 -1.913059E-06 -0.001103395 1000 0.002902998 0.002607118 0.001999778 -1.913059E-06 -0.001103395 1000
lala 15 0.075 1 second 12 1 187 4 2.415 0.459997892379761 0 0 1 0 -0.002943299 -0.002730299 -0.002931103 -0.002879566 -0.002632067 1000 -0.002943299 -0.002730299 -0.002931103 -0.002879566 -0.002632067 1000 -0.0002590196 -0.0006796946 -0.0007046725 -0.0006552656 -0.0005131828 1000 -0.0002590196 -0.0006796946 -0.0007046725 -0.0006552656 -0.0005131828 1000
lala 13 0.075 0 second 17 1 188 6 2.805001 0.579997777938843 0 1 -1 1 -0.002033481 -0.002162212 -0.002071838 -0.001618411 -0.001907425 1000 -0.002033481 -0.002162212 -0.002071838 -0.001618411 -0.001907425 1000 -0.001899843 -0.002078245 -0.001884935 -0.001053214 -0.0002667083 1000 -0.001899843 -0.002078245 -0.001884935 -0.001053214 -0.0002667083 1000
lala 18 2.4 1 second 4 1 189 6 9.180002 0.119998216629028 -1 0 1 1 0.0001617252 -0.0002815487 -6.573831E-05 -0.000143957 8.630656E-05 1000 0.0001617252 -0.0002815487 -6.573831E-05 -0.000143957 8.630656E-05 1000 -0.002154639 -0.001975137 -0.00239985 -0.002459358 -0.002298527 1000 -0.002154639 -0.001975137 -0.00239985 -0.002459358 -0.002298527 1000
lala 8 1.2 1 first 6 1 190 4 3.84 2.53999614715576 1 0 1 1 -0.001300124 -0.0008233901 -0.0003084995 1000 1000 1000 -0.001300124 -0.0008233901 -0.0003084995 1000 1000 1000 0.000778027 0.000427202 0.0003664197 4.117081E-05 0.0001173224 1000 0.000778027 0.000427202 0.0003664197 4.117081E-05 0.0001173224 1000
lala 12 1.2 1 second 0 1 191 4 3.72 0.419997930526733 -1 0 1 0 0.001126126 0.001596231 0.002127351 0.001599495 0.0009429448 1000 0.001126126 0.001596231 0.002127351 0.001599495 0.0009429448 1000 -0.0008230446 -0.001319837 -0.001184035 -0.0005466328 -5.348174E-05 1000 -0.0008230446 -0.001319837 -0.001184035 -0.0005466328 -5.348174E-05 1000
lala 16 0.075 1 second 12 1 192 4 2.34 0.01999831199646 0 0 1 1 0.002037087 0.001595553 0.001231547 0.0009849037 0.0008018555 1000 0.002037087 0.001595553 0.001231547 0.0009849037 0.0008018555 1000 0.0009192258 0.00100528 0.0005784195 0.0004446577 -0.0001607147 1000 0.0009192258 0.00100528 0.0005784195 0.0004446577 -0.0001607147 1000
lala 9 1.2 1 second 1 1 193 4 2.920001 0.0999982357025146 -1 1 1 0 -0.0009982033 -0.0007994439 -0.0008626836 -0.00119465 -0.00117869 1000 -0.0009982033 -0.0007994439 -0.0008626836 -0.00119465 -0.00117869 1000 0.0009267151 0.001647313 0.001836062 0.001583746 0.001188925 1000 0.0009267151 0.001647313 0.001836062 0.001583746 0.001188925 1000
lala 16 0.0375 0 first 7 1 194 4 1.8075 0.559997797012329 1 1 -1 1 -0.008713716 -0.00987113 -0.009881055 1000 1000 1000 -0.008713716 -0.00987113 -0.009881055 1000 1000 1000 -0.02135939 -0.02200365 -0.02180588 -0.02122002 -0.02082605 1000 -0.02135939 -0.02200365 -0.02180588 -0.02122002 -0.02082605 1000
lala 7 1.2 0 second 10 1 195 6 1.98 1.55999684333801 1 0 -1 1 -0.02200799 -0.02169989 -0.02081683 -0.01967859 -0.01816095 1000 -0.02200799 -0.02169989 -0.02081683 -0.01967859 -0.01816095 1000 -0.01275811 -0.01268189 -0.01270275 -0.01298541 -0.01310343 1000 -0.01275811 -0.01268189 -0.01270275 -0.01298541 -0.01310343 1000
lala 14 0.15 0 first 14 1 196 5 3 0.0399982929229736 0 0 -1 0 -0.01100962 -0.01109315 -0.01080468 1000 1000 1000 -0.01100962 -0.01109315 -0.01080468 1000 1000 1000 -0.009196945 -0.009107721 -0.009044006 -0.009018625 -0.00925955 1000 -0.009196945 -0.009107721 -0.009044006 -0.009018625 -0.00925955 1000
lala 10 2.4 0 first 1 1 197 4 1.32 0.01999831199646 -1 1 -1 0 -0.01172226 -0.01199521 -0.01143403 1000 1000 1000 -0.01172226 -0.01199521 -0.01143403 1000 1000 1000 -0.005752647 -0.005439824 -0.005147694 -0.004772932 -0.004404014 1000 -0.005752647 -0.005439824 -0.005147694 -0.004772932 -0.004404014 1000
lala 12 0.3 1 first 15 1 198 5 2.75 0.299998044967651 0 1 1 1 -0.004464237 -0.003952742 -0.003679077 1000 1000 1000 -0.004464237 -0.003952742 -0.003679077 1000 1000 1000 -0.001478622 -0.001785614 -0.002124134 -0.002211773 -0.002066585 1000 -0.001478622 -0.001785614 -0.002124134 -0.002211773 -0.002066585 1000
lala 14 0.3 0 first 13 1 199 4 2.52 0.599997758865356 0 1 -1 1 -0.0008857713 -0.0005754121 -0.0006092312 1000 1000 1000 -0.0008857713 -0.0005754121 -0.0006092312 1000 1000 1000 0.0007665544 0.001242675 0.002058655 0.002039619 0.001788129 1000 0.0007665544 0.001242675 0.002058655 0.002039619 0.001788129 1000
lala 13 0.3 0 first 15 1 200 5 2.45 0.739997625350952 0 1 -1 1 -0.01551991 -0.01441688 -0.01316784 -0.01272172 -0.01221572 -0.01118574 -0.01551991 -0.01441688 -0.01316784 -0.01272172 -0.01221572 -0.01118574 -0.005661148 -0.005607531 -0.005581216 -0.005655722 -0.00534678 1000 -0.005661148 -0.005607531 -0.005581216 -0.005655722 -0.00534678 1000
lala 8 1.2 1 second 10 1 201 6 3.18 0.259998083114624 1 0 1 0 -0.004365367 -0.004363881 -0.004363853 -0.004506827 -0.004279654 1000 -0.004365367 -0.004363881 -0.004363853 -0.004506827 -0.004279654 1000 -0.003048014 -0.003181152 -0.003338739 -0.003592197 -0.003272115 1000 -0.003048014 -0.003181152 -0.003338739 -0.003592197 -0.003272115 1000
lala 5 1.2 0 second 3 1 202 5 4.25 0.219998121261597 -1 1 -1 1 -2.883906E-05 0.0004629331 0.0004094042 0.0002799857 0.0005939736 1000 -2.883906E-05 0.0004629331 0.0004094042 0.0002799857 0.0005939736 1000 0.001000377 0.0032375 0.002146356 0.001042394 0.001569417 1000 0.001000377 0.0032375 0.002146356 0.001042394 0.001569417 1000
lala 13 1.2 0 first 0 1 203 4 2.52 0.639997720718384 -1 0 -1 0 0.001131418 0.001820133 0.003248735 1000 1000 1000 0.001131418 0.001820133 0.003248735 1000 1000 1000 0.004041343 0.003662877 0.004058123 0.003953279 0.004043222 1000 0.004041343 0.003662877 0.004058123 0.003953279 0.004043222 1000
lala 17 0.075 0 second 12 1 204 4 2.265 1.25999712944031 0 0 -1 1 0.004393817 0.004790487 0.004740168 0.004771264 0.004386276 1000 0.004393817 0.004790487 0.004740168 0.004771264 0.004386276 1000 0.005756204 0.006493791 0.006404541 0.006414288 0.006589848 1000 0.005756204 0.006493791 0.006404541 0.006414288 0.006589848 1000
lala 11 0.6 1 first 2 1 205 5 4.5 0.639997720718384 -1 0 1 0 0.006773964 0.006417002 0.006078938 1000 1000 1000 0.006773964 0.006417002 0.006078938 1000 1000 1000 0.007358223 0.007827722 0.008429654 0.008700318 0.008735982 1000 0.007358223 0.007827722 0.008429654 0.008700318 0.008735982 1000
lala 9 1.2 0 first 6 1 206 4 2.64 0.539997816085815 1 0 -1 0 0.009938377 0.009849732 0.009288594 1000 1000 1000 0.009938377 0.009849732 0.009288594 1000 1000 1000 0.008659139 0.008854647 0.009430231 0.009319963 0.008986623 1000 0.008659139 0.008854647 0.009430231 0.009319963 0.008986623 1000
lala 15 0.075 1 second 14 1 207 5 3.075 0.339998006820679 0 0 1 1 0.01091187 0.01133042 0.01211185 0.01210884 0.01171148 1000 0.01091187 0.01133042 0.01211185 0.01210884 0.01171148 1000 0.009637771 0.009515081 0.009875216 0.01019135 0.0101387 1000 0.009637771 0.009515081 0.009875216 0.01019135 0.0101387 1000
lala 13 2.4 1 first 9 1 208 5 6.45 0.319998025894165 1 1 1 0 0.01157585 0.01197594 0.01211363 1000 1000 1000 0.01157585 0.01197594 0.01211363 1000 1000 1000 0.01372298 0.01368795 0.01382575 0.01384982 0.01410035 1000 0.01372298 0.01368795 0.01382575 0.01384982 0.01410035 1000
lala 11 1.2 0 first 1 1 209 4 2.52 0.379997968673706 -1 1 -1 0 0.01365423 0.01344574 0.01333069 1000 1000 1000 0.01365423 0.01344574 0.01333069 1000 1000 1000 0.01641956 0.01706667 0.01727249 0.01725376 0.01687133 1000 0.01641956 0.01706667 0.01727249 0.01725376 0.01687133 1000
lala 17 0.075 0 first 7 1 210 4 1.8825 0.279998064041138 1 1 -1 0 0.01802767 0.01841225 0.01777065 1000 1000 1000 0.01802767 0.01841225 0.01777065 1000 1000 1000 0.01597027 0.01572304 0.01601237 0.01656885 0.0177094 1000 0.01597027 0.01572304 0.01601237 0.01656885 0.0177094 1000
lala 14 1.2 1 first 9 1 211 5 5.25 0.01999831199646 1 1 1 1 0.01778422 0.01739054 0.01691398 1000 1000 1000 0.01778422 0.01739054 0.01691398 1000 1000 1000 0.01574973 0.01559427 0.01590922 0.01641621 0.01657576 1000 0.01574973 0.01559427 0.01590922 0.01641621 0.01657576 1000
lala 16 0.0375 0 second 14 1 212 5 3.0375 0.39999794960022 0 0 -1 1 0.0166339 0.01761385 0.01831624 0.01836361 0.0175226 1000 0.0166339 0.01761385 0.01831624 0.01836361 0.0175226 1000 0.01743407 0.01808891 0.0182947 0.01771264 0.01668866 1000 0.01743407 0.01808891 0.0182947 0.01771264 0.01668866 1000
lala 17 0.01875 1 first 14 1 213 5 3.05625 0.499997854232788 0 0 1 0 0.01288487 0.01276306 0.01194466 1000 1000 1000 0.01288487 0.01276306 0.01194466 1000 1000 1000 0.01516647 0.01526396 0.01549254 0.01503006 0.01434881 1000 0.01516647 0.01526396 0.01549254 0.01503006 0.01434881 1000
lala 14 0.15 0 first 15 1 214 5 2.6 0.01999831199646 0 1 -1 1 0.0160791 0.01617191 0.0154958 1000 1000 1000 0.0160791 0.01617191 0.0154958 1000 1000 1000 0.01433118 0.01431113 0.01424087 0.01476273 0.01563225 1000 0.01433118 0.01431113 0.01424087 0.01476273 0.01563225 1000
lala 10 0.6 1 second 6 1 215 4 3.24 0.01999831199646 1 0 1 0 0.01646195 0.01656516 0.01637569 0.01595903 0.01615914 1000 0.01646195 0.01656516 0.01637569 0.01595903 0.01615914 1000 0.01612301 0.01530039 0.01506612 0.01507777 0.0147525 1000 0.01612301 0.01530039 0.01506612 0.01507777 0.0147525 1000
lala 12 0.3 1 first 2 1 216 5 4.2 0.279998064041138 -1 0 1 0 0.01477381 0.01456083 0.01500429 1000 1000 1000 0.01477381 0.01456083 0.01500429 1000 1000 1000 0.01700583 0.01755404 0.01733765 0.01708049 0.01719498 1000 0.01700583 0.01755404 0.01733765 0.01708049 0.01719498 1000
lala 13 0.3 0 first 2 1 217 5 3.9 0.259998083114624 -1 0 -1 1 0.01640004 0.0161972 0.01598683 1000 1000 1000 0.01640004 0.0161972 0.01598683 1000 1000 1000 0.01476882 0.01445088 0.01414755 0.01437863 0.01521039 1000 0.01476882 0.01445088 0.01414755 0.01437863 0.01521039 1000
lala 14 0.6 0 second 0 1 218 4 3.12 0.299998044967651 -1 0 -1 1 0.01478285 0.01504919 0.01481696 0.01411514 0.01363276 1000 0.01478285 0.01504919 0.01481696 0.01411514 0.01363276 1000 0.01418118 0.0147849 0.01488177 0.01473895 0.01470547 1000 0.01418118 0.0147849 0.01488177 0.01473895 0.01470547 1000
lala 11 0.3 0 first 6 1 219 4 2.94 0.159998178482056 1 0 -1 1 0.01512301 0.01546657 0.01494069 1000 1000 1000 0.01512301 0.01546657 0.01494069 1000 1000 1000 0.01274625 0.01289777 0.01322981 0.01384874 0.01373253 1000 0.01274625 0.01289777 0.01322981 0.01384874 0.01373253 1000
lala 18 0.009375 0 second 14 1 220 5 3.046875 0.339998006820679 0 0 -1 1 0.01530792 0.01516811 0.01507909 0.01463159 0.01461349 1000 0.01530792 0.01516811 0.01507909 0.01463159 0.01461349 1000 0.01381521 0.01347068 0.01333675 0.01337489 0.01331815 1000 0.01381521 0.01347068 0.01333675 0.01337489 0.01331815 1000
lala 7 1.2 0 second 8 1 221 5 1.65 0.219998121261597 1 0 -1 1 0.008713179 0.009298367 0.01060692 0.01007151 0.008543308 1000 0.008713179 0.009298367 0.01060692 0.01007151 0.008543308 1000 0.009313977 0.009527059 0.00999649 0.01031132 0.009728071 1000 0.009313977 0.009527059 0.00999649 0.01031132 0.009728071 1000
lala 8 1.2 0 second 8 1 222 5 2.85 0.219998121261597 1 0 -1 0 0.007615275 0.006991417 0.007164778 0.00648707 0.005038194 1000 0.007615275 0.006991417 0.007164778 0.00648707 0.005038194 1000 0.006124932 0.006783577 0.006955432 0.006879556 0.007161004 1000 0.006124932 0.006783577 0.006955432 0.006879556 0.007161004 1000
lala 9 1.2 0 first 10 1 223 6 1.98 0.459997892379761 1 0 -1 0 0.008987799 0.008864542 0.008685996 1000 1000 1000 0.008987799 0.008864542 0.008685996 1000 1000 1000 0.009354647 0.00910809 0.009455853 0.009818861 0.0102131 1000 0.009354647 0.00910809 0.009455853 0.009818861 0.0102131 1000
lala 10 0.6 0 first 10 1 224 6 2.58 0.179998159408569 1 0 -1 0 0.00904114 0.009715643 0.010505 1000 1000 1000 0.00904114 0.009715643 0.010505 1000 1000 1000 0.007706302 0.007228011 0.007120053 0.007388435 0.007534633 1000 0.007706302 0.007228011 0.007120053 0.007388435 0.007534633 1000
lala 15 0.3 0 first 13 1 225 4 2.82 0.39999794960022 0 1 -1 1 0.005821637 0.005991272 0.005698056 1000 1000 1000 0.005821637 0.005991272 0.005698056 1000 1000 1000 0.009183411 0.00899212 0.009237039 0.009579422 0.009437503 1000 0.009183411 0.00899212 0.009237039 0.009579422 0.009437503 1000
lala 19 4.8 0 first 4 1 226 6 4.380002 0.079998254776001 -1 0 -1 0 0.007731332 0.007760135 0.008047564 1000 1000 1000 0.007731332 0.007760135 0.008047564 1000 1000 1000 0.006420545 0.006678819 0.006572449 0.00610489 0.006311871 1000 0.006420545 0.006678819 0.006572449 0.00610489 0.006311871 1000
lala 12 1.2 0 first 1 1 227 4 3.72 0.01999831199646 -1 1 -1 0 0.007552793 0.007755557 0.00806337 1000 1000 1000 0.007552793 0.007755557 0.00806337 1000 1000 1000 0.006700476 0.006141841 0.006077047 0.006252841 0.006636307 1000 0.006700476 0.006141841 0.006077047 0.006252841 0.006636307 1000
lala 11 0.6 1 first 5 1 228 6 4.380001 0.01999831199646 -1 1 1 1 0.004291591 0.005021383 0.006181378 1000 1000 1000 0.004291591 0.005021383 0.006181378 1000 1000 1000 0.00782721 0.008142892 0.008532221 0.009121114 0.009058739 1000 0.00782721 0.008142892 0.008532221 0.009121114 0.009058739 1000
lala 13 1.2 1 first 1 1 229 4 4.92 0.159998178482056 -1 1 1 1 0.009336958 0.009212977 0.008611673 1000 1000 1000 0.009336958 0.009212977 0.008611673 1000 1000 1000 0.006491561 0.006188731 0.006356347 0.006906646 0.007736697 1000 0.006491561 0.006188731 0.006356347 0.006906646 0.007736697 1000
lala 16 0.6 1 second 13 1 230 4 3.42 0.299998044967651 0 1 1 0 0.003074304 0.002239808 0.001819233 0.00184173 0.001674296 1000 0.003074304 0.002239808 0.001819233 0.00184173 0.001674296 1000 -0.003327766 -0.004146299 -0.004383201 -0.004284014 -0.004642174 1000 -0.003327766 -0.004146299 -0.004383201 -0.004284014 -0.004642174 1000
lala 14 0.075 1 first 17 1 231 6 2.880001 1.37999701499939 0 1 1 0 -0.004447001 -0.004122626 -0.003704608 1000 1000 1000 -0.004447001 -0.004122626 -0.003704608 1000 1000 1000 -0.002781838 -0.0021569 -0.001533495 -0.002092744 -0.002830489 1000 -0.002781838 -0.0021569 -0.001533495 -0.002092744 -0.002830489 1000
lala 12 0.15 0 second 6 1 232 4 3.09 1.29999709129334 1 0 -1 1 -0.008833197 -0.009437191 -0.008748002 -0.009216922 -0.01040565 1000 -0.008833197 -0.009437191 -0.008748002 -0.009216922 -0.01040565 1000 -0.01666404 -0.01653995 -0.01679857 -0.01727928 -0.0173054 1000 -0.01666404 -0.01653995 -0.01679857 -0.01727928 -0.0173054 1000
lala 20 2.4 1 second 4 1 233 6 6.780002 1.01999735832214 -1 0 1 1 -0.01972811 -0.01996248 -0.02005186 -0.02025888 -0.02030377 1000 -0.01972811 -0.01996248 -0.02005186 -0.02025888 -0.02030377 1000 -0.01864623 -0.01831995 -0.01847114 -0.01860448 -0.01889381 1000 -0.01864623 -0.01831995 -0.01847114 -0.01860448 -0.01889381 1000
lala 18 0.15 0 first 7 1 234 4 2.0325 0.01999831199646 1 1 -1 1 -0.01859047 -0.01809817 -0.01790513 1000 1000 1000 -0.01859047 -0.01809817 -0.01790513 1000 1000 1000 -0.01893213 -0.01907571 -0.01915036 -0.01877481 -0.01832074 1000 -0.01893213 -0.01907571 -0.01915036 -0.01877481 -0.01832074 1000
lala 19 0.0046875 1 first 14 1 235 5 3.051562 0.01999831199646 0 0 1 0 -0.01403054 -0.01416602 -0.01431371 1000 1000 1000 -0.01403054 -0.01416602 -0.01431371 1000 1000 1000 -0.01376784 -0.01405058 -0.01374409 -0.0131541 -0.0127502 1000 -0.01376784 -0.01405058 -0.01374409 -0.0131541 -0.0127502 1000
lala 13 0.15 1 second 6 1 236 4 3.24 2.57999610900879 1 0 1 1 -0.01273629 -0.0131559 -0.01304595 -0.01235396 -0.01165837 1000 -0.01273629 -0.0131559 -0.01304595 -0.01235396 -0.01165837 1000 -0.009801775 -0.00994972 -0.009717866 -0.009231777 -0.008406341 1000 -0.009801775 -0.00994972 -0.009717866 -0.009231777 -0.008406341 1000
lala 8 1.2 0 second 11 1 237 6 1.980001 0.219998121261597 1 1 -1 1 -0.007639118 -0.007514607 -0.007593549 -0.007259149 -0.00704352 1000 -0.007639118 -0.007514607 -0.007593549 -0.007259149 -0.00704352 1000 -0.007631014 -0.008298332 -0.008387197 -0.008718973 -0.008457431 1000 -0.007631014 -0.008298332 -0.008387197 -0.008718973 -0.008457431 1000
lala 15 1.2 0 first 9 1 238 5 4.05 0.0599982738494873 1 1 -1 0 -0.01057442 -0.009072991 -0.00815221 1000 1000 1000 -0.01057442 -0.009072991 -0.00815221 1000 1000 1000 -0.009874103 -0.009360847 -0.007822471 -0.007729319 -0.008580384 1000 -0.009874103 -0.009360847 -0.007822471 -0.007729319 -0.008580384 1000
lala 16 0.6 0 first 9 1 239 5 4.65 0.299998044967651 1 1 -1 0 -0.009135711 -0.009702233 -0.01054762 1000 1000 1000 -0.009135711 -0.009702233 -0.01054762 1000 1000 1000 -0.02571679 -0.02410485 -0.02157963 -0.02021018 -0.02021453 1000 -0.02571679 -0.02410485 -0.02157963 -0.02021018 -0.02021453 1000
lala 12 0.3 0 second 5 1 240 6 4.080001 0.01999831199646 -1 1 -1 1 -0.01947691 -0.01838659 -0.0187743 -0.01854869 -0.01807982 1000 -0.01947691 -0.01838659 -0.0187743 -0.01854869 -0.01807982 1000 -0.015073 -0.01417135 -0.01377899 -0.01373122 -0.01351665 1000 -0.015073 -0.01417135 -0.01377899 -0.01373122 -0.01351665 1000
lala 15 0.6 0 second 0 1 241 4 3.72 0.0399982929229736 -1 0 -1 0 -0.01083131 -0.01037897 -0.01042662 -0.01029353 -0.01000119 1000 -0.01083131 -0.01037897 -0.01042662 -0.01029353 -0.01000119 1000 -0.007374848 -0.007538585 -0.007626486 -0.007247618 -0.006818497 1000 -0.007374848 -0.007538585 -0.007626486 -0.007247618 -0.006818497 1000
lala 19 0.3 0 second 7 1 242 4 2.3325 0.159998178482056 1 1 -1 1 -0.007017081 -0.007082691 -0.006904087 -0.006197906 -0.005578207 1000 -0.007017081 -0.007082691 -0.006904087 -0.006197906 -0.005578207 1000 -0.00611067 -0.005941357 -0.005462546 -0.004829451 -0.004030741 1000 -0.00611067 -0.005941357 -0.005462546 -0.004829451 -0.004030741 1000
lala 9 1.2 1 first 8 1 243 5 4.05 0.01999831199646 1 0 1 1 -0.003089146 -0.003124158 -0.003291968 1000 1000 1000 -0.003089146 -0.003124158 -0.003291968 1000 1000 1000 -0.002904681 -0.003232106 -0.003752573 -0.004259092 -0.004474186 1000 -0.002904681 -0.003232106 -0.003752573 -0.004259092 -0.004474186 1000
lala 21 1.2 1 first 4 1 244 6 5.580002 0.01999831199646 -1 0 1 1 -0.004500523 -0.005155196 -0.004488754 1000 1000 1000 -0.004500523 -0.005155196 -0.004488754 1000 1000 1000 -0.001555266 -0.001349722 -0.001506688 -0.001209667 -0.001138501 1000 -0.001555266 -0.001349722 -0.001506688 -0.001209667 -0.001138501 1000
lala 11 0.3 0 second 16 1 245 6 2.28 0.01999831199646 0 0 -1 1 -0.002562844 -0.002126757 -0.00217532 -0.002031214 -0.00193707 1000 -0.002562844 -0.002126757 -0.00217532 -0.002031214 -0.00193707 1000 4.9675E-05 0.0006227802 0.001016884 0.0006700833 0.0004185268 1000 4.9675E-05 0.0006227802 0.001016884 0.0006700833 0.0004185268 1000
lala 10 0.6 1 first 8 1 246 5 3.45 0.419997930526733 1 0 1 0 0.0005052807 0.0001388184 -0.0003161665 1000 1000 1000 0.0005052807 0.0001388184 -0.0003161665 1000 1000 1000 -0.0009864188 -0.0006213878 0.0003266615 -1.818518E-05 -0.0004800762 1000 -0.0009864188 -0.0006213878 0.0003266615 -1.818518E-05 -0.0004800762 1000
lala 20 0.00234375 0 first 14 1 247 5 3.049218 0.359997987747192 0 0 -1 0 0.002353759 0.002212009 0.001629801 1000 1000 1000 0.002353759 0.002212009 0.001629801 1000 1000 1000 0.000935053 0.00125472 0.00175923 0.002571882 0.00215311 1000 0.000935053 0.00125472 0.00175923 0.002571882 0.00215311 1000
lala 20 0.6 0 first 7 1 248 4 2.9325 0.01999831199646 1 1 -1 1 0.002988049 0.004083395 0.005165393 1000 1000 1000 0.002988049 0.004083395 0.005165393 1000 1000 1000 0.006384267 0.005417123 0.004688209 0.005207193 0.006207712 1000 0.006384267 0.005417123 0.004688209 0.005207193 0.006207712 1000
lala 13 0.15 0 second 5 1 249 6 4.230001 2.71999597549438 -1 1 -1 1 0.005383728 0.006113057 0.006800237 0.007310777 0.007440629 1000 0.005383728 0.006113057 0.006800237 0.007310777 0.007440629 1000 0.009061943 0.0096752 0.01024375 0.01039847 0.01031332 1000 0.009061943 0.0096752 0.01024375 0.01039847 0.01031332 1000
lala 12 0.15 0 second 16 1 250 6 2.43 0.179998159408569 0 0 -1 1 -0.01086667 -0.008348358 -0.006719972 -0.005487176 -0.005015789 1000 -0.01086667 -0.008348358 -0.006719972 -0.005487176 -0.005015789 1000 -0.005601884 -0.005383166 -0.005156989 -0.005205596 -0.004576953 1000 -0.005601884 -0.005383166 -0.005156989 -0.005205596 -0.004576953 1000
lala 14 0.15 0 second 2 1 251 5 4.05 0.559997797012329 -1 0 -1 0 -0.002093203 -0.002155461 -0.001962065 -0.001564761 -0.0006630031 1000 -0.002093203 -0.002155461 -0.001962065 -0.001564761 -0.0006630031 1000 -0.0007982152 -0.001009532 -0.001765284 -0.002732626 -0.003195205 1000 -0.0007982152 -0.001009532 -0.001765284 -0.002732626 -0.003195205 1000
lala 17 0.6 1 first 9 1 252 5 5.25 0.01999831199646 1 1 1 1 -0.002632264 -0.003100983 -0.00273789 1000 1000 1000 -0.002632264 -0.003100983 -0.00273789 1000 1000 1000 0.001382357 0.001443467 0.001487066 0.001474456 0.001562415 1000 0.001382357 0.001443467 0.001487066 0.001474456 0.001562415 1000
lala 14 0.15 1 second 5 1 253 6 4.380001 4.87999391555786 -1 1 1 1 0.003626556 0.003833331 0.003582729 0.003326253 0.002880693 1000 0.003626556 0.003833331 0.003582729 0.003326253 0.002880693 1000 0.003212331 0.00404128 0.004235232 0.003908468 0.003560156 1000 0.003212331 0.00404128 0.004235232 0.003908468 0.003560156 1000
lala 6 1.2 1 second 3 1 254 5 5.45 0.01999831199646 -1 1 1 0 0.004745814 0.004523074 0.004473812 0.004487414 0.005201677 1000 0.004745814 0.004523074 0.004473812 0.004487414 0.005201677 1000 0.004725406 0.004677064 0.004484871 0.004454776 0.004359056 1000 0.004725406 0.004677064 0.004484871 0.004454776 0.004359056 1000
lala 21 0.001171875 0 second 14 1 255 5 3.05039 0.259998083114624 0 0 -1 1 0.005388457 0.003251925 0.002884706 0.002186548 0.001726788 1000 0.005388457 0.003251925 0.002884706 0.002186548 0.001726788 1000 0.0009213486 0.003292198 0.004552105 0.003003626 0.001441357 1000 0.0009213486 0.003292198 0.004552105 0.003003626 0.001441357 1000
lala 15 0.075 1 first 5 1 256 6 4.305001 0.01999831199646 -1 1 1 0 0.002483858 0.002022717 0.001070966 1000 1000 1000 0.002483858 0.002022717 0.001070966 1000 1000 1000 0.002006935 0.001752753 0.001254077 0.001405963 0.00150352 1000 0.002006935 0.001752753 0.001254077 0.001405963 0.00150352 1000
lala 11 0.6 0 first 10 1 257 6 3.18 0.0599982738494873 1 0 -1 0 0.0009872816 0.00118679 0.001554615 1000 1000 1000 0.0009872816 0.00118679 0.001554615 1000 1000 1000 0.0009830352 0.0006833535 0.0007818185 0.001051696 0.0004720059 1000 0.0009830352 0.0006833535 0.0007818185 0.001051696 0.0004720059 1000
lala 14 0.075 1 first 6 1 258 4 3.165 0.219998121261597 1 0 1 1 0.00223407 0.002379845 0.002328462 1000 1000 1000 0.00223407 0.002379845 0.002328462 1000 1000 1000 0.001808155 0.002575108 0.002280037 0.001932071 0.001616313 1000 0.001808155 0.002575108 0.002280037 0.001932071 0.001616313 1000
lala 11 0.6 0 first 8 1 259 5 2.85 0.01999831199646 1 0 -1 1 0.003526463 0.003289708 0.00414572 1000 1000 1000 0.003526463 0.003289708 0.00414572 1000 1000 1000 0.002407233 0.002003495 0.002204119 0.002854937 0.003121191 1000 0.002407233 0.002003495 0.002204119 0.002854937 0.003121191 1000
lala 17 0.3 1 first 13 1 260 4 3.12 0.079998254776001 0 1 1 0 0.002562651 0.00241141 0.002164613 1000 1000 1000 0.002562651 0.00241141 0.002164613 1000 1000 1000 0.001879495 0.001743454 0.002042337 0.002824152 0.002855283 1000 0.001879495 0.001743454 0.002042337 0.002824152 0.002855283 1000
lala 9 1.2 0 first 11 1 261 6 3.180001 0.0599982738494873 1 1 -1 1 0.003903487 0.00388787 0.003670254 1000 1000 1000 0.003903487 0.00388787 0.003670254 1000 1000 1000 0.005429667 0.005048466 0.004929302 0.004776566 0.004423065 1000 0.005429667 0.005048466 0.004929302 0.004776566 0.004423065 1000
lala 15 0.0375 0 second 17 1 262 6 2.842501 0.339998006820679 0 1 -1 0 0.004475477 0.004232534 0.004141358 0.003978172 0.004031819 1000 0.004475477 0.004232534 0.004141358 0.003978172 0.004031819 1000 0.005631556 0.005597148 0.005384305 0.005371566 0.005566737 1000 0.005631556 0.005597148 0.005384305 0.005371566 0.005566737 1000
lala 21 1.2 0 first 7 1 263 4 4.132501 2.41999626159668 1 1 -1 0 0.004930608 0.004762068 0.004511748 1000 1000 1000 0.004930608 0.004762068 0.004511748 1000 1000 1000 0.003811514 0.003993068 0.004098606 0.003790169 0.003411256 1000 0.003811514 0.003993068 0.004098606 0.003790169 0.003411256 1000
lala 16 0.075 0 second 5 1 264 6 4.230001 0.01999831199646 -1 1 -1 0 0.005255434 0.004842476 0.004276106 0.00381289 0.003874046 1000 0.005255434 0.004842476 0.004276106 0.00381289 0.003874046 1000 0.004801115 0.005129556 0.005208264 0.005197683 0.005517583 1000 0.004801115 0.005129556 0.005208264 0.005197683 0.005517583 1000
lala 15 0.15 1 second 15 1 265 5 2.75 0.259998083114624 0 1 1 1 0.006004329 0.005269699 0.00515229 0.005355606 0.005840108 1000 0.006004329 0.005269699 0.00515229 0.005355606 0.005840108 1000 0.005373887 0.004853281 0.00434533 0.004717616 0.005037883 1000 0.005373887 0.004853281 0.00434533 0.004717616 0.005037883 1000
lala 16 0.6 1 second 0 1 266 4 4.32 0.01999831199646 -1 0 1 1 0.007177893 0.007504915 0.007349283 0.007254068 0.007119669 1000 0.007177893 0.007504915 0.007349283 0.007254068 0.007119669 1000 0.006365864 0.006771138 0.006427895 0.006425895 0.00590009 1000 0.006365864 0.006771138 0.006427895 0.006425895 0.00590009 1000
lala 22 1.2 1 first 4 1 267 6 4.380002 0.01999831199646 -1 0 1 1 0.004309706 0.003511782 0.003839991 1000 1000 1000 0.004309706 0.003511782 0.003839991 1000 1000 1000 0.007068892 0.006872195 0.006520479 0.006696763 0.00704127 1000 0.007068892 0.006872195 0.006520479 0.006696763 0.00704127 1000
lala 22 2.4 1 second 7 1 268 4 6.532501 0.199998140335083 1 1 1 0 0.006274929 0.006361426 0.006775581 0.007175347 0.007611366 1000 0.006274929 0.006361426 0.006775581 0.007175347 0.007611366 1000 0.005171434 0.005302239 0.005688564 0.006345175 0.007046669 1000 0.005171434 0.005302239 0.005688564 0.006345175 0.007046669 1000
lala 16 0.075 1 first 15 1 269 5 2.675 0.01999831199646 0 1 1 1 0.005972958 0.005163728 0.004658827 1000 1000 1000 0.005972958 0.005163728 0.004658827 1000 1000 1000 0.0009938454 0.0008085247 0.001366175 0.001230136 0.0005723355 1000 0.0009938454 0.0008085247 0.001366175 0.001230136 0.0005723355 1000
lala 22 0.001171875 1 first 14 1 270 5 3.051562 0.159998178482056 0 0 1 0 -0.0003645086 -0.0009635428 -0.001980423 1000 1000 1000 -0.0003645086 -0.0009635428 -0.001980423 1000 1000 1000 0.002045477 0.002346482 0.00175506 0.002183268 0.002203961 1000 0.002045477 0.002346482 0.00175506 0.002183268 0.002203961 1000
lala 17 0.0375 1 first 5 1 271 6 4.267501 0.759997606277466 -1 1 1 1 0.0004092249 0.001220467 0.001821356 1000 1000 1000 0.0004092249 0.001220467 0.001821356 1000 1000 1000 0.001455277 0.001456997 0.0006980826 0.000722928 0.0005684257 1000 0.001455277 0.001456997 0.0006980826 0.000722928 0.0005684257 1000
lala 15 0.075 1 second 6 1 272 4 3.09 0.599997758865356 1 0 1 0 -0.003948145 -0.00405978 -0.003049618 -0.002955128 -0.003194732 1000 -0.003948145 -0.00405978 -0.003049618 -0.002955128 -0.003194732 1000 -0.003252371 -0.003923247 -0.003736231 -0.003272772 -0.003103091 1000 -0.003252371 -0.003923247 -0.003736231 -0.003272772 -0.003103091 1000
lala 14 0.6 1 first 1 1 273 4 4.32 0.199998140335083 -1 1 1 0 -0.0003469056 0.0008004364 0.0009566137 1000 1000 1000 -0.0003469056 0.0008004364 0.0009566137 1000 1000 1000 -0.000845852 -0.0003889317 -0.0001694525 -0.0006143617 -0.0008562838 1000 -0.000845852 -0.0003889317 -0.0001694525 -0.0006143617 -0.0008562838 1000
lala 18 0.3 1 second 9 1 274 5 4.95 1.0999972820282 1 1 1 1 -0.001276903 -0.001243261 -0.0007301346 -0.0002037189 -0.0002754848 1000 -0.001276903 -0.001243261 -0.0007301346 -0.0002037189 -0.0002754848 1000 -0.0008308861 -0.0003419581 0.0007258493 0.001308555 0.001159303 1000 -0.0008308861 -0.0003419581 0.0007258493 0.001308555 0.001159303 1000
lala 18 0.3 1 first 13 1 275 4 2.82 0.579997777938843 0 1 1 0 0.002186524 0.001608335 0.001210638 1000 1000 1000 0.002186524 0.001608335 0.001210638 1000 1000 1000 -0.0005898299 -0.00058936 -0.0005231252 0.0003982013 0.0007944333 1000 -0.0005898299 -0.00058936 -0.0005231252 0.0003982013 0.0007944333 1000
lala 17 0.075 0 first 15 1 276 5 2.6 0.0399982929229736 0 1 -1 0 0.001447956 0.00173844 0.0007762008 1000 1000 1000 0.001447956 0.00173844 0.0007762008 1000 1000 1000 -0.002988174 -0.002739155 -0.002506602 -0.002271842 -0.002392755 1000 -0.002988174 -0.002739155 -0.002506602 -0.002271842 -0.002392755 1000
lala 18 0.01875 1 first 5 1 277 6 4.248751 0.159998178482056 -1 1 1 0 -0.002172865 -0.002611195 -0.003169395 1000 1000 1000 -0.002172865 -0.002611195 -0.003169395 1000 1000 1000 -0.003751376 -0.004008122 -0.004269669 -0.004460233 -0.005177543 1000 -0.003751376 -0.004008122 -0.004269669 -0.004460233 -0.005177543 1000
lala 19 0.3 0 first 13 1 278 4 2.52 0.379997968673706 0 1 -1 0 -0.02012703 -0.01987434 -0.02268866 1000 1000 1000 -0.02012703 -0.01987434 -0.02268866 1000 1000 1000 -0.02084752 -0.02063527 -0.01909476 -0.01809374 -0.01799722 1000 -0.02084752 -0.02063527 -0.01909476 -0.01809374 -0.01799722 1000
lala 23 1.2 1 second 7 1 279 4 5.3325 2.31999635696411 1 1 1 0 -0.0178511 -0.0180288 -0.01758436 -0.01778295 -0.01871689 1000 -0.0178511 -0.0180288 -0.01758436 -0.01778295 -0.01871689 1000 -0.02099607 -0.02020358 -0.01984974 -0.01975841 -0.019216 1000 -0.02099607 -0.02020358 -0.01984974 -0.01975841 -0.019216 1000
lala 23 1.2 0 second 4 1 280 6 3.180002 1.17999720573425 -1 0 -1 0 -0.01453738 -0.01439354 -0.01446166 -0.01432111 -0.01392497 1000 -0.01453738 -0.01439354 -0.01446166 -0.01432111 -0.01392497 1000 -0.01353811 -0.01336006 -0.0137176 -0.01349584 -0.01303043 1000 -0.01353811 -0.01336006 -0.0137176 -0.01349584 -0.01303043 1000
lala 24 0.6 1 first 4 1 281 6 3.780002 0.119998216629028 -1 0 1 0 -0.0136711 -0.01362801 -0.01368667 1000 1000 1000 -0.0136711 -0.01362801 -0.01368667 1000 1000 1000 -0.01260046 -0.0124083 -0.01213622 -0.01156854 -0.01179708 1000 -0.01260046 -0.0124083 -0.01213622 -0.01156854 -0.01179708 1000
lala 16 0.075 1 first 6 1 282 4 3.015 2.35999631881714 1 0 1 0 -0.01108431 -0.01098831 -0.01127239 1000 1000 1000 -0.01108431 -0.01098831 -0.01127239 1000 1000 1000 -0.01001046 -0.009275189 -0.009251829 -0.009749567 -0.009897026 1000 -0.01001046 -0.009275189 -0.009251829 -0.009749567 -0.009897026 1000
lala 18 0.0375 1 first 15 1 283 5 2.6375 0.659997701644897 0 1 1 1 -0.007531121 -0.007782069 -0.007882277 1000 1000 1000 -0.007531121 -0.007782069 -0.007882277 1000 1000 1000 -0.005471756 -0.005206689 -0.00554459 -0.005847089 -0.006133212 1000 -0.005471756 -0.005206689 -0.00554459 -0.005847089 -0.006133212 1000
lala 20 0.15 0 second 13 1 284 4 2.67 0.01999831199646 0 1 -1 1 -0.005714175 -0.005999809 -0.005933494 -0.006573896 -0.006395181 1000 -0.005714175 -0.005999809 -0.005933494 -0.006573896 -0.006395181 1000 -0.004515812 -0.004780183 -0.005320851 -0.005590607 -0.005363769 1000 -0.004515812 -0.004780183 -0.005320851 -0.005590607 -0.005363769 1000
lala 19 0.01875 1 second 15 1 285 5 2.61875 0.99999737739563 0 1 1 1 -0.004749188 -0.00479152 -0.004986238 -0.004658186 -0.003961757 1000 -0.004749188 -0.00479152 -0.004986238 -0.004658186 -0.003961757 1000 -0.00372818 -0.004082748 -0.004328414 -0.00421213 -0.003853139 1000 -0.00372818 -0.004082748 -0.004328414 -0.00421213 -0.003853139 1000
lala 23 0.0005859375 0 first 14 1 286 5 3.050976 0.759997606277466 0 0 -1 1 -0.002276131 -0.00238016 -0.002171101 1000 1000 1000 -0.002276131 -0.00238016 -0.002171101 1000 1000 1000 -0.002276171 -0.002617234 -0.002751088 -0.00325716 -0.003298272 1000 -0.002276171 -0.002617234 -0.002751088 -0.00325716 -0.003298272 1000
lala 7 1.2 1 second 3 1 287 5 4.25 1.51999688148499 -1 1 1 0 -0.003104741 -0.003522611 -0.003563994 -0.003705049 -0.00332085 1000 -0.003104741 -0.003522611 -0.003563994 -0.003705049 -0.00332085 1000 -0.003254219 -0.003588965 -0.003505959 -0.00299881 -0.002714289 1000 -0.003254219 -0.003588965 -0.003505959 -0.00299881 -0.002714289 1000
lala 10 1.2 0 first 11 1 288 6 4.380001 0.679997682571411 1 1 -1 0 -0.002092984 -0.002494751 -0.002549804 1000 1000 1000 -0.002092984 -0.002494751 -0.002549804 1000 1000 1000 -0.0009100559 -0.0008591162 -0.00130982 -0.00185099 -0.002160442 1000 -0.0009100559 -0.0008591162 -0.00130982 -0.00185099 -0.002160442 1000
lala 24 1.2 1 second 7 1 289 4 4.132501 1.81999683380127 1 1 1 0 0.001004339 0.0009072298 -0.0002535322 -0.003082506 -0.003739288 1000 0.001004339 0.0009072298 -0.0002535322 -0.003082506 -0.003739288 1000 -0.0006223604 -0.0001904306 0.000430712 0.0003022016 0.0001014145 1000 -0.0006223604 -0.0001904306 0.000430712 0.0003022016 0.0001014145 1000
lala 16 0.01875 0 second 17 1 290 6 2.861251 1.35999703407288 0 1 -1 1 0.004382294 0.004209612 0.003981507 0.003938161 0.004371962 1000 0.004382294 0.004209612 0.003981507 0.003938161 0.004371962 1000 0.007325375 0.006601552 0.006049947 0.00549715 0.005318166 1000 0.007325375 0.006601552 0.006049947 0.00549715 0.005318166 1000
lala 17 0.3 1 first 0 1 291 4 4.02 0.259998083114624 -1 0 1 1 0.008749422 0.009328804 0.009473657 1000 1000 1000 0.008749422 0.009328804 0.009473657 1000 1000 1000 0.008813579 0.009056004 0.009351524 0.009948256 0.01004368 1000 0.008813579 0.009056004 0.009351524 0.009948256 0.01004368 1000
lala 19 0.3 1 second 9 1 292 5 4.65 3.97999477386475 1 1 1 0 0.01121795 0.01153825 0.01142087 0.01085868 0.01051733 1000 0.01121795 0.01153825 0.01142087 0.01085868 0.01051733 1000 0.0103803 0.01063697 0.01037965 0.01026729 0.009505781 1000 0.0103803 0.01063697 0.01037965 0.01026729 0.009505781 1000
lala 15 0.15 1 second 2 1 293 5 4.2 0.419997930526733 -1 0 1 1 0.007652625 0.008361758 0.009269537 0.008950416 0.008646993 1000 0.007652625 0.008361758 0.009269537 0.008950416 0.008646993 1000 0.008924904 0.009212039 0.009805659 0.009550195 0.009115033 1000 0.008924904 0.009212039 0.009805659 0.009550195 0.009115033 1000
lala 24 0.0002929688 1 second 14 1 294 5 3.051269 0.01999831199646 0 0 1 0 0.007709797 0.007556942 0.007766139 0.008151387 0.008433024 1000 0.007709797 0.007556942 0.007766139 0.008151387 0.008433024 1000 0.006786634 0.006866695 0.007539607 0.00824191 0.008567935 1000 0.006786634 0.006866695 0.007539607 0.00824191 0.008567935 1000
lala 12 0.3 0 first 8 1 295 5 3.15 8.4800591468811 1 0 -1 1 0.009253366 0.008847708 0.007659604 1000 1000 1000 0.009253366 0.008847708 0.007659604 1000 1000 1000 0.007513443 0.008388253 0.008870812 0.008240603 0.007745334 1000 0.007513443 0.008388253 0.008870812 0.008240603 0.007745334 1000
lala 13 0.15 1 second 16 1 296 6 2.58 0.01999831199646 0 0 1 1 0.002853937 0.00298234 0.002928241 0.0029662 0.003479292 1000 0.002853937 0.00298234 0.002928241 0.0029662 0.003479292 1000 0.004503994 0.004077114 0.003919642 0.003404951 0.003443033 1000 0.004503994 0.004077114 0.003919642 0.003404951 0.003443033 1000
lala 20 0.3 1 first 9 1 297 5 4.349999 0.01999831199646 1 1 1 0 0.003253056 0.003083561 0.003493899 1000 1000 1000 0.003253056 0.003083561 0.003493899 1000 1000 1000 0.005052851 0.004821737 0.005240888 0.005754737 0.006615944 1000 0.005052851 0.004821737 0.005240888 0.005754737 0.006615944 1000
lala 20 0.01875 0 second 15 1 298 5 2.6 0.0399982929229736 0 1 -1 0 0.007206636 0.007234637 0.007530688 0.00774131 0.007589703 1000 0.007206636 0.007234637 0.007530688 0.00774131 0.007589703 1000 0.007898941 0.008391886 0.009144455 0.008992618 0.008608047 1000 0.007898941 0.008391886 0.009144455 0.008992618 0.008608047 1000
lala 25 1.2 0 first 7 1 299 4 2.932501 0.23999810218811 1 1 -1 0 0.00767909 0.00753699 0.007287027 1000 1000 1000 0.00767909 0.00753699 0.007287027 1000 1000 1000 0.008228167 0.008662844 0.009061475 0.009081144 0.00884333 1000 0.008228167 0.008662844 0.009061475 0.009081144 0.00884333 1000
lala 17 0.15 1 second 6 1 300 4 2.865 0.459997892379761 1 0 1 1 -0.009589657 -0.008777663 -0.008445591 -0.009185527 -0.009377499 1000 -0.009589657 -0.008777663 -0.008445591 -0.009185527 -0.009377499 1000 -0.0133203 -0.01428528 -0.01475054 -0.01525295 -0.01574345 1000 -0.0133203 -0.01428528 -0.01475054 -0.01525295 -0.01574345 1000
lala 13 0.3 0 first 8 1 301 5 3.45 0.179998159408569 1 0 -1 1 -0.01899216 -0.02023825 -0.02195351 1000 1000 1000 -0.01899216 -0.02023825 -0.02195351 1000 1000 1000 -0.02253875 -0.02196797 -0.02200561 -0.02226189 -0.02250383 1000 -0.02253875 -0.02196797 -0.02200561 -0.02226189 -0.02250383 1000
lala 19 0.01875 0 second 5 1 302 6 4.230001 0.279998064041138 -1 1 -1 1 -0.01566377 -0.01630126 -0.01651526 -0.01638794 -0.01568002 1000 -0.01566377 -0.01630126 -0.01651526 -0.01638794 -0.01568002 1000 -0.01631426 -0.01622657 -0.01610693 -0.01571486 -0.01593748 1000 -0.01631426 -0.01622657 -0.01610693 -0.01571486 -0.01593748 1000
lala 11 2.4 0 second 11 1 303 6 6.780001 0.0599982738494873 1 1 -1 1 -0.01623671 -0.01640461 -0.0169304 -0.01723644 -0.01756188 1000 -0.01623671 -0.01640461 -0.0169304 -0.01723644 -0.01756188 1000 -0.01671876 -0.01558139 -0.01463444 -0.01437396 -0.01416018 1000 -0.01671876 -0.01558139 -0.01463444 -0.01437396 -0.01416018 1000
lala 12 4.8 1 first 11 1 304 6 11.58 0.01999831199646 1 1 1 1 -0.01408846 -0.01437018 -0.01481261 1000 1000 1000 -0.01408846 -0.01437018 -0.01481261 1000 1000 1000 -0.01449391 -0.01423277 -0.01374307 -0.01411116 -0.01452814 1000 -0.01449391 -0.01423277 -0.01374307 -0.01411116 -0.01452814 1000
lala 21 0.6 0 second 9 1 305 5 3.75 0.379997968673706 1 1 -1 0 -0.01544607 -0.01530023 -0.01441561 -0.0137348 -0.01344587 1000 -0.01544607 -0.01530023 -0.01441561 -0.0137348 -0.01344587 1000 -0.01408072 -0.01395762 -0.0133833 -0.01315058 -0.01353762 1000 -0.01408072 -0.01395762 -0.0133833 -0.01315058 -0.01353762 1000
lala 22 0.3 1 second 9 1 306 5 4.05 0.179998159408569 1 1 1 1 -0.01349925 -0.01394997 -0.01343362 -0.01281047 -0.01219862 1000 -0.01349925 -0.01394997 -0.01343362 -0.01281047 -0.01219862 1000 -0.01251247 -0.01217304 -0.01151721 -0.01088058 -0.01069895 1000 -0.01251247 -0.01217304 -0.01151721 -0.01088058 -0.01069895 1000
lala 8 1.2 0 second 3 1 307 5 3.05 0.079998254776001 -1 1 -1 0 -0.01003723 -0.01031936 -0.01056789 -0.01068521 -0.01079062 1000 -0.01003723 -0.01031936 -0.01056789 -0.01068521 -0.01079062 1000 -0.008114381 -0.007294378 -0.007035996 -0.007180624 -0.006985779 1000 -0.008114381 -0.007294378 -0.007035996 -0.007180624 -0.006985779 1000
lala 26 0.6 1 second 7 1 308 4 3.532501 1.37999701499939 1 1 1 0 -0.0142919 -0.01327924 -0.0125006 -0.01200982 -0.01119891 1000 -0.0142919 -0.01327924 -0.0125006 -0.01200982 -0.01119891 1000 -0.01203975 -0.01247288 -0.01260589 -0.01237127 -0.01257862 1000 -0.01203975 -0.01247288 -0.01260589 -0.01237127 -0.01257862 1000
lala 21 0.15 1 first 13 1 309 4 2.82 0.139998197555542 0 1 1 0 -0.01086215 -0.01082518 -0.01120496 1000 1000 1000 -0.01086215 -0.01082518 -0.01120496 1000 1000 1000 -0.008057576 -0.008845647 -0.009586269 -0.008563857 -0.007847494 1000 -0.008057576 -0.008845647 -0.009586269 -0.008563857 -0.007847494 1000
lala 14 0.3 1 first 8 1 310 5 3.75 0.01999831199646 1 0 1 1 -0.008544051 -0.009678599 -0.01061976 1000 1000 1000 -0.008544051 -0.009678599 -0.01061976 1000 1000 1000 -0.008771918 -0.009095901 -0.009363189 -0.009179761 -0.008851273 1000 -0.008771918 -0.009095901 -0.009363189 -0.009179761 -0.008851273 1000
lala 18 0.3 1 first 6 1 311 4 2.565 2.51999616622925 1 0 1 1 -0.01354306 -0.01450316 -0.01560843 1000 1000 1000 -0.01354306 -0.01450316 -0.01560843 1000 1000 1000 -0.01626541 -0.01558591 -0.01553057 -0.01563741 -0.01556968 1000 -0.01626541 -0.01558591 -0.01553057 -0.01563741 -0.01556968 1000
lala 25 0.3 1 second 4 1 312 6 3.480002 0.01999831199646 -1 0 1 0 -0.01074267 -0.009884659 -0.009137889 -0.009289728 -0.009915639 1000 -0.01074267 -0.009884659 -0.009137889 -0.009289728 -0.009915639 1000 -0.009395217 -0.009654302 -0.009275023 -0.008894973 -0.009224252 1000 -0.009395217 -0.009654302 -0.009275023 -0.008894973 -0.009224252 1000
lala 20 0.009375 1 second 5 1 313 6 4.239376 0.01999831199646 -1 1 1 0 -0.008967392 -0.009868762 -0.009816665 -0.009561778 -0.009988667 1000 -0.008967392 -0.009868762 -0.009816665 -0.009561778 -0.009988667 1000 -0.009505942 -0.01193717 -0.01248179 -0.01239529 -0.01292714 1000 -0.009505942 -0.01193717 -0.01248179 -0.01239529 -0.01292714 1000
lala 19 0.6 1 second 6 1 314 4 1.965 0.0399982929229736 1 0 1 0 -0.0145166 -0.01413463 -0.01554222 -0.01675175 -0.01785934 1000 -0.0145166 -0.01413463 -0.01554222 -0.01675175 -0.01785934 1000 -0.01786023 -0.01769022 -0.01709814 -0.01710891 -0.01724239 1000 -0.01786023 -0.01769022 -0.01709814 -0.01710891 -0.01724239 1000
lala 12 0.6 1 second 10 1 315 6 3.78 0.759997606277466 1 0 1 1 -0.01165086 -0.01294652 -0.01422033 -0.01377259 -0.01282637 1000 -0.01165086 -0.01294652 -0.01422033 -0.01377259 -0.01282637 1000 -0.009923751 -0.009777022 -0.00934232 -0.008833789 -0.008230354 1000 -0.009923751 -0.009777022 -0.00934232 -0.008833789 -0.008230354 1000
lala 18 0.0375 0 second 12 1 316 4 2.3025 0.99999737739563 0 0 -1 0 -0.006070007 -0.005996437 -0.005996231 -0.005620812 -0.004757585 1000 -0.006070007 -0.005996437 -0.005996231 -0.005620812 -0.004757585 1000 -0.005777345 -0.006767442 -0.007029297 -0.007018218 -0.006926937 1000 -0.005777345 -0.006767442 -0.007029297 -0.007018218 -0.006926937 1000
lala 17 0.01875 1 first 17 1 317 6 2.880001 1.41999697685242 0 1 1 0 -0.002412427 -0.002649068 -0.002772665 1000 1000 1000 -0.002412427 -0.002649068 -0.002772665 1000 1000 1000 -0.004464608 -0.004653421 -0.004579614 -0.004630114 -0.005128828 1000 -0.004464608 -0.004653421 -0.004579614 -0.004630114 -0.005128828 1000
lala 15 0.15 1 second 8 1 318 5 3.6 0.859997510910034 1 0 1 1 -0.01036064 -0.01039676 -0.01066141 -0.01097823 -0.01095373 1000 -0.01036064 -0.01039676 -0.01066141 -0.01097823 -0.01095373 1000 -0.01298362 -0.01391889 -0.01445874 -0.01502042 -0.01520038 1000 -0.01298362 -0.01391889 -0.01445874 -0.01502042 -0.01520038 1000
lala 21 0.0046875 1 first 5 1 319 6 4.234689 0.279998064041138 -1 1 1 0 -0.01258242 -0.01135013 -0.01156268 1000 1000 1000 -0.01258242 -0.01135013 -0.01156268 1000 1000 1000 -0.01469282 -0.01449759 -0.01433325 -0.01413662 -0.01454249 1000 -0.01469282 -0.01449759 -0.01433325 -0.01413662 -0.01454249 1000
lala 22 0.075 1 first 13 1 320 4 2.745 0.079998254776001 0 1 1 1 -0.01757889 -0.01755396 -0.01717684 1000 1000 1000 -0.01757889 -0.01755396 -0.01717684 1000 1000 1000 -0.01302426 -0.01285143 -0.01269193 -0.01265865 -0.01290315 1000 -0.01302426 -0.01285143 -0.01269193 -0.01265865 -0.01290315 1000
lala 9 1.2 1 second 3 1 321 5 4.25 0.01999831199646 -1 1 1 0 -0.01687555 -0.01663707 -0.01553972 -0.01520037 -0.01612446 1000 -0.01687555 -0.01663707 -0.01553972 -0.01520037 -0.01612446 1000 -0.01832133 -0.01817525 -0.01731765 -0.01697691 -0.01689945 1000 -0.01832133 -0.01817525 -0.01731765 -0.01697691 -0.01689945 1000
lala 22 0.0046875 0 first 5 1 322 6 4.230001 1.49999690055847 -1 1 -1 1 -0.01576801 -0.0157785 -0.01585768 1000 1000 1000 -0.01576801 -0.0157785 -0.01585768 1000 1000 1000 -0.01503019 -0.01469669 -0.01432976 -0.01413158 -0.01490032 1000 -0.01503019 -0.01469669 -0.01432976 -0.01413158 -0.01490032 1000
lala 23 0.075 0 first 13 1 323 4 2.67 0.0999982357025146 0 1 -1 1 -0.01232728 -0.01257293 -0.01252606 1000 1000 1000 -0.01232728 -0.01257293 -0.01252606 1000 1000 1000 -0.01230918 -0.01295968 -0.01347378 -0.01407046 -0.01450274 1000 -0.01230918 -0.01295968 -0.01347378 -0.01407046 -0.01450274 1000
lala 27 0.3 0 second 7 1 324 4 3.232501 0.119998216629028 1 1 -1 1 -0.01347926 -0.01373569 -0.0148134 -0.0148531 -0.01371076 1000 -0.01347926 -0.01373569 -0.0148134 -0.0148531 -0.01371076 1000 -0.01266545 -0.01195508 -0.01185455 -0.01191441 -0.01173487 1000 -0.01266545 -0.01195508 -0.01185455 -0.01191441 -0.01173487 1000
