subject PestNr Step_Size_OnTrial Pest_Faster Pest_Interval Condition block trial velH velH_Pest Reaction_Time velH_Subject Start_Above Response_MotionEstimation RightOrLeftxRotations_first0 xRotations_first1 xRotations_first2 xRotations_first3 xRotations_first4 xRotations_first5 yRotations_first0 yRotations_first1 yRotations_first2 yRotations_first3 yRotations_first4 yRotations_first5 xRotations_second0 xRotations_second1 xRotations_second2 xRotations_second3 xRotations_second4 xRotations_second5 yRotations_second0 yRotations_second1 yRotations_second2 yRotations_second3 yRotations_second4 yRotations_second5
lala 1 1.2 0 first 12 1 1 4 2.64 0.39999794960022 0 0 -1 1 0.01902903 0.01631725 0.00943354 0.002243967 -0.0006255897 -0.003563476 0.01902903 0.01631725 0.00943354 0.002243967 -0.0006255897 -0.003563476 0.0002081992 0.0007829533 0.0019322 0.002732138 0.002855082 1000 0.0002081992 0.0007829533 0.0019322 0.002732138 0.002855082 1000
lala 1 1.2 1 first 10 1 2 6 3.96 2.43999624252319 1 0 1 0 0.001475574 0.001045179 0.001263471 1000 1000 1000 0.001475574 0.001045179 0.001263471 1000 1000 1000 0.003379678 0.003528701 0.004086366 0.004007315 0.004205602 1000 0.003379678 0.003528701 0.004086366 0.004007315 0.004205602 1000
lala 1 1.2 1 second 17 1 3 6 7.98 0.299998044967651 0 1 1 1 0.005339851 0.005464528 0.005584835 0.005378041 0.005250549 1000 0.005339851 0.005464528 0.005584835 0.005378041 0.005250549 1000 0.006231186 0.006797462 0.006829917 0.00702284 0.007504424 1000 0.006231186 0.006797462 0.006829917 0.00702284 0.007504424 1000
lala 2 1.2 0 first 17 1 4 6 6.780001 0.639997720718384 0 1 -1 1 0.007736101 0.007818888 0.008376617 1000 1000 1000 0.007736101 0.007818888 0.008376617 1000 1000 1000 0.006986011 0.006954629 0.00707966 0.007533841 0.008364776 1000 0.006986011 0.006954629 0.00707966 0.007533841 0.008364776 1000
lala 1 1.2 1 second 7 1 5 4 5.32 0.679997682571411 1 1 1 0 0.008248575 0.008992938 0.009070116 0.009003737 0.008924908 1000 0.008248575 0.008992938 0.009070116 0.009003737 0.008924908 1000 0.008314947 0.008610668 0.009397432 0.009601925 0.009783179 1000 0.008314947 0.008610668 0.009397432 0.009601925 0.009783179 1000
lala 1 1.2 0 first 2 1 6 5 3.3 0.919997453689575 -1 0 -1 1 0.003121444 0.0017939 0.001574648 1000 1000 1000 0.003121444 0.0017939 0.001574648 1000 1000 1000 -0.0007468901 -0.001903675 -0.003349138 -0.001466968 0.0005212777 1000 -0.0007468901 -0.001903675 -0.003349138 -0.001466968 0.0005212777 1000
lala 1 1.2 1 second 13 1 7 4 5.32 0.439997911453247 0 1 1 0 -0.02460202 -0.02450598 -0.02402225 -0.02342554 -0.022356 1000 -0.02460202 -0.02450598 -0.02402225 -0.02342554 -0.022356 1000 0.004540906 0.00968744 0.01280715 0.01451377 0.01399545 1000 0.004540906 0.00968744 0.01280715 0.01451377 0.01399545 1000
lala 1 1.2 1 second 3 1 8 5 6.65 0.259998083114624 -1 1 1 1 0.01672233 0.01707326 0.01754612 0.01731241 0.01695036 1000 0.01672233 0.01707326 0.01754612 0.01731241 0.01695036 1000 0.01675924 0.01650512 0.01705956 0.01717324 0.01690222 1000 0.01675924 0.01650512 0.01705956 0.01717324 0.01690222 1000
lala 1 1.2 1 second 1 1 9 4 5.32 0.659997701644897 -1 1 1 1 0.02407513 0.02386554 0.02341614 0.02277721 0.02240095 1000 0.02407513 0.02386554 0.02341614 0.02277721 0.02240095 1000 0.02335705 0.02321877 0.02343623 0.02350045 0.02341737 1000 0.02335705 0.02321877 0.02343623 0.02350045 0.02341737 1000
lala 1 1.2 1 second 15 1 10 5 6.65 0.119998216629028 0 1 1 1 0.02337714 0.02328208 0.02309365 0.02301721 0.02288081 1000 0.02337714 0.02328208 0.02309365 0.02301721 0.02288081 1000 0.0231666 0.02331686 0.02435047 0.02415969 0.02418818 1000 0.0231666 0.02331686 0.02435047 0.02415969 0.02418818 1000
lala 1 1.2 0 first 0 1 11 4 2.64 0.699997663497925 -1 0 -1 0 0.02388371 0.02356076 0.02366043 1000 1000 1000 0.02388371 0.02356076 0.02366043 1000 1000 1000 0.0241498 0.02363176 0.02357558 0.02349151 0.02351031 1000 0.0241498 0.02363176 0.02357558 0.02349151 0.02351031 1000
lala 1 1.2 1 first 5 1 12 6 7.98 0.379997968673706 -1 1 1 1 0.02378616 0.02421309 0.0239851 1000 1000 1000 0.02378616 0.02421309 0.0239851 1000 1000 1000 0.01642716 0.01774908 0.01771382 0.01855733 0.01796217 1000 0.01642716 0.01774908 0.01771382 0.01855733 0.01796217 1000
lala 2 1.2 0 second 12 1 13 4 3.84 0.839997529983521 0 0 -1 1 0.01414451 0.01264758 0.0118578 0.01314554 0.01420263 1000 0.01414451 0.01264758 0.0118578 0.01314554 0.01420263 1000 0.01482091 0.01435247 0.01456729 0.01450577 0.01445612 1000 0.01482091 0.01435247 0.01456729 0.01450577 0.01445612 1000
lala 2 1.2 1 second 13 1 14 4 4.12 0.679997682571411 0 1 1 0 0.0156058 0.0155556 0.01530608 0.0152619 0.01497662 1000 0.0156058 0.0155556 0.01530608 0.0152619 0.01497662 1000 0.01508644 0.01551026 0.01566804 0.01573139 0.01576342 1000 0.01508644 0.01551026 0.01566804 0.01573139 0.01576342 1000
lala 2 1.2 0 first 2 1 15 5 4.5 1.43999695777893 -1 0 -1 1 0.01503437 0.0151087 0.01529161 1000 1000 1000 0.01503437 0.0151087 0.01529161 1000 1000 1000 0.01532749 0.01518776 0.01544084 0.0158191 0.01532883 1000 0.01532749 0.01518776 0.01544084 0.0158191 0.01532883 1000
lala 1 1.2 0 first 14 1 16 5 3.3 0.479997873306274 0 0 -1 0 0.01452484 0.01468028 0.01450062 1000 1000 1000 0.01452484 0.01468028 0.01450062 1000 1000 1000 0.0142101 0.01375835 0.01359923 0.01397902 0.01448315 1000 0.0142101 0.01375835 0.01359923 0.01397902 0.01448315 1000
lala 2 1.2 0 second 10 1 17 6 2.76 0.939997434616089 1 0 -1 1 0.004194364 -2.189994E-05 -0.005374307 -0.00371213 -0.001199158 1000 0.004194364 -2.189994E-05 -0.005374307 -0.00371213 -0.001199158 1000 0.03070891 0.0351589 0.04026324 0.03482811 0.02534956 1000 0.03070891 0.0351589 0.04026324 0.03482811 0.02534956 1000
lala 3 1.2 1 second 2 1 18 5 5.7 0.359997987747192 -1 0 1 1 0.00720578 0.009733804 0.01018216 0.009230134 0.009125604 1000 0.00720578 0.009733804 0.01018216 0.009230134 0.009125604 1000 0.007488055 0.00795784 0.008591862 0.008867218 0.008968441 1000 0.007488055 0.00795784 0.008591862 0.008867218 0.008968441 1000
lala 2 1.2 1 second 3 1 19 5 5.45 0.419997930526733 -1 1 1 0 0.01237104 0.01239092 0.0125265 0.01212332 0.01164338 1000 0.01237104 0.01239092 0.0125265 0.01212332 0.01164338 1000 0.011498 0.0114067 0.01130896 0.01118017 0.01155445 1000 0.011498 0.0114067 0.01130896 0.01118017 0.01155445 1000
lala 2 1.2 1 first 7 1 20 4 4.12 1.23999714851379 1 1 1 0 0.008470392 0.008775178 0.009037872 1000 1000 1000 0.008470392 0.008775178 0.009037872 1000 1000 1000 0.01134051 0.01098483 0.01118407 0.01078621 0.01091198 1000 0.01134051 0.01098483 0.01118407 0.01078621 0.01091198 1000
lala 3 1.2 0 first 13 1 21 4 2.92 1.79999685287476 0 1 -1 0 0.01157359 0.01130234 0.01235026 1000 1000 1000 0.01157359 0.01130234 0.01235026 1000 1000 1000 0.01289245 0.01320777 0.01358484 0.01365567 0.01413514 1000 0.01289245 0.01320777 0.01358484 0.01365567 0.01413514 1000
lala 3 1.2 0 first 7 1 22 4 2.92 0.739997625350952 1 1 -1 0 0.01230983 0.01219188 0.01199242 1000 1000 1000 0.01230983 0.01219188 0.01199242 1000 1000 1000 0.01824519 0.01939464 0.02029492 0.0223209 0.0228707 1000 0.01824519 0.01939464 0.02029492 0.0223209 0.0228707 1000
lala 1 1.2 0 first 8 1 23 5 3.3 1.13999724388123 1 0 -1 0 0.02136313 0.0222875 0.02135766 1000 1000 1000 0.02136313 0.0222875 0.02135766 1000 1000 1000 0.02354854 0.02389047 0.02435457 0.02375996 0.02329295 1000 0.02354854 0.02389047 0.02435457 0.02375996 0.02329295 1000
lala 1 1.2 0 first 4 1 24 6 3.96 0.919997453689575 -1 0 -1 1 0.02212891 0.02149516 0.02002015 1000 1000 1000 0.02212891 0.02149516 0.02002015 1000 1000 1000 0.02239877 0.02275813 0.02326856 0.02307534 0.02270572 1000 0.02239877 0.02275813 0.02326856 0.02307534 0.02270572 1000
lala 3 1.2 1 first 17 1 25 6 7.98 0.439997911453247 0 1 1 0 0.0225492 0.02223994 0.02184243 1000 1000 1000 0.0225492 0.02223994 0.02184243 1000 1000 1000 0.02049894 0.02047987 0.02017176 0.02063538 0.02052139 1000 0.02049894 0.02047987 0.02017176 0.02063538 0.02052139 1000
lala 3 1.2 1 first 12 1 26 4 5.04 0.339998006820679 0 0 1 1 0.02380659 0.02546599 0.02585937 1000 1000 1000 0.02380659 0.02546599 0.02585937 1000 1000 1000 0.01253767 0.01209708 0.01141546 0.01118601 0.01078684 1000 0.01253767 0.01209708 0.01141546 0.01118601 0.01078684 1000
lala 2 1.2 1 first 15 1 27 5 5.45 0.579997777938843 0 1 1 1 0.006624431 0.004204846 0.003589908 1000 1000 1000 0.006624431 0.004204846 0.003589908 1000 1000 1000 0.005600108 0.005988588 0.005918587 0.006282533 0.007149944 1000 0.005600108 0.005988588 0.005918587 0.006282533 0.007149944 1000
lala 2 1.2 1 first 5 1 28 6 6.780001 0.479997873306274 -1 1 1 1 0.006469051 0.006467027 0.007049812 1000 1000 1000 0.006469051 0.006467027 0.007049812 1000 1000 1000 0.008588996 0.008626464 0.008964009 0.00792627 0.008322746 1000 0.008588996 0.008626464 0.008964009 0.00792627 0.008322746 1000
lala 3 1.2 0 second 3 1 29 5 4.25 0.919997453689575 -1 1 -1 0 0.009380679 0.009139455 0.009267884 0.00904931 0.00874706 1000 0.009380679 0.009139455 0.009267884 0.00904931 0.00874706 1000 0.01152814 0.01232596 0.01276986 0.01245627 0.01218969 1000 0.01152814 0.01232596 0.01276986 0.01245627 0.01218969 1000
lala 3 1.2 1 second 5 1 30 6 5.580001 0.439997911453247 -1 1 1 1 0.01326998 0.0136456 0.01415706 0.01386267 0.0139934 1000 0.01326998 0.0136456 0.01415706 0.01386267 0.0139934 1000 0.01338846 0.01373564 0.01340887 0.01360285 0.01359524 1000 0.01338846 0.01373564 0.01340887 0.01360285 0.01359524 1000
lala 3 1.2 0 second 10 1 31 6 3.96 0.879997491836548 1 0 -1 1 0.01573255 0.01570011 0.01687037 0.01800343 0.01744468 1000 0.01573255 0.01570011 0.01687037 0.01800343 0.01744468 1000 0.01846546 0.0186426 0.01848786 0.01877413 0.01894864 1000 0.01846546 0.0186426 0.01848786 0.01877413 0.01894864 1000
lala 2 1.2 0 second 8 1 32 5 4.5 0.739997625350952 1 0 -1 1 0.01851359 0.01844219 0.01819358 0.01817068 0.01780287 1000 0.01851359 0.01844219 0.01819358 0.01817068 0.01780287 1000 0.01782381 0.01780319 0.01792911 0.01768718 0.01774535 1000 0.01782381 0.01780319 0.01792911 0.01768718 0.01774535 1000
lala 1 1.2 0 first 16 1 33 6 3.96 0.719997644424438 0 0 -1 0 0.01734984 0.01752884 0.01711263 1000 1000 1000 0.01734984 0.01752884 0.01711263 1000 1000 1000 0.01792768 0.01826542 0.0181081 0.01786581 0.01763127 1000 0.01792768 0.01826542 0.0181081 0.01786581 0.01763127 1000
lala 4 1.2 0 second 10 1 34 6 5.16 0.979997396469116 1 0 -1 0 0.01691508 0.01708008 0.01770484 0.01779144 0.01785641 1000 0.01691508 0.01708008 0.01770484 0.01779144 0.01785641 1000 0.01811793 0.01791451 0.01836041 0.01870959 0.01840266 1000 0.01811793 0.01791451 0.01836041 0.01870959 0.01840266 1000
lala 4 1.2 0 second 2 1 35 5 4.5 0.959997415542603 -1 0 -1 1 0.004322764 0.002831344 -0.001918744 -0.004784056 -0.00321916 1000 0.004322764 0.002831344 -0.001918744 -0.004784056 -0.00321916 1000 0.01485607 0.01728587 0.02239789 0.02666047 0.02972995 1000 0.01485607 0.01728587 0.02239789 0.02666047 0.02972995 1000
lala 4 1.2 0 first 17 1 36 6 6.780001 0.499997854232788 0 1 -1 1 0.002157341 0.003298787 0.005666832 1000 1000 1000 0.002157341 0.003298787 0.005666832 1000 1000 1000 0.008985723 0.009609645 0.01122813 0.01166122 0.01174697 1000 0.008985723 0.009609645 0.01122813 0.01166122 0.01174697 1000
lala 5 1.2 1 second 10 1 37 6 6.36 0.479997873306274 1 0 1 1 0.01421565 0.01433444 0.01458574 0.01459716 0.01450295 1000 0.01421565 0.01433444 0.01458574 0.01459716 0.01450295 1000 0.0148722 0.01533537 0.01632888 0.01729398 0.01662202 1000 0.0148722 0.01533537 0.01632888 0.01729398 0.01662202 1000
lala 2 1.2 0 first 4 1 38 6 5.16 1.3999969959259 -1 0 -1 1 0.01753619 0.01776145 0.01760559 1000 1000 1000 0.01753619 0.01776145 0.01760559 1000 1000 1000 0.01702919 0.01723486 0.01725519 0.01738179 0.01781575 1000 0.01702919 0.01723486 0.01725519 0.01738179 0.01781575 1000
lala 4 1.2 0 first 13 1 39 4 4.12 0.99999737739563 0 1 -1 0 0.01689719 0.01695195 0.01766603 1000 1000 1000 0.01689719 0.01695195 0.01766603 1000 1000 1000 0.01708706 0.01710921 0.01701156 0.01720687 0.01765643 1000 0.01708706 0.01710921 0.01701156 0.01720687 0.01765643 1000
lala 6 1.2 1 second 10 1 40 6 5.16 0.499997854232788 1 0 1 1 0.01311612 0.01296424 0.01421263 0.01596134 0.01662828 1000 0.01311612 0.01296424 0.01421263 0.01596134 0.01662828 1000 0.0174477 0.01766852 0.01777698 0.01761131 0.01767887 1000 0.0174477 0.01766852 0.01777698 0.01761131 0.01767887 1000
lala 2 1.2 1 second 14 1 41 5 4.5 0.679997682571411 0 0 1 1 0.02494082 0.02510491 0.02463389 0.02405897 0.02382171 1000 0.02494082 0.02510491 0.02463389 0.02405897 0.02382171 1000 0.009018619 0.008871661 0.009157132 0.009699787 0.00979604 1000 0.009018619 0.008871661 0.009157132 0.009699787 0.00979604 1000
lala 1 1.2 0 second 6 1 42 4 2.64 0.719997644424438 1 0 -1 1 0.01414281 0.01366773 0.01358366 0.01406404 0.01468151 1000 0.01414281 0.01366773 0.01358366 0.01406404 0.01468151 1000 0.01483269 0.01398365 0.01448407 0.01465788 0.01460474 1000 0.01483269 0.01398365 0.01448407 0.01465788 0.01460474 1000
lala 1 1.2 1 first 11 1 43 6 7.98 0.339998006820679 1 1 1 0 0.01316161 0.01288715 0.01418643 1000 1000 1000 0.01316161 0.01288715 0.01418643 1000 1000 1000 0.01544554 0.01550045 0.01574946 0.01532494 0.01541825 1000 0.01544554 0.01550045 0.01574946 0.01532494 0.01541825 1000
lala 4 1.2 1 first 12 1 44 4 3.84 1.99999666213989 0 0 1 0 0.01565743 0.01543793 0.01520376 1000 1000 1000 0.01565743 0.01543793 0.01520376 1000 1000 1000 0.01622529 0.01551459 0.01479385 0.01510522 0.01528222 1000 0.01622529 0.01551459 0.01479385 0.01510522 0.01528222 1000
lala 1 1.2 0 first 9 1 45 5 6.65 0.99999737739563 1 1 -1 0 0.01635308 0.01640828 0.0165701 1000 1000 1000 0.01635308 0.01640828 0.0165701 1000 1000 1000 0.01382307 0.01382376 0.01330724 0.01341378 0.01380922 1000 0.01382307 0.01382376 0.01330724 0.01341378 0.01380922 1000
lala 2 1.2 0 first 16 1 46 6 5.16 0.459997892379761 0 0 -1 1 0.01516008 0.01582264 0.01651394 1000 1000 1000 0.01516008 0.01582264 0.01651394 1000 1000 1000 0.01788808 0.01837523 0.01860089 0.01848183 0.01794515 1000 0.01788808 0.01837523 0.01860089 0.01848183 0.01794515 1000
lala 2 1.2 1 second 11 1 47 6 6.780001 0.339998006820679 1 1 1 1 0.01871489 0.0187083 0.01851345 0.01855678 0.01865786 1000 0.01871489 0.0187083 0.01851345 0.01855678 0.01865786 1000 0.01824951 0.01831919 0.01835213 0.01840713 0.01852687 1000 0.01824951 0.01831919 0.01835213 0.01840713 0.01852687 1000
lala 3 1.2 1 second 4 1 48 6 6.36 1.55999684333801 -1 0 1 1 0.01769297 0.01766002 0.01788519 0.01808697 0.0183602 1000 0.01769297 0.01766002 0.01788519 0.01808697 0.0183602 1000 0.0190083 0.01861047 0.01831933 0.01896165 0.0183715 1000 0.0190083 0.01861047 0.01831933 0.01896165 0.0183715 1000
lala 5 1.2 1 first 13 1 49 4 5.32 0.39999794960022 0 1 1 0 0.01756364 0.01704883 0.01845748 1000 1000 1000 0.01756364 0.01704883 0.01845748 1000 1000 1000 0.02052095 0.02218113 0.02216321 0.02164877 0.0213346 1000 0.02052095 0.02218113 0.02216321 0.02164877 0.0213346 1000
lala 2 1.2 0 first 6 1 50 4 3.84 0.519997835159302 1 0 -1 0 -0.01792387 -0.01064095 -0.00341876 0.006545533 0.01646666 0.02014738 -0.01792387 -0.01064095 -0.00341876 0.006545533 0.01646666 0.02014738 0.01575455 0.01244266 0.01134839 0.00994986 0.008438108 1000 0.01575455 0.01244266 0.01134839 0.00994986 0.008438108 1000
lala 4 1.2 0 first 7 1 51 4 4.12 0.539997816085815 1 1 -1 0 0.003489947 0.003470649 0.002578935 1000 1000 1000 0.003489947 0.003470649 0.002578935 1000 1000 1000 -0.001771907 -0.001536701 -0.001428525 -0.001028386 -0.0006203502 1000 -0.001771907 -0.001536701 -0.001428525 -0.001028386 -0.0006203502 1000
lala 3 1.2 1 first 6 1 52 4 5.04 0.39999794960022 1 0 1 0 -0.007579895 -0.008122047 -0.009018205 1000 1000 1000 -0.007579895 -0.008122047 -0.009018205 1000 1000 1000 -0.008212552 -0.007796589 -0.00743429 -0.007121493 -0.006755842 1000 -0.008212552 -0.007796589 -0.00743429 -0.007121493 -0.006755842 1000
lala 6 1.2 0 second 13 1 53 4 4.12 0.499997854232788 0 1 -1 0 -0.009154967 -0.010273 -0.009654573 -0.01087995 -0.01123639 1000 -0.009154967 -0.010273 -0.009654573 -0.01087995 -0.01123639 1000 -0.01338845 -0.01349778 -0.01364743 -0.01387025 -0.01443403 1000 -0.01338845 -0.01349778 -0.01364743 -0.01387025 -0.01443403 1000
lala 7 1.2 0 second 10 1 54 6 3.96 0.559997797012329 1 0 -1 1 0.01606556 0.0165499 0.01685164 0.01696123 0.01686267 1000 0.01606556 0.0165499 0.01685164 0.01696123 0.01686267 1000 0.01549508 0.01543397 0.01503614 0.01485197 0.01557625 1000 0.01549508 0.01543397 0.01503614 0.01485197 0.01557625 1000
lala 3 1.2 1 second 8 1 55 5 5.7 0.439997911453247 1 0 1 1 0.01237396 0.01198955 0.01127877 0.01113458 0.01075018 1000 0.01237396 0.01198955 0.01127877 0.01113458 0.01075018 1000 0.01164524 0.01171776 0.01211728 0.01210646 0.01235696 1000 0.01164524 0.01171776 0.01211728 0.01210646 0.01235696 1000
lala 5 1.2 1 second 17 1 56 6 7.98 0.299998044967651 0 1 1 0 0.01199242 0.01264333 0.01252544 0.01240193 0.01234459 1000 0.01199242 0.01264333 0.01252544 0.01240193 0.01234459 1000 0.01027871 0.01032097 0.01077553 0.01112818 0.01069026 1000 0.01027871 0.01032097 0.01077553 0.01112818 0.01069026 1000
lala 5 1.2 0 first 12 1 57 4 2.64 0.479997873306274 0 0 -1 0 0.01028107 0.01047089 0.01147891 1000 1000 1000 0.01028107 0.01047089 0.01147891 1000 1000 1000 0.009048819 0.01046123 0.01125669 0.01203689 0.01225256 1000 0.009048819 0.01046123 0.01125669 0.01203689 0.01225256 1000
lala 4 1.2 1 first 4 1 58 6 5.16 0.559997797012329 -1 0 1 0 0.008702462 0.009149568 0.009379931 1000 1000 1000 0.008702462 0.009149568 0.009379931 1000 1000 1000 0.01196389 0.0117827 0.01121424 0.01132159 0.01140987 1000 0.01196389 0.0117827 0.01121424 0.01132159 0.01140987 1000
lala 3 1.2 0 second 14 1 59 5 3.3 0.879997491836548 0 0 -1 1 0.01295951 0.0127396 0.01236067 0.01225534 0.01179611 1000 0.01295951 0.0127396 0.01236067 0.01225534 0.01179611 1000 0.0120923 0.01249289 0.0125409 0.01262132 0.01306901 1000 0.0120923 0.01249289 0.0125409 0.01262132 0.01306901 1000
lala 6 1.2 0 second 12 1 60 4 3.84 0.579997777938843 0 0 -1 0 -0.01987814 -0.02171089 -0.02264271 -0.02393611 -0.02596935 1000 -0.01987814 -0.02171089 -0.02264271 -0.02393611 -0.02596935 1000 0.01712294 0.01163391 0.01004591 0.01030648 0.01671792 1000 0.01712294 0.01163391 0.01004591 0.01030648 0.01671792 1000
lala 5 1.2 0 first 4 1 61 6 3.96 0.819997549057007 -1 0 -1 0 0.01091489 0.007698067 0.006176465 1000 1000 1000 0.01091489 0.007698067 0.006176465 1000 1000 1000 0.005581851 0.006314849 0.007875578 0.007489278 0.007461271 1000 0.005581851 0.006314849 0.007875578 0.007489278 0.007461271 1000
lala 5 1.2 0 first 2 1 62 5 5.7 0.759997606277466 -1 0 -1 0 0.01353613 0.01312454 0.01202818 1000 1000 1000 0.01353613 0.01312454 0.01202818 1000 1000 1000 0.0107638 0.01160456 0.01169156 0.01068929 0.01080496 1000 0.0107638 0.01160456 0.01169156 0.01068929 0.01080496 1000
lala 3 1.2 1 first 15 1 63 5 4.25 0.639997720718384 0 1 1 1 0.01101383 0.01070091 0.01036227 1000 1000 1000 0.01101383 0.01070091 0.01036227 1000 1000 1000 0.01160138 0.01164826 0.0118988 0.01120236 0.01122128 1000 0.01160138 0.01164826 0.0118988 0.01120236 0.01122128 1000
lala 2 1.2 0 second 1 1 64 4 4.12 0.479997873306274 -1 1 -1 1 0.01186162 0.01176713 0.01135088 0.01120117 0.01167105 1000 0.01186162 0.01176713 0.01135088 0.01120117 0.01167105 1000 0.01240935 0.01234606 0.01164734 0.01114228 0.01200115 1000 0.01240935 0.01234606 0.01164734 0.01114228 0.01200115 1000
lala 3 1.2 1 first 16 1 65 6 6.36 2.01999664306641 0 0 1 1 0.01757679 0.0132209 0.005494773 1000 1000 1000 0.01757679 0.0132209 0.005494773 1000 1000 1000 0.007621668 0.008636727 0.009734274 0.009780342 0.01010583 1000 0.007621668 0.008636727 0.009734274 0.009780342 0.01010583 1000
lala 4 1.2 0 second 16 1 66 6 5.16 0.579997777938843 0 0 -1 1 0.01289112 0.01391824 0.01356937 0.01366426 0.01390419 1000 0.01289112 0.01391824 0.01356937 0.01366426 0.01390419 1000 0.01333386 0.01403724 0.01487835 0.0155994 0.01619394 1000 0.01333386 0.01403724 0.01487835 0.0155994 0.01619394 1000
lala 5 1.2 1 second 16 1 67 6 6.36 0.23999810218811 0 0 1 1 0.01940866 0.01901682 0.01903172 0.01812899 0.01814379 1000 0.01940866 0.01901682 0.01903172 0.01812899 0.01814379 1000 0.01764372 0.01803282 0.01798726 0.01813526 0.01801581 1000 0.01764372 0.01803282 0.01798726 0.01813526 0.01801581 1000
lala 3 1.2 1 first 1 1 68 4 5.32 0.579997777938843 -1 1 1 0 0.01725777 0.01744894 0.01744417 1000 1000 1000 0.01725777 0.01744894 0.01744417 1000 1000 1000 0.01782799 0.01758466 0.01740556 0.01730176 0.01720013 1000 0.01782799 0.01758466 0.01740556 0.01730176 0.01720013 1000
lala 4 1.2 0 second 1 1 69 4 4.12 0.579997777938843 -1 1 -1 1 0.01672277 0.01693739 0.01678768 0.01664083 0.01719957 1000 0.01672277 0.01693739 0.01678768 0.01664083 0.01719957 1000 0.01693944 0.01780526 0.01796122 0.01827902 0.01923772 1000 0.01693944 0.01780526 0.01796122 0.01827902 0.01923772 1000
lala 6 1.2 1 second 16 1 70 6 5.16 0.319998025894165 0 0 1 1 0.01626536 0.01660744 0.01636814 0.01716583 0.01724376 1000 0.01626536 0.01660744 0.01636814 0.01716583 0.01724376 1000 0.01579434 0.01612973 0.01649358 0.01681065 0.01726516 1000 0.01579434 0.01612973 0.01649358 0.01681065 0.01726516 1000
lala 5 1.2 1 first 7 1 71 4 5.32 0.659997701644897 1 1 1 0 0.0168287 0.01685215 0.01751872 1000 1000 1000 0.0168287 0.01685215 0.01751872 1000 1000 1000 0.01789203 0.01793577 0.01756738 0.01815574 0.01835078 1000 0.01789203 0.01793577 0.01756738 0.01815574 0.01835078 1000
lala 2 1.2 0 second 9 1 72 5 7.85 2.05999660491943 1 1 -1 1 0.0188838 0.01545403 0.01718545 0.0184064 0.01882973 1000 0.0188838 0.01545403 0.01718545 0.0184064 0.01882973 1000 0.03202575 0.0322349 0.02868804 0.02370848 0.0188217 1000 0.03202575 0.0322349 0.02868804 0.02370848 0.0188217 1000
lala 8 1.2 0 second 10 1 73 6 5.16 1.01999735832214 1 0 -1 1 0.001028551 0.001759371 0.003766163 0.004530492 0.004676099 1000 0.001028551 0.001759371 0.003766163 0.004530492 0.004676099 1000 0.009038589 0.009581091 0.00962041 0.008861011 0.009237117 1000 0.009038589 0.009581091 0.00962041 0.008861011 0.009237117 1000
lala 3 1.2 1 first 11 1 74 6 5.580001 0.699997663497925 1 1 1 0 0.009679358 0.01007964 0.01014558 1000 1000 1000 0.009679358 0.01007964 0.01014558 1000 1000 1000 0.01154736 0.01218009 0.01195139 0.01201578 0.01204826 1000 0.01154736 0.01218009 0.01195139 0.01201578 0.01204826 1000
lala 3 1.2 1 second 9 1 75 5 9.05 0.299998044967651 1 1 1 1 0.01586996 0.01571198 0.01607265 0.01640318 0.01611489 1000 0.01586996 0.01571198 0.01607265 0.01640318 0.01611489 1000 0.01986038 0.01985258 0.01972136 0.02060634 0.02056495 1000 0.01986038 0.01985258 0.01972136 0.02060634 0.02056495 1000
lala 4 1.2 0 first 15 1 76 5 3.05 1.01999735832214 0 1 -1 0 0.02120277 0.02038978 0.01971747 1000 1000 1000 0.02120277 0.02038978 0.01971747 1000 1000 1000 0.01958405 0.01929761 0.01940777 0.01931784 0.01944371 1000 0.01958405 0.01929761 0.01940777 0.01931784 0.01944371 1000
lala 4 1.2 1 first 3 1 77 5 5.45 1.45999693870544 -1 1 1 1 0.02203312 0.02299527 0.02624534 1000 1000 1000 0.02203312 0.02299527 0.02624534 1000 1000 1000 0.006409884 0.004443042 0.00833102 0.0103393 0.008615817 1000 0.006409884 0.004443042 0.00833102 0.0103393 0.008615817 1000
lala 4 1.2 1 second 14 1 78 5 4.5 1.45999693870544 0 0 1 0 0.01950158 0.02162752 0.02297751 0.02384953 0.02471354 1000 0.01950158 0.02162752 0.02297751 0.02384953 0.02471354 1000 0.02195871 0.02069141 0.02075469 0.02096308 0.02028107 1000 0.02195871 0.02069141 0.02075469 0.02096308 0.02028107 1000
lala 5 1.2 0 first 15 1 79 5 4.25 0.339998006820679 0 1 -1 0 0.01967837 0.01926403 0.01910749 1000 1000 1000 0.01967837 0.01926403 0.01910749 1000 1000 1000 0.01919838 0.01944989 0.01859899 0.01805139 0.01802536 1000 0.01919838 0.01944989 0.01859899 0.01805139 0.01802536 1000
lala 6 1.2 1 second 2 1 80 5 6.9 0.259998083114624 -1 0 1 1 0.01868629 0.01788688 0.01756943 0.01808046 0.0180804 1000 0.01868629 0.01788688 0.01756943 0.01808046 0.0180804 1000 0.01765067 0.01787425 0.01768874 0.01753136 0.01745763 1000 0.01765067 0.01787425 0.01768874 0.01753136 0.01745763 1000
lala 4 1.2 1 first 8 1 81 5 4.5 0.799997568130493 1 0 1 1 0.01715579 0.01706688 0.01708421 1000 1000 1000 0.01715579 0.01706688 0.01708421 1000 1000 1000 0.01801965 0.01750745 0.01774142 0.01808376 0.01798741 1000 0.01801965 0.01750745 0.01774142 0.01808376 0.01798741 1000
lala 6 1.2 0 first 17 1 82 6 6.780001 0.61999773979187 0 1 -1 0 0.01661316 0.01585492 0.01569171 1000 1000 1000 0.01661316 0.01585492 0.01569171 1000 1000 1000 0.01932159 0.0195187 0.01978812 0.01972288 0.0195367 1000 0.01932159 0.0195187 0.01978812 0.01972288 0.0195367 1000
lala 5 1.2 1 first 1 1 83 4 5.32 0.719997644424438 -1 1 1 0 0.01718012 0.01672772 0.01576539 1000 1000 1000 0.01718012 0.01672772 0.01576539 1000 1000 1000 0.01579412 0.01511556 0.01517301 0.01573964 0.01621884 1000 0.01579412 0.01511556 0.01517301 0.01573964 0.01621884 1000
lala 5 1.2 0 second 3 1 84 5 4.25 0.499997854232788 -1 1 -1 1 0.01376391 0.01358601 0.01264418 0.01170015 0.01098855 1000 0.01376391 0.01358601 0.01264418 0.01170015 0.01098855 1000 0.01369907 0.01378792 0.01396399 0.01425994 0.01506214 1000 0.01369907 0.01378792 0.01396399 0.01425994 0.01506214 1000
lala 9 1.2 1 second 10 1 85 6 6.36 0.259998083114624 1 0 1 0 0.01695571 0.01752782 0.0172223 0.01654927 0.01639541 1000 0.01695571 0.01752782 0.0172223 0.01654927 0.01639541 1000 0.01659458 0.0166031 0.01709126 0.01698857 0.01713371 1000 0.01659458 0.0166031 0.01709126 0.01698857 0.01713371 1000
lala 6 1.2 1 second 1 1 86 4 4.12 1.61999702453613 -1 1 1 0 0.01665478 0.01580176 0.01645306 0.01690529 0.01673933 1000 0.01665478 0.01580176 0.01645306 0.01690529 0.01673933 1000 0.01561327 0.01560809 0.0160504 0.01602687 0.01602344 1000 0.01561327 0.01560809 0.0160504 0.01602687 0.01602344 1000
lala 7 1.2 0 first 16 1 87 6 3.96 0.559997797012329 0 0 -1 1 0.01662354 0.01676716 0.01606826 1000 1000 1000 0.01662354 0.01676716 0.01606826 1000 1000 1000 0.01352754 0.01340381 0.01352278 0.01343425 0.0141381 1000 0.01352754 0.01340381 0.01352278 0.01343425 0.0141381 1000
lala 7 1.2 1 first 13 1 88 4 5.32 0.459997892379761 0 1 1 1 0.01357225 0.01381856 0.01318336 1000 1000 1000 0.01357225 0.01381856 0.01318336 1000 1000 1000 0.006519657 0.006512176 0.006610771 0.007064287 0.007140827 1000 0.006519657 0.006512176 0.006610771 0.007064287 0.007140827 1000
lala 4 1.2 0 first 5 1 89 6 4.380001 0.859997510910034 -1 1 -1 0 0.008634541 0.008999449 0.01008273 1000 1000 1000 0.008634541 0.008999449 0.01008273 1000 1000 1000 0.01134447 0.01119117 0.01154503 0.01177314 0.01162092 1000 0.01134447 0.01119117 0.01154503 0.01177314 0.01162092 1000
lala 7 1.2 1 second 12 1 90 4 5.04 0.61999773979187 0 0 1 0 0.01342851 0.01248054 0.01223851 0.01182519 0.01232197 1000 0.01342851 0.01248054 0.01223851 0.01182519 0.01232197 1000 0.01458939 0.01565193 0.01677954 0.01704749 0.016975 1000 0.01458939 0.01565193 0.01677954 0.01704749 0.016975 1000
lala 5 1.2 0 second 5 1 91 6 5.580001 0.719997644424438 -1 1 -1 1 0.015114 0.01538828 0.01538204 0.01585456 0.01575489 1000 0.015114 0.01538828 0.01538204 0.01585456 0.01575489 1000 0.01425846 0.0146126 0.01474364 0.0149496 0.01530254 1000 0.01425846 0.0146126 0.01474364 0.0149496 0.01530254 1000
lala 8 1.2 1 first 12 1 92 4 3.84 0.599997758865356 0 0 1 1 0.01327907 0.01361337 0.013698 1000 1000 1000 0.01327907 0.01361337 0.013698 1000 1000 1000 0.01285101 0.0122585 0.01218019 0.01298866 0.01312399 1000 0.01285101 0.0122585 0.01218019 0.01298866 0.01312399 1000
lala 7 1.2 1 second 2 1 93 5 5.7 0.439997911453247 -1 0 1 1 0.01425108 0.01396557 0.01426397 0.01388268 0.01374283 1000 0.01425108 0.01396557 0.01426397 0.01388268 0.01374283 1000 0.01054777 0.01094124 0.01182272 0.01106674 0.01037708 1000 0.01054777 0.01094124 0.01182272 0.01106674 0.01037708 1000
lala 5 1.2 0 second 14 1 94 5 3.3 0.839997529983521 0 0 -1 1 0.009816366 0.01036918 0.01046818 0.01123731 0.01165709 1000 0.009816366 0.01036918 0.01046818 0.01123731 0.01165709 1000 0.01144324 0.01177809 0.0120244 0.01231778 0.01208334 1000 0.01144324 0.01177809 0.0120244 0.01231778 0.01208334 1000
lala 6 1.2 0 first 5 1 95 6 6.780001 0.979997396469116 -1 1 -1 0 0.01232878 0.01169904 0.01172098 1000 1000 1000 0.01232878 0.01169904 0.01172098 1000 1000 1000 0.01353468 0.01368464 0.01344404 0.01364742 0.01443253 1000 0.01353468 0.01368464 0.01344404 0.01364742 0.01443253 1000
lala 8 1.2 1 second 13 1 96 4 4.12 0.479997873306274 0 1 1 1 0.01263258 0.01260153 0.01303354 0.01246933 0.01271637 1000 0.01263258 0.01260153 0.01303354 0.01246933 0.01271637 1000 0.01317218 0.01398837 0.01442596 0.01448233 0.0141424 1000 0.01317218 0.01398837 0.01442596 0.01448233 0.0141424 1000
lala 6 1.2 1 second 4 1 97 6 5.16 1.03999733924866 -1 0 1 1 0.009565561 0.005828245 0.00301484 0.00534686 0.01034935 1000 0.009565561 0.005828245 0.00301484 0.00534686 0.01034935 1000 -0.01157616 -0.004521042 -0.004602927 0.001254891 0.004988484 1000 -0.01157616 -0.004521042 -0.004602927 0.001254891 0.004988484 1000
lala 6 1.2 0 first 14 1 98 5 4.5 1.01999735832214 0 0 -1 1 0.0186392 0.01047723 0.006857928 1000 1000 1000 0.0186392 0.01047723 0.006857928 1000 1000 1000 0.009767526 0.009541692 0.009823487 0.01128651 0.01250325 1000 0.009767526 0.009541692 0.009823487 0.01128651 0.01250325 1000
lala 6 1.2 0 first 15 1 99 5 5.45 0.419997930526733 0 1 -1 1 0.01112041 0.01213581 0.01218626 1000 1000 1000 0.01112041 0.01213581 0.01218626 1000 1000 1000 0.01149621 0.01150341 0.01179678 0.01194126 0.01164253 1000 0.01149621 0.01150341 0.01179678 0.01194126 0.01164253 1000
lala 7 1.2 0 second 4 1 100 6 3.96 0.539997816085815 -1 0 -1 1 0.01018312 0.01260608 0.01286064 0.01295876 0.0118821 1000 0.01018312 0.01260608 0.01286064 0.01295876 0.0118821 1000 0.01587826 0.01495421 0.01529702 0.01668726 0.01715304 1000 0.01587826 0.01495421 0.01529702 0.01668726 0.01715304 1000
lala 7 1.2 1 second 5 1 101 6 7.98 0.119998216629028 -1 1 1 0 0.01805043 0.01762786 0.01746395 0.01682955 0.01725162 1000 0.01805043 0.01762786 0.01746395 0.01682955 0.01725162 1000 0.01689903 0.01695128 0.01725115 0.01743789 0.01773361 1000 0.01689903 0.01695128 0.01725115 0.01743789 0.01773361 1000
lala 8 1.2 0 first 16 1 102 6 5.16 0.559997797012329 0 0 -1 1 0.01756624 0.01762684 0.01660539 1000 1000 1000 0.01756624 0.01762684 0.01660539 1000 1000 1000 0.02062687 0.0219309 0.02227019 0.02256338 0.02189629 1000 0.02062687 0.0219309 0.02227019 0.02256338 0.02189629 1000
lala 8 1.2 0 second 4 1 103 6 5.16 0.39999794960022 -1 0 -1 0 0.02279831 0.02188887 0.02236399 0.02233296 0.02271186 1000 0.02279831 0.02188887 0.02236399 0.02233296 0.02271186 1000 0.02233879 0.02227704 0.02239917 0.0231508 0.02283504 1000 0.02233879 0.02227704 0.02239917 0.0231508 0.02283504 1000
lala 7 1.2 1 first 14 1 104 5 5.7 0.419997930526733 0 0 1 1 0.02320629 0.02409682 0.0242488 1000 1000 1000 0.02320629 0.02409682 0.0242488 1000 1000 1000 0.01626492 0.01583115 0.01507246 0.01544695 0.01588509 1000 0.01626492 0.01583115 0.01507246 0.01544695 0.01588509 1000
lala 5 1.2 1 first 8 1 105 5 3.3 0.639997720718384 1 0 1 0 0.01393213 0.01411119 0.01508529 1000 1000 1000 0.01393213 0.01411119 0.01508529 1000 1000 1000 0.01819348 0.01921136 0.01826493 0.01718243 0.01828294 1000 0.01819348 0.01921136 0.01826493 0.01718243 0.01828294 1000
lala 6 1.2 0 first 8 1 106 5 2.1 0.139998197555542 1 0 -1 1 0.01846257 0.01815828 0.01842554 1000 1000 1000 0.01846257 0.01815828 0.01842554 1000 1000 1000 0.02204807 0.02182614 0.02151591 0.02177509 0.02131451 1000 0.02204807 0.02182614 0.02151591 0.02177509 0.02131451 1000
lala 8 1.2 1 second 2 1 107 5 4.5 0.599997758865356 -1 0 1 1 0.02094413 0.02066454 0.02048764 0.0209904 0.02093274 1000 0.02094413 0.02066454 0.02048764 0.0209904 0.02093274 1000 0.01943754 0.01979783 0.02040418 0.02058377 0.0214729 1000 0.01943754 0.01979783 0.02040418 0.02058377 0.0214729 1000
lala 6 1.2 0 second 7 1 108 4 4.12 0.779997587203979 1 1 -1 1 0.02367848 0.0230812 0.02263981 0.02230912 0.0223829 1000 0.02367848 0.0230812 0.02263981 0.02230912 0.0223829 1000 0.02408437 0.02385823 0.0232481 0.02308754 0.02303798 1000 0.02408437 0.02385823 0.0232481 0.02308754 0.02303798 1000
lala 7 1.2 1 second 8 1 109 5 3.3 0.479997873306274 1 0 1 1 0.0229636 0.02303271 0.02199571 0.02062756 0.01965429 1000 0.0229636 0.02303271 0.02199571 0.02062756 0.01965429 1000 0.01492277 0.01546357 0.01594739 0.01563013 0.01506383 1000 0.01492277 0.01546357 0.01594739 0.01563013 0.01506383 1000
lala 4 1.2 0 second 6 1 110 4 3.84 1.67999696731567 1 0 -1 0 0.01693069 0.01252045 0.01038117 0.006855413 0.006346002 1000 0.01693069 0.01252045 0.01038117 0.006855413 0.006346002 1000 0.01321947 0.01743511 0.01980475 0.01930865 0.01915565 1000 0.01321947 0.01743511 0.01980475 0.01930865 0.01915565 1000
lala 7 1.2 0 first 1 1 111 4 2.92 0.939997434616089 -1 1 -1 1 0.01537332 0.01855559 0.01568977 1000 1000 1000 0.01537332 0.01855559 0.01568977 1000 1000 1000 0.01759307 0.01679086 0.01558076 0.01608626 0.01696938 1000 0.01759307 0.01679086 0.01558076 0.01608626 0.01696938 1000
lala 9 1.2 0 first 2 1 112 5 3.3 0.779997587203979 -1 0 -1 0 0.007439877 0.003579212 0.001210943 1000 1000 1000 0.007439877 0.003579212 0.001210943 1000 1000 1000 0.008174992 0.009014364 0.01038596 0.01016048 0.0101212 1000 0.008174992 0.009014364 0.01038596 0.01016048 0.0101212 1000
lala 4 1.2 0 second 11 1 113 6 4.380001 0.699997663497925 1 1 -1 0 0.01169594 0.01140858 0.01079526 0.0102576 0.01023673 1000 0.01169594 0.01140858 0.01079526 0.0102576 0.01023673 1000 0.009885089 0.01006239 0.01045188 0.01070032 0.01106611 1000 0.009885089 0.01006239 0.01045188 0.01070032 0.01106611 1000
lala 5 1.2 1 second 6 1 114 4 5.04 0.379997968673706 1 0 1 1 0.01325992 0.01286506 0.01219088 0.01265817 0.01287296 1000 0.01325992 0.01286506 0.01219088 0.01265817 0.01287296 1000 0.01398453 0.01384724 0.01384622 0.01351061 0.01379392 1000 0.01398453 0.01384724 0.01384622 0.01351061 0.01379392 1000
lala 9 1.2 1 second 4 1 115 6 6.36 0.39999794960022 -1 0 1 0 0.01365531 0.01535814 0.01770622 0.01840628 0.01762684 1000 0.01365531 0.01535814 0.01770622 0.01840628 0.01762684 1000 0.01923139 0.01879983 0.01857886 0.01903201 0.01902989 1000 0.01923139 0.01879983 0.01857886 0.01903201 0.01902989 1000
lala 8 1.2 0 first 5 1 116 6 6.780001 0.679997682571411 -1 1 -1 1 0.0193724 0.01924537 0.01921902 1000 1000 1000 0.0193724 0.01924537 0.01921902 1000 1000 1000 0.0196916 0.01999348 0.01981719 0.01945382 0.01990977 1000 0.0196916 0.01999348 0.01981719 0.01945382 0.01990977 1000
lala 8 1.2 0 second 14 1 117 5 4.5 0.439997911453247 0 0 -1 0 0.01977924 0.02020566 0.02029683 0.02094306 0.02085393 1000 0.01977924 0.02020566 0.02029683 0.02094306 0.02085393 1000 0.01986839 0.01983656 0.01997115 0.01972432 0.02023679 1000 0.01986839 0.01983656 0.01997115 0.01972432 0.02023679 1000
lala 5 1.2 1 first 11 1 118 6 5.580001 0.499997854232788 1 1 1 0 0.01908735 0.01862351 0.01851379 1000 1000 1000 0.01908735 0.01862351 0.01851379 1000 1000 1000 0.01859148 0.01843909 0.01900479 0.01884982 0.01898949 1000 0.01859148 0.01843909 0.01900479 0.01884982 0.01898949 1000
lala 9 1.2 0 second 12 1 119 4 2.64 0.519997835159302 0 0 -1 1 0.01875634 0.01896523 0.01909983 0.01915651 0.0190395 1000 0.01875634 0.01896523 0.01909983 0.01915651 0.0190395 1000 0.01906439 0.01907127 0.01893957 0.01862779 0.01899027 1000 0.01906439 0.01907127 0.01893957 0.01862779 0.01899027 1000
lala 4 1.2 1 second 9 1 120 5 7.85 0.259998083114624 1 1 1 0 0.01885016 0.01828086 0.01815711 0.01864206 0.01862472 1000 0.01885016 0.01828086 0.01815711 0.01864206 0.01862472 1000 0.01982361 0.01975771 0.01998018 0.01985219 0.01973804 1000 0.01982361 0.01975771 0.01998018 0.01985219 0.01973804 1000
lala 10 0.6 1 second 10 1 121 6 5.76 0.339998006820679 1 0 1 1 0.01996895 0.0199054 0.02003024 0.01972281 0.01988973 1000 0.01996895 0.0199054 0.02003024 0.01972281 0.01988973 1000 0.01991856 0.01991726 0.01913216 0.0195551 0.01983048 1000 0.01991856 0.01991726 0.01913216 0.0195551 0.01983048 1000
lala 7 1.2 1 second 15 1 122 5 6.65 0.219998121261597 0 1 1 1 0.01984323 0.01994583 0.01947833 0.01922738 0.01919275 1000 0.01984323 0.01994583 0.01947833 0.01922738 0.01919275 1000 0.01933017 0.01970644 0.0194101 0.01915616 0.01925106 1000 0.01933017 0.01970644 0.0194101 0.01915616 0.01925106 1000
lala 2 1.2 0 first 0 1 123 4 3.84 0.499997854232788 -1 0 -1 1 0.01819411 0.01775479 0.01761011 1000 1000 1000 0.01819411 0.01775479 0.01761011 1000 1000 1000 0.0162751 0.01632744 0.01602964 0.01596459 0.01593607 1000 0.0162751 0.01632744 0.01602964 0.01596459 0.01593607 1000
lala 9 1.2 1 second 14 1 124 5 5.7 0.339998006820679 0 0 1 0 0.01523943 0.01577343 0.01532608 0.01280961 0.01261142 1000 0.01523943 0.01577343 0.01532608 0.01280961 0.01261142 1000 0.01386116 0.01579692 0.01650475 0.01696486 0.01693974 1000 0.01386116 0.01579692 0.01650475 0.01696486 0.01693974 1000
lala 6 1.2 0 second 6 1 125 4 3.84 1.33999705314636 1 0 -1 0 0.0171185 0.01709694 0.0173205 0.01711177 0.01771799 1000 0.0171185 0.01709694 0.0173205 0.01711177 0.01771799 1000 0.01782379 0.01776188 0.01789813 0.0181673 0.01838679 1000 0.01782379 0.01776188 0.01789813 0.0181673 0.01838679 1000
lala 7 1.2 1 first 17 1 126 6 7.98 1.01999735832214 0 1 1 1 0.01984995 0.02083489 0.02099465 1000 1000 1000 0.01984995 0.02083489 0.02099465 1000 1000 1000 0.02084941 0.02115745 0.02125035 0.021043 0.02111455 1000 0.02084941 0.02115745 0.02125035 0.021043 0.02111455 1000
lala 8 1.2 0 second 8 1 127 5 2.1 0.779997587203979 1 0 -1 1 0.001236514 -0.001074429 -0.004341856 -0.006805264 -0.006137719 1000 0.001236514 -0.001074429 -0.004341856 -0.006805264 -0.006137719 1000 -0.002746403 -0.0008084222 0.001730684 0.002300093 -0.000497064 1000 -0.002746403 -0.0008084222 0.001730684 0.002300093 -0.000497064 1000
lala 10 0.6 1 second 4 1 128 6 5.76 0.299998044967651 -1 0 1 0 0.01243447 0.0155805 0.01712284 0.01740127 0.01846083 1000 0.01243447 0.0155805 0.01712284 0.01740127 0.01846083 1000 0.01754853 0.01751574 0.01834758 0.01839345 0.01840299 1000 0.01754853 0.01751574 0.01834758 0.01839345 0.01840299 1000
lala 10 0.6 0 first 2 1 129 5 3.9 0.719997644424438 -1 0 -1 1 0.01957879 0.01869436 0.01896269 1000 1000 1000 0.01957879 0.01869436 0.01896269 1000 1000 1000 0.01726972 0.01713861 0.01731255 0.01768215 0.0169599 1000 0.01726972 0.01713861 0.01731255 0.01768215 0.0169599 1000
lala 3 1.2 0 first 0 1 130 4 5.04 0.919997453689575 -1 0 -1 0 0.01004724 0.008368044 0.005815291 1000 1000 1000 0.01004724 0.008368044 0.005815291 1000 1000 1000 0.009363896 0.01069081 0.01138476 0.01259009 0.01340057 1000 0.009363896 0.01069081 0.01138476 0.01259009 0.01340057 1000
lala 10 0.6 1 first 12 1 131 4 3.24 0.859997510910034 0 0 1 1 0.01700633 0.01731951 0.0176641 1000 1000 1000 0.01700633 0.01731951 0.0176641 1000 1000 1000 0.02096127 0.02135656 0.02109973 0.02103874 0.02130901 1000 0.02096127 0.02135656 0.02109973 0.02103874 0.02130901 1000
lala 11 0.3 0 second 12 1 132 4 2.94 0.879997491836548 0 0 -1 1 0.02205347 0.02227247 0.02243158 0.02246479 0.02181037 1000 0.02205347 0.02227247 0.02243158 0.02246479 0.02181037 1000 0.02228863 0.02284656 0.02257927 0.02269826 0.02312492 1000 0.02228863 0.02284656 0.02257927 0.02269826 0.02312492 1000
lala 7 1.2 1 first 7 1 133 4 5.32 1.17999720573425 1 1 1 1 0.02270192 0.02233315 0.02276435 1000 1000 1000 0.02270192 0.02233315 0.02276435 1000 1000 1000 0.02345832 0.02365449 0.02422639 0.02432656 0.0247512 1000 0.02345832 0.02365449 0.02422639 0.02432656 0.0247512 1000
lala 11 0.6 0 first 4 1 134 6 5.16 0.639997720718384 -1 0 -1 1 0.01672281 0.01531007 0.0144969 1000 1000 1000 0.01672281 0.01531007 0.0144969 1000 1000 1000 0.009363015 0.008819939 0.009539898 0.01064449 0.01231096 1000 0.009363015 0.008819939 0.009539898 0.01064449 0.01231096 1000
lala 10 0.6 1 second 14 1 135 5 5.1 0.319998025894165 0 0 1 1 0.01143055 0.01112809 0.01110011 0.01204597 0.01184862 1000 0.01143055 0.01112809 0.01110011 0.01204597 0.01184862 1000 0.01324529 0.01255846 0.01294704 0.01333898 0.01360842 1000 0.01324529 0.01255846 0.01294704 0.01333898 0.01360842 1000
lala 11 0.6 1 first 2 1 136 5 4.5 1.37999701499939 -1 0 1 1 0.01281474 0.0130182 0.01409797 1000 1000 1000 0.01281474 0.0130182 0.01409797 1000 1000 1000 0.01546053 0.01515113 0.01448807 0.01387518 0.01471636 1000 0.01546053 0.01515113 0.01448807 0.01387518 0.01471636 1000
lala 12 0.3 0 first 4 1 137 6 5.46 0.599997758865356 -1 0 -1 1 0.01210677 0.01231475 0.01218093 1000 1000 1000 0.01210677 0.01231475 0.01218093 1000 1000 1000 0.01465008 0.01470159 0.0142371 0.01375647 0.01373745 1000 0.01465008 0.01470159 0.0142371 0.01375647 0.01373745 1000
lala 7 1.2 1 first 6 1 138 4 5.04 1.47999691963196 1 0 1 0 0.01280471 0.01249541 0.01323765 1000 1000 1000 0.01280471 0.01249541 0.01323765 1000 1000 1000 0.006694583 0.009289599 0.0136675 0.01170106 0.009746423 1000 0.006694583 0.009289599 0.0136675 0.01170106 0.009746423 1000
lala 8 1.2 0 second 7 1 139 4 4.12 1.3999969959259 1 1 -1 0 0.01233147 0.01263338 0.01185846 0.01091953 0.01144459 1000 0.01233147 0.01263338 0.01185846 0.01091953 0.01144459 1000 0.009759103 0.01099755 0.01117727 0.01062526 0.01043893 1000 0.009759103 0.01099755 0.01117727 0.01062526 0.01043893 1000
lala 8 1.2 0 second 1 1 140 4 4.12 1.49999690055847 -1 1 -1 1 0.008268339 0.008527666 0.008334571 0.008017111 0.008259697 1000 0.008268339 0.008527666 0.008334571 0.008017111 0.008259697 1000 0.007649663 0.007991024 0.009100065 0.009013963 0.00933251 1000 0.007649663 0.007991024 0.009100065 0.009013963 0.00933251 1000
lala 11 0.6 1 second 10 1 141 6 5.16 0.319998025894165 1 0 1 0 0.0008776351 0.000278565 0.0005787776 0.001678772 0.001188291 1000 0.0008776351 0.000278565 0.0005787776 0.001678772 0.001188291 1000 0.004189773 0.004001375 0.004565525 0.004857116 0.005286662 1000 0.004189773 0.004001375 0.004565525 0.004857116 0.005286662 1000
lala 9 1.2 1 second 1 1 142 4 5.32 0.419997930526733 -1 1 1 0 0.005605453 0.005779315 0.005991253 0.006415144 0.00698026 1000 0.005605453 0.005779315 0.005991253 0.006415144 0.00698026 1000 0.005772936 0.006020527 0.00588414 0.005631454 0.004717197 1000 0.005772936 0.006020527 0.00588414 0.005631454 0.004717197 1000
lala 9 1.2 1 second 16 1 143 6 6.36 0.319998025894165 0 0 1 1 0.00603878 0.006216045 0.006514607 0.006178559 0.006584491 1000 0.00603878 0.006216045 0.006514607 0.006178559 0.006584491 1000 0.007195877 0.007284699 0.007313945 0.007163819 0.006857097 1000 0.007195877 0.007284699 0.007313945 0.007163819 0.006857097 1000
lala 9 1.2 1 second 5 1 144 6 7.98 0.179998159408569 -1 1 1 0 0.005805655 0.005706897 0.006144282 0.006419207 0.006778849 1000 0.005805655 0.005706897 0.006144282 0.006419207 0.006778849 1000 0.007048218 0.007052333 0.006914819 0.007226661 0.006903104 1000 0.007048218 0.007052333 0.006914819 0.007226661 0.006903104 1000
lala 8 1.2 1 first 6 1 145 4 3.84 0.899997472763062 1 0 1 1 0.007436636 0.007159598 0.007286821 1000 1000 1000 0.007436636 0.007159598 0.007286821 1000 1000 1000 0.007135349 0.007091042 0.006931882 0.007142605 0.007130228 1000 0.007135349 0.007091042 0.006931882 0.007142605 0.007130228 1000
lala 5 1.2 1 first 9 1 146 5 6.650001 0.299998044967651 1 1 1 0 0.007280791 0.007789104 0.007872621 1000 1000 1000 0.007280791 0.007789104 0.007872621 1000 1000 1000 0.007782247 0.007357948 0.007564705 0.007359964 0.007555106 1000 0.007782247 0.007357948 0.007564705 0.007359964 0.007555106 1000
lala 6 1.2 0 second 11 1 147 6 4.380001 0.519997835159302 1 1 -1 1 0.006495819 0.006636569 0.007031603 0.00706462 0.007253699 1000 0.006495819 0.006636569 0.007031603 0.00706462 0.007253699 1000 0.007999685 0.007673432 0.007217283 0.007283542 0.007572616 1000 0.007999685 0.007673432 0.007217283 0.007283542 0.007572616 1000
lala 10 0.6 0 first 1 1 148 4 4.72 1.55999684333801 -1 1 -1 1 0.007323514 0.008141983 0.008002866 1000 1000 1000 0.007323514 0.008141983 0.008002866 1000 1000 1000 0.006625379 0.007120955 0.007483814 0.007882777 0.007804233 1000 0.006625379 0.007120955 0.007483814 0.007882777 0.007804233 1000
lala 9 1.2 0 second 6 1 149 4 2.64 0.61999773979187 1 0 -1 0 0.006605098 0.006233213 0.006259776 0.007191676 0.007477396 1000 0.006605098 0.006233213 0.006259776 0.007191676 0.007477396 1000 0.005949981 0.005570215 0.005822828 0.006337824 0.006503698 1000 0.005949981 0.005570215 0.005822828 0.006337824 0.006503698 1000
lala 13 0.3 1 second 4 1 150 6 5.76 0.659997701644897 -1 0 1 1 0.008571015 0.008053769 0.008257335 0.0085096 0.009104934 1000 0.008571015 0.008053769 0.008257335 0.0085096 0.009104934 1000 0.004330306 0.004737373 0.005780122 0.006029988 0.006143689 1000 0.004330306 0.004737373 0.005780122 0.006029988 0.006143689 1000
lala 12 0.6 1 first 10 1 151 6 4.56 0.739997625350952 1 0 1 1 0.01044524 0.01044141 0.01014017 1000 1000 1000 0.01044524 0.01044141 0.01014017 1000 1000 1000 0.009233529 0.009139433 0.009797078 0.009175387 0.008742373 1000 0.009233529 0.009139433 0.009797078 0.009175387 0.008742373 1000
lala 11 0.3 1 first 1 1 152 4 5.02 0.859997510910034 -1 1 1 0 0.006217523 0.006319358 0.005941499 1000 1000 1000 0.006217523 0.006319358 0.005941499 1000 1000 1000 0.00588386 0.00617989 0.00579716 0.005850278 0.005378868 1000 0.00588386 0.00617989 0.00579716 0.005850278 0.005378868 1000
lala 6 1.2 1 first 9 1 153 5 5.450001 0.359997987747192 1 1 1 0 0.003670902 0.003590483 0.003491986 1000 1000 1000 0.003670902 0.003590483 0.003491986 1000 1000 1000 0.003226955 0.003181766 0.002951197 0.002946941 0.00276889 1000 0.003226955 0.003181766 0.002951197 0.002946941 0.00276889 1000
lala 11 0.6 0 second 14 1 154 5 4.5 0.359997987747192 0 0 -1 1 0.002918003 0.002691753 0.002391941 0.002252542 0.002439118 1000 0.002918003 0.002691753 0.002391941 0.002252542 0.002439118 1000 0.002042835 0.002335248 0.002227417 0.00193151 0.002393032 1000 0.002042835 0.002335248 0.002227417 0.00193151 0.002393032 1000
lala 9 1.2 0 first 13 1 155 4 2.92 0.559997797012329 0 1 -1 1 0.00301145 0.003023792 0.002703999 1000 1000 1000 0.00301145 0.003023792 0.002703999 1000 1000 1000 0.002672406 0.002618738 0.00220421 0.00167925 0.0008488241 1000 0.002672406 0.002618738 0.00220421 0.00167925 0.0008488241 1000
lala 7 1.2 0 first 9 1 156 5 4.250001 0.61999773979187 1 1 -1 0 0.001801706 0.002203415 0.002650267 1000 1000 1000 0.001801706 0.002203415 0.002650267 1000 1000 1000 0.002480546 0.002125112 0.002439464 0.003013389 0.00338201 1000 0.002480546 0.002125112 0.002439464 0.003013389 0.00338201 1000
lala 9 1.2 1 first 8 1 157 5 3.3 0.759997606277466 1 0 1 1 0.001800503 0.001600638 0.001928617 1000 1000 1000 0.001800503 0.001600638 0.001928617 1000 1000 1000 0.0004683489 0.0005228666 0.0004156381 0.0005664909 0.0006001092 1000 0.0004683489 0.0005228666 0.0004156381 0.0005664909 0.0006001092 1000
lala 8 1.2 0 first 9 1 158 5 5.450001 0.459997892379761 1 1 -1 1 -5.674543E-05 -0.0007297662 -0.001958146 1000 1000 1000 -5.674543E-05 -0.0007297662 -0.001958146 1000 1000 1000 -0.01401443 -0.01365195 -0.01377523 -0.011769 -0.01215441 1000 -0.01401443 -0.01365195 -0.01377523 -0.011769 -0.01215441 1000
lala 9 1.2 1 second 9 1 159 5 6.650001 0.479997873306274 1 1 1 0 -0.01495454 -0.0149225 -0.01506143 -0.01543148 -0.0153733 1000 -0.01495454 -0.0149225 -0.01506143 -0.01543148 -0.0153733 1000 -0.01353384 -0.01464199 -0.01427288 -0.01323365 -0.01294066 1000 -0.01353384 -0.01464199 -0.01427288 -0.01323365 -0.01294066 1000
lala 4 1.2 1 second 0 1 160 4 6.24 0.559997797012329 -1 0 1 0 -0.003879572 -0.004536543 -0.004059908 -0.004502799 -0.003966514 1000 -0.003879572 -0.004536543 -0.004059908 -0.004502799 -0.003966514 1000 -0.0006297179 -0.0009221619 -0.001343085 -0.001108091 -0.0007007723 1000 -0.0006297179 -0.0009221619 -0.001343085 -0.001108091 -0.0007007723 1000
lala 10 0.6 0 second 13 1 161 4 3.52 0.439997911453247 0 1 -1 0 0.001105715 0.0009846996 0.0008610381 0.0007491651 0.001660055 1000 0.001105715 0.0009846996 0.0008610381 0.0007491651 0.001660055 1000 0.006501091 0.006413877 0.007599472 0.009677283 0.01060238 1000 0.006501091 0.006413877 0.007599472 0.009677283 0.01060238 1000
lala 12 0.15 0 first 12 1 162 4 3.09 2.5999960899353 0 0 -1 1 0.0218587 0.0178633 0.01370652 1000 1000 1000 0.0218587 0.0178633 0.01370652 1000 1000 1000 0.01072348 0.01063316 0.0105727 0.009997287 0.01067918 1000 0.01072348 0.01063316 0.0105727 0.009997287 0.01067918 1000
lala 8 1.2 1 second 17 1 163 6 6.780001 0.379997968673706 0 1 1 0 0.02109475 0.02784011 0.03132712 0.0311214 0.02818048 1000 0.02109475 0.02784011 0.03132712 0.0311214 0.02818048 1000 0.01323413 0.01145237 0.01080043 0.01007742 0.009383574 1000 0.01323413 0.01145237 0.01080043 0.01007742 0.009383574 1000
lala 9 1.2 1 second 17 1 164 6 5.580001 1.73999691009521 0 1 1 1 0.01294919 0.01754301 0.02026263 0.02105471 0.02030766 1000 0.01294919 0.01754301 0.02026263 0.02105471 0.02030766 1000 0.02981353 0.02825998 0.02450717 0.02362703 0.0250852 1000 0.02981353 0.02825998 0.02450717 0.02362703 0.0250852 1000
lala 11 0.6 1 second 13 1 165 4 4.12 2.33999633789063 0 1 1 1 0.01380555 0.01393363 0.01310504 0.01308458 0.01318756 1000 0.01380555 0.01393363 0.01310504 0.01308458 0.01318756 1000 0.01138068 0.01201202 0.01260097 0.01289406 0.0129768 1000 0.01138068 0.01201202 0.01260097 0.01289406 0.0129768 1000
lala 9 1.2 0 first 7 1 166 4 5.32 1.3999969959259 1 1 -1 1 0.01629448 0.01508887 0.01112313 1000 1000 1000 0.01629448 0.01508887 0.01112313 1000 1000 1000 0.01892825 0.0182878 0.01791842 0.01879581 0.01903124 1000 0.01892825 0.0182878 0.01791842 0.01879581 0.01903124 1000
lala 10 0.6 1 second 16 1 167 6 5.76 0.879997491836548 0 0 1 0 0.01927564 0.01932795 0.02033055 0.01974047 0.01844768 1000 0.01927564 0.01932795 0.02033055 0.01974047 0.01844768 1000 0.02179868 0.02226476 0.02205077 0.02128957 0.02113431 1000 0.02179868 0.02226476 0.02205077 0.02128957 0.02113431 1000
lala 11 0.6 0 first 16 1 168 6 5.16 1.23999714851379 0 0 -1 1 0.02529164 0.0255794 0.02486088 1000 1000 1000 0.02529164 0.0255794 0.02486088 1000 1000 1000 0.01979003 0.01921767 0.01915428 0.01855449 0.01782896 1000 0.01979003 0.01921767 0.01915428 0.01855449 0.01782896 1000
lala 12 0.3 0 first 16 1 169 6 5.46 0.859997510910034 0 0 -1 0 0.0197241 0.01972966 0.01988125 1000 1000 1000 0.0197241 0.01972966 0.01988125 1000 1000 1000 0.02100803 0.02105312 0.02121927 0.02153327 0.02128005 1000 0.02100803 0.02105312 0.02121927 0.02153327 0.02128005 1000
lala 7 1.2 1 first 11 1 170 6 5.580001 0.599997758865356 1 1 1 0 0.01978883 0.01949063 0.01959309 1000 1000 1000 0.01978883 0.01949063 0.01959309 1000 1000 1000 0.02088388 0.0207223 0.02069137 0.02068679 0.02047591 1000 0.02088388 0.0207223 0.02069137 0.02068679 0.02047591 1000
lala 5 1.2 1 second 0 1 171 4 5.04 0.499997854232788 -1 0 1 1 0.02081981 0.02083976 0.02049979 0.02004651 0.0203124 1000 0.02081981 0.02083976 0.02049979 0.02004651 0.0203124 1000 0.02145677 0.0209916 0.02135034 0.02226711 0.02224632 1000 0.02145677 0.0209916 0.02135034 0.02226711 0.02224632 1000
lala 10 0.6 1 second 5 1 172 6 7.380001 0.639997720718384 -1 1 1 0 0.02287726 0.0231632 0.0232726 0.02321426 0.02311099 1000 0.02287726 0.0231632 0.0232726 0.02321426 0.02311099 1000 0.0239601 0.02363402 0.02312846 0.02261679 0.02318498 1000 0.0239601 0.02363402 0.02312846 0.02261679 0.02318498 1000
lala 12 0.3 1 second 14 1 173 5 4.8 1.21999716758728 0 0 1 0 0.02455173 0.02393183 0.02365148 0.02390354 0.02521909 1000 0.02455173 0.02393183 0.02365148 0.02390354 0.02521909 1000 0.02490103 0.02558989 0.02616261 0.02651045 0.02670062 1000 0.02490103 0.02558989 0.02616261 0.02651045 0.02670062 1000
lala 10 0.6 0 first 8 1 174 5 2.7 1.77999687194824 1 0 -1 0 0.02426739 0.02426573 0.02475393 1000 1000 1000 0.02426739 0.02426573 0.02475393 1000 1000 1000 0.02472491 0.02533638 0.02532957 0.02486354 0.02450545 1000 0.02472491 0.02533638 0.02532957 0.02486354 0.02450545 1000
lala 8 1.2 0 first 15 1 175 5 5.45 0.379997968673706 0 1 -1 1 -0.02083935 -0.01190002 0.004813774 1000 1000 1000 -0.02083935 -0.01190002 0.004813774 1000 1000 1000 0.01568048 0.01678156 0.0170687 0.01441412 0.01707379 1000 0.01568048 0.01678156 0.0170687 0.01441412 0.01707379 1000
lala 13 0.15 1 first 14 1 176 5 4.65 0.779997587203979 0 0 1 1 0.02124576 0.02077585 0.02811402 1000 1000 1000 0.02124576 0.02077585 0.02811402 1000 1000 1000 0.01254997 0.01618632 0.01802369 0.0199692 0.02048583 1000 0.01254997 0.01618632 0.01802369 0.0199692 0.02048583 1000
lala 10 0.6 0 second 6 1 177 4 3.24 0.579997777938843 1 0 -1 1 0.01629396 0.01343963 0.01295635 0.01135229 0.01038066 1000 0.01629396 0.01343963 0.01295635 0.01135229 0.01038066 1000 0.01146966 0.01173138 0.01194668 0.01229067 0.01204756 1000 0.01146966 0.01173138 0.01194668 0.01229067 0.01204756 1000
lala 12 0.3 0 first 13 1 178 4 3.82 0.899997472763062 0 1 -1 0 0.01365046 0.01518921 0.01618367 1000 1000 1000 0.01365046 0.01518921 0.01618367 1000 1000 1000 0.01684104 0.01664467 0.01632153 0.01613036 0.01639088 1000 0.01684104 0.01664467 0.01632153 0.01613036 0.01639088 1000
lala 9 1.2 1 first 15 1 179 5 6.65 0.279998064041138 0 1 1 1 0.01604086 0.01648284 0.01702981 1000 1000 1000 0.01604086 0.01648284 0.01702981 1000 1000 1000 0.01922378 0.01906748 0.01951964 0.01937082 0.01942552 1000 0.01922378 0.01906748 0.01951964 0.01937082 0.01942552 1000
lala 12 0.3 0 first 2 1 180 5 4.2 3.33999538421631 -1 0 -1 0 0.01995314 0.02013609 0.02055318 1000 1000 1000 0.01995314 0.02013609 0.02055318 1000 1000 1000 0.01550323 0.01504125 0.01491908 0.01551098 0.01639332 1000 0.01550323 0.01504125 0.01491908 0.01551098 0.01639332 1000
lala 6 1.2 0 second 3 1 181 5 5.45 0.499997854232788 -1 1 -1 0 0.02012231 0.0203163 0.01992364 0.01994436 0.02033591 1000 0.02012231 0.0203163 0.01992364 0.01994436 0.02033591 1000 0.02037416 0.02070268 0.02115452 0.0210891 0.02062237 1000 0.02037416 0.02070268 0.02115452 0.0210891 0.02062237 1000
lala 13 0.15 1 second 13 1 182 4 3.97 0.379997968673706 0 1 1 1 0.0225119 0.02260658 0.02260531 0.02275657 0.0230007 1000 0.0225119 0.02260658 0.02260531 0.02275657 0.0230007 1000 0.02291747 0.02266376 0.02283367 0.02367537 0.02393426 1000 0.02291747 0.02266376 0.02283367 0.02367537 0.02393426 1000
lala 11 0.3 0 first 8 1 183 5 3 0.739997625350952 1 0 -1 0 0.02135763 0.0212589 0.02282313 1000 1000 1000 0.02135763 0.0212589 0.02282313 1000 1000 1000 0.02430173 0.02588747 0.02612008 0.02667654 0.02770765 1000 0.02430173 0.02588747 0.02612008 0.02667654 0.02770765 1000
lala 11 0.6 1 second 5 1 184 6 6.780001 0.539997816085815 -1 1 1 1 0.01804537 0.01792551 0.0174122 0.01720454 0.01706832 1000 0.01804537 0.01792551 0.0174122 0.01720454 0.01706832 1000 0.01789793 0.01838901 0.01795168 0.01741566 0.01713228 1000 0.01789793 0.01838901 0.01795168 0.01741566 0.01713228 1000
lala 6 1.2 1 first 0 1 185 4 3.84 0.659997701644897 -1 0 1 0 0.01638959 0.01639817 0.01611704 1000 1000 1000 0.01638959 0.01639817 0.01611704 1000 1000 1000 0.01655966 0.01625936 0.01592272 0.01571874 0.01605531 1000 0.01655966 0.01625936 0.01592272 0.01571874 0.01605531 1000
lala 14 0.075 0 first 13 1 186 4 3.895 0.919997453689575 0 1 -1 0 0.01849179 0.01867092 0.0185305 1000 1000 1000 0.01849179 0.01867092 0.0185305 1000 1000 1000 0.0203453 0.02049325 0.02053003 0.02122833 0.0211397 1000 0.0203453 0.02049325 0.02053003 0.02122833 0.0211397 1000
lala 10 2.4 0 second 17 1 187 6 3.180001 0.679997682571411 0 1 -1 0 0.02394978 0.02402812 0.02413897 0.0237877 0.02377341 1000 0.02394978 0.02402812 0.02413897 0.0237877 0.02377341 1000 0.02410252 0.0240695 0.02401293 0.02437914 0.02439843 1000 0.02410252 0.0240695 0.02401293 0.02437914 0.02439843 1000
lala 13 0.3 1 second 16 1 188 6 5.76 0.359997987747192 0 0 1 0 0.02354139 0.02313399 0.02315426 0.02257949 0.02298221 1000 0.02354139 0.02313399 0.02315426 0.02257949 0.02298221 1000 0.02276997 0.02285988 0.0230007 0.02327412 0.02327023 1000 0.02276997 0.02285988 0.0230007 0.02327412 0.02327023 1000
lala 11 1.2 0 first 17 1 189 6 4.380001 0.39999794960022 0 1 -1 1 0.02254498 0.02254835 0.0228537 1000 1000 1000 0.02254498 0.02254835 0.0228537 1000 1000 1000 0.02312713 0.02283942 0.02337495 0.02327522 0.02350153 1000 0.02312713 0.02283942 0.02337495 0.02327522 0.02350153 1000
lala 7 1.2 0 second 0 1 190 4 2.64 0.539997816085815 -1 0 -1 0 0.02382549 0.02375238 0.02341595 0.02361324 0.02364016 1000 0.02382549 0.02375238 0.02341595 0.02361324 0.02364016 1000 0.02369729 0.02386452 0.02378769 0.02360554 0.02362161 1000 0.02369729 0.02386452 0.02378769 0.02360554 0.02362161 1000
lala 15 0.0375 1 first 13 1 191 4 3.9325 0.939997434616089 0 1 1 1 0.02333914 0.02348282 0.02357581 1000 1000 1000 0.02333914 0.02348282 0.02357581 1000 1000 1000 0.02501267 0.02527947 0.02575736 0.02567486 0.02561975 1000 0.02501267 0.02527947 0.02575736 0.02567486 0.02561975 1000
lala 12 0.15 1 second 1 1 192 4 4.87 0.559997797012329 -1 1 1 1 0.01322285 0.01335094 0.01344675 0.01344307 0.01330728 1000 0.01322285 0.01335094 0.01344675 0.01344307 0.01330728 1000 0.01385436 0.01393635 0.01423415 0.01418553 0.0144603 1000 0.01385436 0.01393635 0.01423415 0.01418553 0.0144603 1000
lala 10 1.2 0 first 7 1 193 4 6.52 0.61999773979187 1 1 -1 1 0.01408566 0.01399275 0.01391695 1000 1000 1000 0.01408566 0.01399275 0.01391695 1000 1000 1000 0.01445865 0.01437645 0.01368647 0.01343623 0.01351864 1000 0.01445865 0.01437645 0.01368647 0.01343623 0.01351864 1000
lala 14 0.15 0 first 16 1 194 6 5.61 0.39999794960022 0 0 -1 1 0.01479168 0.01283297 0.01273225 1000 1000 1000 0.01479168 0.01283297 0.01273225 1000 1000 1000 0.01203304 0.01159384 0.01173673 0.01248048 0.0120875 1000 0.01203304 0.01159384 0.01173673 0.01248048 0.0120875 1000
lala 12 0.3 0 first 8 1 195 5 3.3 0.199998140335083 1 0 -1 0 0.01246559 0.01269186 0.01249085 1000 1000 1000 0.01246559 0.01269186 0.01249085 1000 1000 1000 0.01498314 0.01507071 0.0150936 0.01500799 0.01476113 1000 0.01498314 0.01507071 0.0150936 0.01500799 0.01476113 1000
lala 7 1.2 1 second 3 1 196 5 6.65 0.339998006820679 -1 1 1 0 0.01561749 0.01622465 0.01663499 0.01698385 0.01703869 1000 0.01561749 0.01622465 0.01663499 0.01698385 0.01703869 1000 0.01770312 0.0174691 0.01759669 0.01724827 0.01750056 1000 0.01770312 0.0174691 0.01759669 0.01724827 0.01750056 1000
lala 13 1.2 1 first 10 1 197 6 3.36 0.679997682571411 1 0 1 0 0.01761083 0.01752184 0.01854254 1000 1000 1000 0.01761083 0.01752184 0.01854254 1000 1000 1000 0.01761558 0.01819227 0.01846297 0.01870115 0.01855206 1000 0.01761558 0.01819227 0.01846297 0.01870115 0.01855206 1000
lala 16 0.01875 1 first 13 1 198 4 3.91375 0.519997835159302 0 1 1 1 0.01909377 0.01884975 0.01922482 1000 1000 1000 0.01909377 0.01884975 0.01922482 1000 1000 1000 0.02010971 0.02026442 0.02045721 0.02078811 0.02066675 1000 0.02010971 0.02026442 0.02045721 0.02078811 0.02066675 1000
lala 15 0.075 1 first 16 1 199 6 5.685 0.379997968673706 0 0 1 1 0.02023067 0.0195705 0.0202662 1000 1000 1000 0.02023067 0.0195705 0.0202662 1000 1000 1000 0.0230062 0.02415388 0.02449126 0.02391789 0.02350773 1000 0.0230062 0.02415388 0.02449126 0.02391789 0.02350773 1000
lala 17 0.01875 0 first 13 1 200 4 3.895 0.39999794960022 0 1 -1 1 0.0120793 0.01358556 0.01547342 0.01565028 0.01626514 0.01750866 0.0120793 0.01358556 0.01547342 0.01565028 0.01626514 0.01750866 0.01840967 0.01841704 0.0193711 0.01948954 0.01938735 1000 0.01840967 0.01841704 0.0193711 0.01948954 0.01938735 1000
lala 11 0.6 0 first 6 1 201 4 3.84 0.339998006820679 1 0 -1 1 0.01973464 0.01935641 0.01909984 1000 1000 1000 0.01973464 0.01935641 0.01909984 1000 1000 1000 0.02064744 0.02056596 0.02060039 0.02189703 0.02262055 1000 0.02064744 0.02056596 0.02060039 0.02189703 0.02262055 1000
lala 18 0.009375 0 second 13 1 202 4 3.904375 0.39999794960022 0 1 -1 0 0.02072666 0.0207407 0.02079011 0.02048096 0.02060521 1000 0.02072666 0.0207407 0.02079011 0.02048096 0.02060521 1000 0.02338386 0.02486666 0.02562595 0.02546559 0.02524687 1000 0.02338386 0.02486666 0.02562595 0.02546559 0.02524687 1000
lala 10 0.6 1 first 9 1 203 5 6.050001 0.359997987747192 1 1 1 1 0.02345212 0.0238857 0.02385035 1000 1000 1000 0.02345212 0.0238857 0.02385035 1000 1000 1000 0.02378783 0.02360763 0.02418093 0.02496575 0.02576315 1000 0.02378783 0.02360763 0.02418093 0.02496575 0.02576315 1000
lala 12 0.6 1 first 6 1 204 4 4.44 0.379997968673706 1 0 1 0 0.02270239 0.02097343 0.02014808 1000 1000 1000 0.02270239 0.02097343 0.02014808 1000 1000 1000 0.02020087 0.01991738 0.02051988 0.02079088 0.02067446 1000 0.02020087 0.01991738 0.02051988 0.02079088 0.02067446 1000
lala 8 1.2 1 second 3 1 205 5 5.45 0.259998083114624 -1 1 1 0 0.02228254 0.02254682 0.0223428 0.02309363 0.02318154 1000 0.02228254 0.02254682 0.0223428 0.02309363 0.02318154 1000 0.02297904 0.02255282 0.02210755 0.0223961 0.02191065 1000 0.02297904 0.02255282 0.02210755 0.0223961 0.02191065 1000
lala 11 0.6 1 second 9 1 206 5 5.450001 0.39999794960022 1 1 1 0 0.02305979 0.02349988 0.02393519 0.02423668 0.02492022 1000 0.02305979 0.02349988 0.02393519 0.02423668 0.02492022 1000 0.02567795 0.02499472 0.02373593 0.02358135 0.02406434 1000 0.02567795 0.02499472 0.02373593 0.02358135 0.02406434 1000
lala 14 0.15 1 second 4 1 207 6 5.61 0.259998083114624 -1 0 1 1 0.0136216 0.01109579 0.01117989 0.01036649 0.01003768 1000 0.0136216 0.01109579 0.01117989 0.01036649 0.01003768 1000 0.01342831 0.01417825 0.01407164 0.0152139 0.0154084 1000 0.01342831 0.01417825 0.01407164 0.0152139 0.0154084 1000
lala 10 0.6 1 second 15 1 208 5 6.05 0.259998083114624 0 1 1 0 0.01578887 0.0163444 0.01640034 0.01544267 0.01539083 1000 0.01578887 0.0163444 0.01640034 0.01544267 0.01539083 1000 0.01650902 0.01701064 0.01670844 0.01713665 0.0174518 1000 0.01650902 0.01701064 0.01670844 0.01713665 0.0174518 1000
lala 16 0.0375 1 first 16 1 209 6 5.6475 0.419997930526733 0 0 1 0 0.01789334 0.01891151 0.01917209 1000 1000 1000 0.01789334 0.01891151 0.01917209 1000 1000 1000 0.01972719 0.02019855 0.02044788 0.02059267 0.0203984 1000 0.01972719 0.02019855 0.02044788 0.02059267 0.0203984 1000
lala 11 0.6 0 second 15 1 210 5 5.45 0.539997816085815 0 1 -1 1 0.01993273 0.01981006 0.01959762 0.01921285 0.01857251 1000 0.01993273 0.01981006 0.01959762 0.01921285 0.01857251 1000 0.02112279 0.02133498 0.02164762 0.02193817 0.02115607 1000 0.02112279 0.02133498 0.02164762 0.02193817 0.02115607 1000
lala 13 0.3 1 first 6 1 211 4 4.139999 0.639997720718384 1 0 1 1 0.02086494 0.02075163 0.02098451 1000 1000 1000 0.02086494 0.02075163 0.02098451 1000 1000 1000 0.02117402 0.02103361 0.02177923 0.02152227 0.02080721 1000 0.02117402 0.02103361 0.02177923 0.02152227 0.02080721 1000
lala 13 0.15 0 first 12 1 212 4 3.24 0.319998025894165 0 0 -1 1 0.02178978 0.02181694 0.02165515 1000 1000 1000 0.02178978 0.02181694 0.02165515 1000 1000 1000 0.02150582 0.02197591 0.02284845 0.02221349 0.02167325 1000 0.02150582 0.02197591 0.02284845 0.02221349 0.02167325 1000
lala 8 1.2 0 first 11 1 213 6 4.380001 0.739997625350952 1 1 -1 0 0.02143153 0.02222629 0.02266171 1000 1000 1000 0.02143153 0.02222629 0.02266171 1000 1000 1000 0.02436206 0.02494496 0.02472902 0.02479351 0.02455416 1000 0.02436206 0.02494496 0.02472902 0.02479351 0.02455416 1000
lala 13 0.15 0 first 2 1 214 5 4.35 0.779997587203979 -1 0 -1 0 0.01743248 0.008346109 -0.0008195117 1000 1000 1000 0.01743248 0.008346109 -0.0008195117 1000 1000 1000 0.005127837 0.005473183 0.007427353 0.009767083 0.0124336 1000 0.005127837 0.005473183 0.007427353 0.009767083 0.0124336 1000
lala 9 1.2 0 second 3 1 215 5 4.25 0.519997835159302 -1 1 -1 1 0.02127412 0.02085443 0.0197555 0.01988962 0.02022333 1000 0.02127412 0.02085443 0.0197555 0.01988962 0.02022333 1000 0.02198547 0.02230379 0.02345503 0.02364695 0.02288579 1000 0.02198547 0.02230379 0.02345503 0.02364695 0.02288579 1000
lala 12 0.6 0 first 9 1 216 5 4.850001 0.939997434616089 1 1 -1 0 0.02478149 0.02435697 0.02239807 1000 1000 1000 0.02478149 0.02435697 0.02239807 1000 1000 1000 0.02391163 0.0243552 0.02464831 0.02505042 0.02592302 1000 0.02391163 0.0243552 0.02464831 0.02505042 0.02592302 1000
lala 15 0.15 1 second 4 1 217 6 5.46 0.659997701644897 -1 0 1 1 0.0163746 0.01675942 0.01679698 0.0159166 0.01628487 1000 0.0163746 0.01675942 0.01679698 0.0159166 0.01628487 1000 0.01534375 0.01869178 0.02107462 0.01995112 0.01956606 1000 0.01534375 0.01869178 0.02107462 0.01995112 0.01956606 1000
lala 12 0.3 1 second 15 1 218 5 5.75 0.779997587203979 0 1 1 1 0.0303151 0.03059565 0.03022596 0.03128885 0.03225059 1000 0.0303151 0.03059565 0.03022596 0.03128885 0.03225059 1000 0.03025289 0.0291924 0.0300615 0.03167834 0.03078705 1000 0.03025289 0.0291924 0.0300615 0.03167834 0.03078705 1000
lala 9 1.2 1 first 11 1 219 6 5.580001 0.819997549057007 1 1 1 1 0.02444812 0.02437181 0.02408236 1000 1000 1000 0.02444812 0.02437181 0.02408236 1000 1000 1000 0.02555007 0.02515281 0.02455629 0.02394362 0.02348419 1000 0.02555007 0.02515281 0.02455629 0.02394362 0.02348419 1000
lala 11 2.4 1 second 7 1 220 4 8.92 0.299998044967651 1 1 1 0 0.01879623 0.01897081 0.01998451 0.01950692 0.01921704 1000 0.01879623 0.01897081 0.01998451 0.01950692 0.01921704 1000 0.01591112 0.01596123 0.01672108 0.01697587 0.01759618 1000 0.01591112 0.01596123 0.01672108 0.01697587 0.01759618 1000
lala 13 0.3 1 first 8 1 221 5 3.6 1.23999714851379 1 0 1 1 0.01819222 0.01845277 0.0187304 1000 1000 1000 0.01819222 0.01845277 0.0187304 1000 1000 1000 0.01958758 0.02008448 0.01999128 0.02011863 0.01969158 1000 0.01958758 0.02008448 0.01999128 0.02011863 0.01969158 1000
lala 14 0.15 0 second 12 1 222 4 3.39 0.319998025894165 0 0 -1 0 0.02116558 0.02114335 0.0212574 0.02132924 0.02115435 1000 0.02116558 0.02114335 0.0212574 0.02132924 0.02115435 1000 0.0203315 0.02074906 0.02028426 0.02014224 0.02061892 1000 0.0203315 0.02074906 0.02028426 0.02014224 0.02061892 1000
lala 14 0.15 0 second 2 1 223 5 4.5 0.599997758865356 -1 0 -1 1 0.0203901 0.02046072 0.0206554 0.02074699 0.02063424 1000 0.0203901 0.02046072 0.0206554 0.02074699 0.02063424 1000 0.02058791 0.02072361 0.02025689 0.02037025 0.02025344 1000 0.02058791 0.02072361 0.02025689 0.02037025 0.02025344 1000
lala 12 1.2 0 first 17 1 224 6 5.580001 0.499997854232788 0 1 -1 0 0.02072639 0.02036186 0.01997673 1000 1000 1000 0.02072639 0.02036186 0.01997673 1000 1000 1000 0.02131763 0.02130968 0.02131696 0.02180599 0.02169541 1000 0.02131763 0.02130968 0.02131696 0.02180599 0.02169541 1000
lala 17 0.0375 0 second 16 1 225 6 5.61 0.959997415542603 0 0 -1 0 0.0214374 0.02193143 0.02198627 0.02196063 0.02172872 1000 0.0214374 0.02193143 0.02198627 0.02196063 0.02172872 1000 0.0213132 0.02127738 0.02152882 0.02143447 0.02140226 1000 0.0213132 0.02127738 0.02152882 0.02143447 0.02140226 1000
lala 15 0.15 0 first 2 1 226 5 4.65 0.679997682571411 -1 0 -1 1 0.02246473 0.02203856 0.02140557 1000 1000 1000 0.02246473 0.02203856 0.02140557 1000 1000 1000 0.0232619 0.02337172 0.02394014 0.02420145 0.02430464 1000 0.0232619 0.02337172 0.02394014 0.02420145 0.02430464 1000
lala 16 0.15 1 second 4 1 227 6 5.31 0.319998025894165 -1 0 1 1 0.02401446 0.02433857 0.02444664 0.02438255 0.02443584 1000 0.02401446 0.02433857 0.02444664 0.02438255 0.02443584 1000 0.02387598 0.02371134 0.02420671 0.02415341 0.02461704 1000 0.02387598 0.02371134 0.02420671 0.02415341 0.02461704 1000
lala 12 0.6 1 second 5 1 228 6 6.180001 0.479997873306274 -1 1 1 1 0.02546899 0.02527232 0.02495317 0.02514119 0.02523924 1000 0.02546899 0.02527232 0.02495317 0.02514119 0.02523924 1000 0.02612292 0.02705801 0.02745254 0.02713686 0.02680608 1000 0.02612292 0.02705801 0.02745254 0.02713686 0.02680608 1000
lala 14 2.4 0 first 10 1 229 6 1.98 0.159998178482056 1 0 -1 1 0.005566352 0.0009921787 -0.001575296 1000 1000 1000 0.005566352 0.0009921787 -0.001575296 1000 1000 1000 -0.00232204 -0.002415844 -0.002459966 -0.001670576 -0.001444051 1000 -0.00232204 -0.002415844 -0.002459966 -0.001670576 -0.001444051 1000
lala 14 0.15 1 second 14 1 230 5 4.5 0.759997606277466 0 0 1 1 0.003919045 0.004048313 0.003976448 0.004241428 0.004666066 1000 0.003919045 0.004048313 0.003976448 0.004241428 0.004666066 1000 0.002345565 0.002924728 0.003109899 0.003616042 0.003558987 1000 0.002345565 0.002924728 0.003109899 0.003616042 0.003558987 1000
lala 16 0.3 1 second 2 1 231 5 4.95 0.299998044967651 -1 0 1 0 0.004538918 0.004242535 0.004317302 0.004981133 0.004853268 1000 0.004538918 0.004242535 0.004317302 0.004981133 0.004853268 1000 0.003289935 0.003341806 0.003711696 0.004224738 0.00413864 1000 0.003289935 0.003341806 0.003711696 0.004224738 0.00413864 1000
lala 19 0.009375 1 first 13 1 232 4 3.91375 0.419997930526733 0 1 1 1 0.004100426 0.003544843 0.001994469 1000 1000 1000 0.004100426 0.003544843 0.001994469 1000 1000 1000 0.003009811 0.0037165 0.004913314 0.004602832 0.0045586 1000 0.003009811 0.0037165 0.004913314 0.004602832 0.0045586 1000
lala 14 0.15 0 first 8 1 233 5 3.45 0.679997682571411 1 0 -1 1 0.005471267 0.00572609 0.006359805 1000 1000 1000 0.005471267 0.00572609 0.006359805 1000 1000 1000 0.007697397 0.007692466 0.007672812 0.007703949 0.007404489 1000 0.007697397 0.007692466 0.007672812 0.007703949 0.007404489 1000
lala 15 0.075 0 first 8 1 234 5 3.525 0.299998044967651 1 0 -1 1 0.007318498 0.007606966 0.007632622 1000 1000 1000 0.007318498 0.007606966 0.007632622 1000 1000 1000 0.007768592 0.008197446 0.008315871 0.008422973 0.008476015 1000 0.007768592 0.008197446 0.008315871 0.008422973 0.008476015 1000
lala 15 0.3 0 second 12 1 235 4 3.69 1.3999969959259 0 0 -1 0 0.003067369 0.008267928 0.01547134 0.01862243 0.02073812 1000 0.003067369 0.008267928 0.01547134 0.01862243 0.02073812 1000 0.02142638 0.02144758 0.02287803 0.02284202 0.02228532 1000 0.02142638 0.02144758 0.02287803 0.02284202 0.02228532 1000
lala 16 0.6 1 first 12 1 236 4 4.29 0.479997873306274 0 0 1 1 0.01216503 0.01185796 0.01257257 1000 1000 1000 0.01216503 0.01185796 0.01257257 1000 1000 1000 0.02055274 0.02078942 0.0210957 0.02121732 0.02120952 1000 0.02055274 0.02078942 0.0210957 0.02121732 0.02120952 1000
lala 20 0.0046875 0 second 13 1 237 4 3.909063 0.679997682571411 0 1 -1 0 0.0194465 0.01896303 0.01922856 0.01966562 0.01929232 1000 0.0194465 0.01896303 0.01922856 0.01966562 0.01929232 1000 0.02060609 0.02025675 0.02071633 0.02100338 0.02131828 1000 0.02060609 0.02025675 0.02071633 0.02100338 0.02131828 1000
lala 13 0.15 1 first 15 1 238 5 5.6 0.939997434616089 0 1 1 1 0.02049399 0.02040521 0.0206679 1000 1000 1000 0.02049399 0.02040521 0.0206679 1000 1000 1000 0.02064751 0.02115656 0.02136114 0.02122523 0.02126718 1000 0.02064751 0.02115656 0.02136114 0.02122523 0.02126718 1000
lala 14 0.15 1 second 15 1 239 5 5.45 0.919997453689575 0 1 1 0 0.02112225 0.02058798 0.02097121 0.02122124 0.02094061 1000 0.02112225 0.02058798 0.02097121 0.02122124 0.02094061 1000 0.01992501 0.0199711 0.02017608 0.01987297 0.02015556 1000 0.01992501 0.0199711 0.02017608 0.01987297 0.02015556 1000
lala 17 0.3 0 second 4 1 240 6 5.01 0.839997529983521 -1 0 -1 1 0.01901398 0.01920948 0.0192633 0.01904996 0.01907756 1000 0.01901398 0.01920948 0.0192633 0.01904996 0.01907756 1000 0.0191588 0.01955164 0.01959541 0.01972081 0.01935525 1000 0.0191588 0.01955164 0.01959541 0.01972081 0.01935525 1000
lala 14 0.3 1 first 6 1 241 4 3.839999 0.579997777938843 1 0 1 1 0.01681789 0.01602548 0.01601137 1000 1000 1000 0.01681789 0.01602548 0.01601137 1000 1000 1000 0.01758579 0.01796371 0.01768173 0.01747937 0.0178047 1000 0.01758579 0.01796371 0.01768173 0.01747937 0.0178047 1000
lala 18 0.01875 1 second 16 1 242 6 5.62875 0.639997720718384 0 0 1 0 0.01813298 0.02105704 0.0228382 0.02154188 0.02070333 1000 0.01813298 0.02105704 0.0228382 0.02154188 0.02070333 1000 0.01890994 0.01868996 0.01888861 0.0190591 0.01904074 1000 0.01890994 0.01868996 0.01888861 0.0190591 0.01904074 1000
lala 17 0.3 0 second 12 1 243 4 3.99 1.25999712944031 0 0 -1 0 0.01848106 0.01867818 0.01931608 0.01955392 0.01966946 1000 0.01848106 0.01867818 0.01931608 0.01955392 0.01966946 1000 0.01957936 0.01932646 0.0191774 0.01932721 0.01902862 1000 0.01957936 0.01932646 0.0191774 0.01932721 0.01902862 1000
lala 10 0.6 0 first 11 1 244 6 4.980001 2.67999601364136 1 1 -1 0 0.01931443 0.01918224 0.01931649 1000 1000 1000 0.01931443 0.01918224 0.01931649 1000 1000 1000 0.01837339 0.01839047 0.01777363 0.01759028 0.01734235 1000 0.01837339 0.01839047 0.01777363 0.01759028 0.01734235 1000
lala 15 0.15 1 second 15 1 245 5 5.3 0.879997491836548 0 1 1 1 0.0156533 0.0159005 0.01630061 0.01573474 0.01566487 1000 0.0156533 0.0159005 0.01630061 0.01573474 0.01566487 1000 0.01546906 0.01519115 0.01567779 0.01568242 0.01570391 1000 0.01546906 0.01519115 0.01567779 0.01568242 0.01570391 1000
lala 13 1.2 0 second 5 1 246 6 4.98 0.359997987747192 -1 1 -1 0 0.01386854 0.01391117 0.01405763 0.01460372 0.01431975 1000 0.01386854 0.01391117 0.01405763 0.01460372 0.01431975 1000 0.01288764 0.0128842 0.01297759 0.01343895 0.01365444 1000 0.01288764 0.0128842 0.01297759 0.01343895 0.01365444 1000
lala 12 1.2 1 second 7 1 247 4 7.72 0.179998159408569 1 1 1 0 0.01526184 0.01545059 0.01571228 0.01519568 0.01527785 1000 0.01526184 0.01545059 0.01571228 0.01519568 0.01527785 1000 0.01469745 0.01473263 0.01469622 0.01494152 0.01463518 1000 0.01469745 0.01473263 0.01469622 0.01494152 0.01463518 1000
lala 15 1.2 0 first 10 1 248 6 3.18 0.439997911453247 1 0 -1 1 0.01437921 0.01448755 0.01478153 1000 1000 1000 0.01437921 0.01448755 0.01478153 1000 1000 1000 0.01629784 0.01633619 0.01612799 0.01651784 0.01661523 1000 0.01629784 0.01633619 0.01612799 0.01651784 0.01661523 1000
lala 8 1.2 0 first 0 1 249 4 3.84 0.319998025894165 -1 0 -1 0 0.007129439 0.007272471 0.008316952 1000 1000 1000 0.007129439 0.007272471 0.008316952 1000 1000 1000 0.01421855 0.0196364 0.01886772 0.01693158 0.01516659 1000 0.01421855 0.0196364 0.01886772 0.01693158 0.01516659 1000
lala 18 0.15 0 first 12 1 250 4 4.14 0.659997701644897 0 0 -1 0 0.02472381 0.02534098 0.02141212 0.01752834 0.01717222 0.01535927 0.02472381 0.02534098 0.02141212 0.01752834 0.01717222 0.01535927 0.02055189 0.01989537 0.02006165 0.02074732 0.02172945 1000 0.02055189 0.01989537 0.02006165 0.02074732 0.02172945 1000
lala 16 0.3 1 first 15 1 251 5 5 0.699997663497925 0 1 1 0 0.02384827 0.02293502 0.02286366 1000 1000 1000 0.02384827 0.02293502 0.02286366 1000 1000 1000 0.02252965 0.02244061 0.02250443 0.02247285 0.02233085 1000 0.02252965 0.02244061 0.02250443 0.02247285 0.02233085 1000
lala 19 0.15 1 second 12 1 252 4 4.29 0.439997911453247 0 0 1 1 0.02283834 0.02315114 0.02378877 0.02317375 0.02237385 1000 0.02283834 0.02315114 0.02378877 0.02317375 0.02237385 1000 0.02431556 0.02474786 0.02499341 0.0256413 0.02537021 1000 0.02431556 0.02474786 0.02499341 0.0256413 0.02537021 1000
lala 15 0.3 1 first 6 1 253 4 3.539999 0.719997644424438 1 0 1 1 0.02205483 0.01868202 0.01756555 1000 1000 1000 0.02205483 0.01868202 0.01756555 1000 1000 1000 0.01446942 0.01429208 0.01427944 0.01475401 0.0149834 1000 0.01446942 0.01429208 0.01427944 0.01475401 0.0149834 1000
lala 13 0.15 0 first 1 1 254 4 4.72 1.05999732017517 -1 1 -1 1 0.0165012 0.01603806 0.01610331 1000 1000 1000 0.0165012 0.01603806 0.01610331 1000 1000 1000 0.01741163 0.01792066 0.0180257 0.01719586 0.01657093 1000 0.01741163 0.01792066 0.0180257 0.01719586 0.01657093 1000
lala 11 0.3 1 second 11 1 255 6 5.280001 0.359997987747192 1 1 1 0 0.01568206 0.01539382 0.01546183 0.01507755 0.01501604 1000 0.01568206 0.01539382 0.01546183 0.01507755 0.01501604 1000 0.01541439 0.01594126 0.01538526 0.01492666 0.0143919 1000 0.01541439 0.01594126 0.01538526 0.01492666 0.0143919 1000
lala 21 0.00234375 1 first 13 1 256 4 3.911406 3.49999523162842 0 1 1 1 0.01529993 0.01642795 0.01617954 1000 1000 1000 0.01529993 0.01642795 0.01617954 1000 1000 1000 -0.002713858 -0.00312894 -0.003881854 -0.004815156 -0.005324859 1000 -0.002713858 -0.00312894 -0.003881854 -0.004815156 -0.005324859 1000
lala 19 0.009375 0 first 16 1 257 6 5.619375 0.639997720718384 0 0 -1 1 0.005531537 0.001016864 -0.005971478 1000 1000 1000 0.005531537 0.001016864 -0.005971478 1000 1000 1000 -0.02852834 -0.00821769 0.003442286 0.003456008 0.000316611 1000 -0.02852834 -0.00821769 0.003442286 0.003456008 0.000316611 1000
lala 13 1.2 1 second 17 1 258 6 6.780001 0.419997930526733 0 1 1 0 0.0101989 0.009922956 0.01121308 0.01308704 0.01462743 1000 0.0101989 0.009922956 0.01121308 0.01308704 0.01462743 1000 0.01763446 0.01765566 0.016831 0.01636907 0.0164032 1000 0.01763446 0.01765566 0.016831 0.01636907 0.0164032 1000
lala 9 1.2 0 second 0 1 259 4 5.04 0.39999794960022 -1 0 -1 0 0.0116454 0.01136751 0.01171086 0.01181357 0.01139526 1000 0.0116454 0.01136751 0.01171086 0.01181357 0.01139526 1000 0.008351182 0.008506611 0.008375769 0.00789164 0.007800993 1000 0.008351182 0.008506611 0.008375769 0.00789164 0.007800993 1000
lala 13 0.3 1 second 9 1 260 5 5.150001 0.539997816085815 1 1 1 1 0.01027955 0.01047906 0.01050278 0.01041792 0.01044012 1000 0.01027955 0.01047906 0.01050278 0.01041792 0.01044012 1000 0.008724875 0.008467143 0.008230655 0.008373914 0.008460369 1000 0.008724875 0.008467143 0.008230655 0.008373914 0.008460369 1000
lala 16 1.2 1 second 10 1 261 6 4.38 1.33999705314636 1 0 1 1 0.001424946 0.0006154877 0.0004419389 0.0006128215 0.0006604622 1000 0.001424946 0.0006154877 0.0004419389 0.0006128215 0.0006604622 1000 -0.0009344924 -0.001591961 -0.001571914 -0.0006797219 -0.0006178056 1000 -0.0009344924 -0.001591961 -0.001571914 -0.0006797219 -0.0006178056 1000
lala 17 0.15 0 first 2 1 262 5 4.8 0.459997892379761 -1 0 -1 1 -0.002005362 -0.0009987137 -0.0004674908 1000 1000 1000 -0.002005362 -0.0009987137 -0.0004674908 1000 1000 1000 0.0002155486 0.0003916607 0.001018523 0.001354678 0.001640904 1000 0.0002155486 0.0003916607 0.001018523 0.001354678 0.001640904 1000
lala 18 0.15 0 first 4 1 263 6 5.16 0.39999794960022 -1 0 -1 0 -0.0001319606 -0.0009958654 -0.0003260244 1000 1000 1000 -0.0001319606 -0.0009958654 -0.0003260244 1000 1000 1000 0.0001339264 0.0005784561 0.0007286219 0.0008219425 0.0004927868 1000 0.0001339264 0.0005784561 0.0007286219 0.0008219425 0.0004927868 1000
lala 22 0.001171875 1 second 13 1 264 4 3.910234 0.479997873306274 0 1 1 1 0.0005357303 0.0004164681 0.0001360515 0.0003015622 0.0004482913 1000 0.0005357303 0.0004164681 0.0001360515 0.0003015622 0.0004482913 1000 0.001614099 0.001637106 0.0005786266 0.0004292264 0.0006215452 1000 0.001614099 0.001637106 0.0005786266 0.0004292264 0.0006215452 1000
lala 10 0.6 0 first 3 1 265 5 4.85 0.559997797012329 -1 1 -1 0 0.003719342 0.004638738 0.005070109 1000 1000 1000 0.003719342 0.004638738 0.005070109 1000 1000 1000 0.007145529 0.007621847 0.008157164 0.008264798 0.00783275 1000 0.007145529 0.007621847 0.008157164 0.008264798 0.00783275 1000
lala 17 0.6 0 second 10 1 266 6 3.78 0.339998006820679 1 0 -1 1 0.007574908 0.00758058 0.006593749 0.005346471 0.001924493 1000 0.007574908 0.00758058 0.006593749 0.005346471 0.001924493 1000 8.871381E-05 0.0009183548 0.0009285049 0.002592969 0.004263593 1000 8.871381E-05 0.0009183548 0.0009285049 0.002592969 0.004263593 1000
lala 19 0.15 1 second 4 1 267 6 5.31 0.359997987747192 -1 0 1 0 0.02084153 0.02034422 0.01988761 0.02068602 0.02174107 1000 0.02084153 0.02034422 0.01988761 0.02068602 0.02174107 1000 0.01646925 0.01631012 0.01524098 0.01520294 0.01606709 1000 0.01646925 0.01631012 0.01524098 0.01520294 0.01606709 1000
lala 15 0.15 0 first 14 1 268 5 4.35 0.819997549057007 0 0 -1 0 0.01862757 0.02249892 0.02579104 1000 1000 1000 0.01862757 0.02249892 0.02579104 1000 1000 1000 0.02179871 0.02165327 0.02217104 0.02245438 0.02212222 1000 0.02179871 0.02165327 0.02217104 0.02245438 0.02212222 1000
lala 23 0.001171875 1 first 13 1 269 4 3.909063 0.259998083114624 0 1 1 0 0.01986647 0.01881319 0.01854685 1000 1000 1000 0.01986647 0.01881319 0.01854685 1000 1000 1000 0.01830735 0.01882401 0.01808464 0.01807926 0.01879285 1000 0.01830735 0.01882401 0.01808464 0.01807926 0.01879285 1000
lala 18 0.3 0 first 10 1 270 6 4.08 0.599997758865356 1 0 -1 1 0.01715474 0.01719294 0.01689412 1000 1000 1000 0.01715474 0.01719294 0.01689412 1000 1000 1000 0.01416297 0.0152205 0.0160741 0.01617347 0.0163573 1000 0.01416297 0.0152205 0.0160741 0.01617347 0.0163573 1000
lala 13 1.2 1 first 7 1 271 4 6.52 0.539997816085815 1 1 1 1 0.01632095 0.01636073 0.01619554 1000 1000 1000 0.01632095 0.01636073 0.01619554 1000 1000 1000 0.01688077 0.01719414 0.0170973 0.01741219 0.01702772 1000 0.01688077 0.01719414 0.0170973 0.01741219 0.01702772 1000
lala 24 0.001171875 0 first 13 1 272 4 3.907891 1.35999703407288 0 1 -1 0 0.01591204 0.01618971 0.01536317 1000 1000 1000 0.01591204 0.01618971 0.01536317 1000 1000 1000 0.0169656 0.01662406 0.01647108 0.01714383 0.01737544 1000 0.0169656 0.01662406 0.01647108 0.01714383 0.01737544 1000
lala 18 0.075 0 first 2 1 273 5 4.875 0.61999773979187 -1 0 -1 0 0.01840013 0.01819579 0.01813536 1000 1000 1000 0.01840013 0.01819579 0.01813536 1000 1000 1000 0.01841371 0.01859261 0.0188337 0.01910347 0.01884893 1000 0.01841371 0.01859261 0.0188337 0.01910347 0.01884893 1000
lala 16 0.075 0 first 14 1 274 5 4.425 0.359997987747192 0 0 -1 0 0.01878477 0.01900397 0.01880905 1000 1000 1000 0.01878477 0.01900397 0.01880905 1000 1000 1000 0.01768207 0.01797457 0.01820857 0.0184305 0.01836662 1000 0.01768207 0.01797457 0.01820857 0.0184305 0.01836662 1000
lala 16 0.6 0 second 6 1 275 4 2.94 0.579997777938843 1 0 -1 1 0.0196528 0.0199449 0.02011488 0.01988494 0.01930339 1000 0.0196528 0.0199449 0.02011488 0.01988494 0.01930339 1000 0.02054352 0.02019394 0.01994445 0.01982223 0.01996939 1000 0.02054352 0.02019394 0.01994445 0.01982223 0.01996939 1000
lala 14 0.6 1 second 17 1 276 6 6.180001 0.139998197555542 0 1 1 0 0.02025899 0.01971125 0.01981005 0.01920818 0.01859564 1000 0.02025899 0.01971125 0.01981005 0.01920818 0.01859564 1000 0.01854067 0.01895286 0.01896809 0.01898577 0.01910341 1000 0.01854067 0.01895286 0.01896809 0.01898577 0.01910341 1000
lala 15 0.6 0 first 17 1 277 6 5.580001 0.459997892379761 0 1 -1 0 0.01649202 0.01566349 0.01596157 1000 1000 1000 0.01649202 0.01566349 0.01596157 1000 1000 1000 0.01761585 0.01804306 0.01829778 0.01864093 0.01872175 1000 0.01761585 0.01804306 0.01829778 0.01864093 0.01872175 1000
lala 25 0.0005859375 1 second 13 1 278 4 3.908477 2.83999586105347 0 1 1 0 0.04524928 0.05438763 0.04923646 0.02989883 0.01515633 1000 0.04524928 0.05438763 0.04923646 0.02989883 0.01515633 1000 0.007736838 0.01187949 0.01872568 0.02142181 0.02413686 1000 0.007736838 0.01187949 0.01872568 0.02142181 0.02413686 1000
lala 16 0.3 0 first 17 1 279 6 5.880001 0.299998044967651 0 1 -1 0 -0.0004785794 -0.001575852 -0.001458729 1000 1000 1000 -0.0004785794 -0.001575852 -0.001458729 1000 1000 1000 -0.0006717566 0.0003490945 0.0001968699 -8.353138E-05 -7.985943E-05 1000 -0.0006717566 0.0003490945 0.0001968699 -8.353138E-05 -7.985943E-05 1000
lala 20 0.075 0 first 4 1 280 6 5.235 0.499997854232788 -1 0 -1 0 -0.0004363925 2.444507E-05 0.001112853 1000 1000 1000 -0.0004363925 2.444507E-05 0.001112853 1000 1000 1000 0.004574488 0.005284652 0.005835933 0.005785244 0.00549472 1000 0.004574488 0.005284652 0.005835933 0.005785244 0.00549472 1000
lala 14 0.6 0 first 5 1 281 6 5.58 0.259998083114624 -1 1 -1 0 0.005969582 0.005842587 0.006018905 1000 1000 1000 0.005969582 0.005842587 0.006018905 1000 1000 1000 0.005504536 0.006193018 0.006380632 0.00617681 0.006162316 1000 0.005504536 0.006193018 0.006380632 0.00617681 0.006162316 1000
lala 17 0.6 0 first 15 1 282 5 4.4 0.779997587203979 0 1 -1 1 0.006183608 0.006498517 0.006231857 1000 1000 1000 0.006183608 0.006498517 0.006231857 1000 1000 1000 0.00639676 0.005999584 0.006176663 0.006554373 0.006447019 1000 0.00639676 0.005999584 0.006176663 0.006554373 0.006447019 1000
lala 15 0.6 1 second 5 1 283 6 6.18 0.219998121261597 -1 1 1 1 0.007159001 0.006873192 0.006972102 0.007489001 0.007394581 1000 0.007159001 0.006873192 0.006972102 0.007489001 0.007394581 1000 0.006155412 0.006409408 0.006568421 0.006721214 0.00661365 1000 0.006155412 0.006409408 0.006568421 0.006721214 0.00661365 1000
lala 18 0.3 1 second 15 1 284 5 4.7 0.859997510910034 0 1 1 1 0.007346153 0.007641712 0.007632297 0.007664549 0.006090892 1000 0.007346153 0.007641712 0.007632297 0.007664549 0.006090892 1000 0.0002274751 0.001392654 0.003152608 0.002696052 0.00284522 1000 0.0002274751 0.001392654 0.003152608 0.002696052 0.00284522 1000
lala 12 0.15 0 second 11 1 285 6 5.130001 0.439997911453247 1 1 -1 0 0.003935803 0.004823308 0.007201693 0.0103462 0.01163375 1000 0.003935803 0.004823308 0.007201693 0.0103462 0.01163375 1000 0.01159002 0.01203995 0.01175467 0.01229358 0.01254688 1000 0.01159002 0.01203995 0.01175467 0.01229358 0.01254688 1000
lala 14 0.15 1 first 9 1 286 5 5.000001 0.359997987747192 1 1 1 0 0.0141326 0.01477591 0.01480825 1000 1000 1000 0.0141326 0.01477591 0.01480825 1000 1000 1000 0.01621676 0.01719272 0.01706073 0.01744528 0.01793582 1000 0.01621676 0.01719272 0.01706073 0.01744528 0.01793582 1000
lala 26 0.0002929688 1 first 13 1 287 4 3.908184 1.11999726295471 0 1 1 0 0.01705517 0.01810569 0.01806768 1000 1000 1000 0.01705517 0.01810569 0.01806768 1000 1000 1000 0.01382951 0.01510933 0.01600922 0.0122085 0.008842357 1000 0.01382951 0.01510933 0.01600922 0.0122085 0.008842357 1000
lala 13 0.075 0 first 11 1 288 6 5.205001 2.05999660491943 1 1 -1 0 0.0237168 0.0235628 0.02235046 1000 1000 1000 0.0237168 0.0235628 0.02235046 1000 1000 1000 0.01937622 0.02000661 0.02029804 0.02034635 0.02025585 1000 0.01937622 0.02000661 0.02029804 0.02034635 0.02025585 1000
lala 14 0.075 1 first 11 1 289 6 5.280001 0.339998006820679 1 1 1 0 0.01899119 0.01921297 0.01916748 1000 1000 1000 0.01899119 0.01921297 0.01916748 1000 1000 1000 0.01991618 0.02011809 0.02061186 0.02066157 0.02113211 1000 0.01991618 0.02011809 0.02061186 0.02066157 0.02113211 1000
lala 17 0.075 0 first 14 1 290 5 4.5 0.419997930526733 0 0 -1 1 0.01965464 0.01984253 0.01992103 1000 1000 1000 0.01965464 0.01984253 0.01992103 1000 1000 1000 0.01978258 0.01995388 0.02008468 0.02026794 0.02070032 1000 0.01978258 0.01995388 0.02008468 0.02026794 0.02070032 1000
lala 19 0.075 0 first 2 1 291 5 4.95 0.459997892379761 -1 0 -1 0 0.02179844 0.02199734 0.0222958 1000 1000 1000 0.02179844 0.02199734 0.0222958 1000 1000 1000 0.02376244 0.02385989 0.02335986 0.02366967 0.0237844 1000 0.02376244 0.02385989 0.02335986 0.02366967 0.0237844 1000
lala 10 2.4 1 second 0 1 292 4 7.44 0.0999982357025146 -1 0 1 1 0.02383657 0.02346196 0.02334787 0.02381369 0.02452002 1000 0.02383657 0.02346196 0.02334787 0.02381369 0.02452002 1000 0.02517814 0.0228385 0.02294354 0.02410798 0.02448815 1000 0.02517814 0.0228385 0.02294354 0.02410798 0.02448815 1000
lala 11 0.6 0 second 3 1 293 5 5.45 0.379997968673706 -1 1 -1 0 0.02536372 0.02504197 0.0252675 0.0252945 0.02516575 1000 0.02536372 0.02504197 0.0252675 0.0252945 0.02516575 1000 0.02493333 0.02459128 0.02466321 0.02478386 0.02489192 1000 0.02493333 0.02459128 0.02466321 0.02478386 0.02489192 1000
lala 11 1.2 1 first 0 1 294 4 6.24 0.39999794960022 -1 0 1 0 0.02466535 0.02457641 0.02446525 1000 1000 1000 0.02466535 0.02457641 0.02446525 1000 1000 1000 0.02523504 0.02504507 0.02553946 0.02497548 0.0250146 1000 0.02523504 0.02504507 0.02553946 0.02497548 0.0250146 1000
lala 12 0.6 1 second 3 1 295 5 6.05 0.39999794960022 -1 1 1 0 0.02036661 0.0206716 0.02076779 0.02058382 0.02061675 1000 0.02036661 0.0206716 0.02076779 0.02058382 0.02061675 1000 0.01820476 0.0183694 0.01832033 0.01827468 0.01841434 1000 0.01820476 0.0183694 0.01832033 0.01827468 0.01841434 1000
lala 21 0.0375 0 first 4 1 296 6 5.2725 0.559997797012329 -1 0 -1 1 0.01876262 0.01920144 0.01849846 1000 1000 1000 0.01876262 0.01920144 0.01849846 1000 1000 1000 0.01045406 0.01095911 0.01124526 0.01217071 0.01256071 1000 0.01045406 0.01095911 0.01124526 0.01217071 0.01256071 1000
lala 22 0.0375 0 first 4 1 297 6 5.31 1.19999718666077 -1 0 -1 0 0.01244812 0.01213739 0.01177086 1000 1000 1000 0.01244812 0.01213739 0.01177086 1000 1000 1000 0.01495471 0.01464211 0.01425603 0.0146742 0.01445714 1000 0.01495471 0.01464211 0.01425603 0.0146742 0.01445714 1000
lala 13 0.3 1 second 3 1 298 5 5.75 0.379997968673706 -1 1 1 1 0.01720131 0.01684361 0.01659597 0.01655742 0.01595196 1000 0.01720131 0.01684361 0.01659597 0.01655742 0.01595196 1000 0.01673188 0.01654783 0.01660727 0.01701928 0.01739448 1000 0.01673188 0.01654783 0.01660727 0.01701928 0.01739448 1000
lala 12 1.2 1 second 0 1 299 4 5.04 0.299998044967651 -1 0 1 1 0.01702953 0.0174345 0.01724622 0.01727969 0.01736905 1000 0.01702953 0.0174345 0.01724622 0.01727969 0.01736905 1000 0.01737285 0.0172427 0.01735468 0.01732239 0.01724593 1000 0.01737285 0.0172427 0.01735468 0.01732239 0.01724593 1000
lala 18 0.075 0 second 14 1 300 5 4.574999 0.279998064041138 0 0 -1 1 0.0001360186 0.00164366 0.001506289 0.0004783489 0.001455295 1000 0.0001360186 0.00164366 0.001506289 0.0004783489 0.001455295 1000 -0.0009318445 -0.001689527 -0.002374779 -0.002086672 -0.002322348 1000 -0.0009318445 -0.001689527 -0.002374779 -0.002086672 -0.002322348 1000
lala 19 0.15 0 second 15 1 301 5 4.55 0.219998121261597 0 1 -1 0 -0.01200943 -0.0121661 -0.01153418 -0.0114128 -0.01124964 1000 -0.01200943 -0.0121661 -0.01153418 -0.0114128 -0.01124964 1000 -0.01129584 -0.01156268 -0.01102674 -0.01114665 -0.01106412 1000 -0.01129584 -0.01156268 -0.01102674 -0.01114665 -0.01106412 1000
lala 17 0.3 1 second 17 1 302 6 6.180001 0.259998083114624 0 1 1 0 -0.01045545 -0.01082096 -0.01165682 -0.01220192 -0.01255825 1000 -0.01045545 -0.01082096 -0.01165682 -0.01220192 -0.01255825 1000 -0.01183907 -0.01189536 -0.01213331 -0.01243339 -0.01311061 1000 -0.01183907 -0.01189536 -0.01213331 -0.01243339 -0.01311061 1000
lala 15 0.0375 0 second 11 1 303 6 5.242501 0.179998159408569 1 1 -1 0 -0.01463 -0.01516183 -0.01565327 -0.01536561 -0.01551847 1000 -0.01463 -0.01516183 -0.01565327 -0.01536561 -0.01551847 1000 -0.01353137 -0.0137058 -0.01378412 -0.01381101 -0.01370609 1000 -0.01353137 -0.0137058 -0.01378412 -0.01381101 -0.01370609 1000
lala 20 0.0046875 0 first 16 1 304 6 5.624063 0.23999810218811 0 0 -1 1 -0.01335729 -0.01335764 -0.01251011 1000 1000 1000 -0.01335729 -0.01335764 -0.01251011 1000 1000 1000 -0.01305181 -0.01286738 -0.01274525 -0.01299296 -0.01275033 1000 -0.01305181 -0.01286738 -0.01274525 -0.01299296 -0.01275033 1000
lala 13 1.2 0 second 0 1 305 4 3.84 0.119998216629028 -1 0 -1 0 -0.01210003 -0.01178453 -0.01131668 -0.01093347 -0.01110047 1000 -0.01210003 -0.01178453 -0.01131668 -0.01093347 -0.01110047 1000 -0.01132739 -0.01106507 -0.01132377 -0.01163843 -0.01154938 1000 -0.01132739 -0.01106507 -0.01132377 -0.01163843 -0.01154938 1000
lala 14 0.6 0 second 0 1 306 4 4.44 0.419997930526733 -1 0 -1 1 -0.03065745 -0.02908992 -0.02741132 -0.02530208 -0.02461608 1000 -0.03065745 -0.02908992 -0.02741132 -0.02530208 -0.02461608 1000 -0.02181546 -0.02174862 -0.02089573 -0.02092131 -0.02001383 1000 -0.02181546 -0.02174862 -0.02089573 -0.02092131 -0.02001383 1000
lala 19 0.15 0 first 14 1 307 5 4.724999 0.39999794960022 0 0 -1 1 -0.01709538 -0.01591034 -0.01472029 1000 1000 1000 -0.01709538 -0.01591034 -0.01472029 1000 1000 1000 -0.01505822 -0.01534641 -0.0148945 -0.01510172 -0.01493728 1000 -0.01505822 -0.01534641 -0.0148945 -0.01510172 -0.01493728 1000
lala 20 0.075 0 first 15 1 308 5 4.625 0.459997892379761 0 1 -1 0 -0.01512385 -0.01507846 -0.01479461 1000 1000 1000 -0.01512385 -0.01507846 -0.01479461 1000 1000 1000 -0.01328909 -0.01179293 -0.01089076 -0.01004996 -0.01010945 1000 -0.01328909 -0.01179293 -0.01089076 -0.01004996 -0.01010945 1000
lala 16 0.3 1 second 5 1 309 6 5.88 0.23999810218811 -1 1 1 1 -0.01238357 -0.01215164 -0.01212956 -0.01207469 -0.01176284 1000 -0.01238357 -0.01215164 -0.01212956 -0.01207469 -0.01176284 1000 -0.01179771 -0.01115331 -0.01147406 -0.01132434 -0.01101697 1000 -0.01179771 -0.01115331 -0.01147406 -0.01132434 -0.01101697 1000
lala 20 0.3 0 second 14 1 310 5 5.025 0.499997854232788 0 0 -1 0 -0.01176205 -0.01153582 -0.01213417 -0.01211958 -0.01173885 1000 -0.01176205 -0.01153582 -0.01213417 -0.01211958 -0.01173885 1000 -0.01205667 -0.01207917 -0.01228729 -0.01230033 -0.01219593 1000 -0.01205667 -0.01207917 -0.01228729 -0.01230033 -0.01219593 1000
lala 15 0.15 1 second 9 1 311 5 4.850001 0.539997816085815 1 1 1 0 -0.0112031 -0.01103567 -0.01100605 -0.01121852 -0.01105764 1000 -0.0112031 -0.01103567 -0.01100605 -0.01121852 -0.01105764 1000 -0.01158645 -0.01150129 -0.01098 -0.01100065 -0.01079627 1000 -0.01158645 -0.01150129 -0.01098 -0.01100065 -0.01079627 1000
lala 19 0.3 0 second 10 1 312 6 4.380001 0.659997701644897 1 0 -1 0 -0.02541381 -0.03022621 -0.03093134 -0.02468909 -0.02063785 1000 -0.02541381 -0.03022621 -0.03093134 -0.02468909 -0.02063785 1000 -0.0001115167 -0.003800269 -0.005247641 -0.003546792 -0.002192746 1000 -0.0001115167 -0.003800269 -0.005247641 -0.003546792 -0.002192746 1000
lala 16 0.01875 1 second 11 1 313 6 5.261251 1.29999709129334 1 1 1 1 -0.006083615 -0.005319414 -0.005776669 -0.005445774 -0.005451489 1000 -0.006083615 -0.005319414 -0.005776669 -0.005445774 -0.005451489 1000 -0.005260849 -0.005509002 -0.00501846 -0.004733616 -0.004375429 1000 -0.005260849 -0.005509002 -0.00501846 -0.004733616 -0.004375429 1000
lala 21 0.075 0 first 15 1 314 5 4.699999 1.03999733924866 0 1 -1 1 -0.002204534 -0.003072729 -0.00317486 1000 1000 1000 -0.002204534 -0.003072729 -0.00317486 1000 1000 1000 -0.002473188 -0.002420722 -0.002097901 -0.001896481 -0.002143302 1000 -0.002473188 -0.002420722 -0.002097901 -0.001896481 -0.002143302 1000
lala 15 0.6 0 first 0 1 315 4 5.04 0.61999773979187 -1 0 -1 0 -0.0008384652 -0.0003259568 -0.0006391756 1000 1000 1000 -0.0008384652 -0.0003259568 -0.0006391756 1000 1000 1000 -0.001173442 -0.0008837426 -0.0007732199 -0.000109695 0.0002307013 1000 -0.001173442 -0.0008837426 -0.0007732199 -0.000109695 0.0002307013 1000
lala 16 0.6 0 first 0 1 316 4 5.64 0.379997968673706 -1 0 -1 1 -0.00423792 -0.006645965 -0.007829329 1000 1000 1000 -0.00423792 -0.006645965 -0.007829329 1000 1000 1000 -0.01577802 -0.01580439 -0.01569174 -0.01606355 -0.01537629 1000 -0.01577802 -0.01580439 -0.01569174 -0.01606355 -0.01537629 1000
lala 20 0.075 0 first 2 1 317 5 5.025 0.539997816085815 -1 0 -1 0 -0.01383568 -0.01354326 -0.01293467 1000 1000 1000 -0.01383568 -0.01354326 -0.01293467 1000 1000 1000 -0.008093823 -0.006913385 -0.006747865 -0.006311343 -0.00587202 1000 -0.008093823 -0.006913385 -0.006747865 -0.006311343 -0.00587202 1000
lala 17 1.2 1 second 0 1 318 4 6.84 0.319998025894165 -1 0 1 1 -0.005750643 -0.005196088 -0.004935155 -0.004630554 -0.004805566 1000 -0.005750643 -0.005196088 -0.004935155 -0.004630554 -0.004805566 1000 -0.004066074 -0.003970036 -0.003841524 -0.003691519 -0.003543438 1000 -0.004066074 -0.003970036 -0.003841524 -0.003691519 -0.003543438 1000
lala 17 0.009375 1 second 11 1 319 6 5.251876 0.39999794960022 1 1 1 1 -0.002258587 -0.002413222 -0.002403041 -0.001990937 -0.00238703 1000 -0.002258587 -0.002413222 -0.002403041 -0.001990937 -0.00238703 1000 -0.002512879 -0.001827417 -0.001716811 -0.001395229 -0.001586028 1000 -0.002512879 -0.001827417 -0.001716811 -0.001395229 -0.001586028 1000
lala 21 0.6 0 second 14 1 320 5 5.625 0.679997682571411 0 0 -1 0 -0.001227405 -0.001099197 -0.0007441129 -0.0005050324 -0.001022104 1000 -0.001227405 -0.001099197 -0.0007441129 -0.0005050324 -0.001022104 1000 -0.000454376 -0.0003280286 -0.0007005998 -0.0002844501 -0.0004453555 1000 -0.000454376 -0.0003280286 -0.0007005998 -0.0002844501 -0.0004453555 1000
lala 17 0.3 0 first 5 1 321 6 5.58 0.419997930526733 -1 1 -1 1 -0.001171752 -0.0007782184 -0.001039081 1000 1000 1000 -0.001171752 -0.0007782184 -0.001039081 1000 1000 1000 -0.000470526 -0.001115418 -0.001732674 -0.00130787 -0.001267456 1000 -0.000470526 -0.001115418 -0.001732674 -0.00130787 -0.001267456 1000
lala 22 0.075 0 second 15 1 322 5 4.774999 0.39999794960022 0 1 -1 0 -0.001174337 -0.0005049693 -0.0005437251 -0.0001471333 -0.000401048 1000 -0.001174337 -0.0005049693 -0.0005437251 -0.0001471333 -0.000401048 1000 -0.000421842 -0.0007058821 -0.0005281737 -0.001029391 -0.001357775 1000 -0.000421842 -0.0007058821 -0.0005281737 -0.001029391 -0.001357775 1000
lala 16 0.15 0 second 9 1 323 5 4.700001 0.479997873306274 1 1 -1 0 -0.001619842 -0.001296094 -0.001733714 -0.001429468 -0.001334536 1000 -0.001619842 -0.001296094 -0.001733714 -0.001429468 -0.001334536 1000 -0.001106253 -0.0009945942 -0.0007618127 -0.0008779683 -0.001156028 1000 -0.001106253 -0.0009945942 -0.0007618127 -0.0008779683 -0.001156028 1000
lala 18 0.15 1 second 5 1 324 6 5.73 0.319998025894165 -1 1 1 1 -0.002309884 -0.002374487 -0.002154221 -0.001962021 -0.00201562 1000 -0.002309884 -0.002374487 -0.002154221 -0.001962021 -0.00201562 1000 -0.003050685 -0.002717356 -0.002772809 -0.002990127 -0.002546749 1000 -0.003050685 -0.002717356 -0.002772809 -0.002990127 -0.002546749 1000
lala 27 0.0002929688 0 second 13 1 325 4 3.907891 0.359997987747192 0 1 -1 0 -0.007252324 -0.007274695 -0.00679522 -0.006500895 -0.00655755 1000 -0.007252324 -0.007274695 -0.00679522 -0.006500895 -0.00655755 1000 -0.01052794 -0.009881466 -0.009930443 -0.009554438 -0.009548372 1000 -0.01052794 -0.009881466 -0.009930443 -0.009554438 -0.009548372 1000
lala 21 0.15 1 second 2 1 326 5 5.175 0.459997892379761 -1 0 1 0 -0.01043249 -0.01019581 -0.009586126 -0.009810085 -0.009859419 1000 -0.01043249 -0.01019581 -0.009586126 -0.009810085 -0.009859419 1000 -0.01062388 -0.01037401 -0.01020417 -0.009758869 -0.01008885 1000 -0.01062388 -0.01037401 -0.01020417 -0.009758869 -0.01008885 1000
lala 14 1.2 1 second 7 1 327 4 5.320001 0.319998025894165 1 1 1 1 -0.01018966 -0.01010166 -0.01031763 -0.01064841 -0.01058917 1000 -0.01018966 -0.01010166 -0.01031763 -0.01064841 -0.01058917 1000 -0.01038763 -0.01048052 -0.01047609 -0.01014972 -0.01024645 1000 -0.01038763 -0.01048052 -0.01047609 -0.01014972 -0.01024645 1000
lala 19 0.075 0 second 5 1 328 6 5.655 0.259998083114624 -1 1 -1 0 -0.01103845 -0.01660272 -0.02666455 -0.02920295 -0.02724413 1000 -0.01103845 -0.01660272 -0.02666455 -0.02920295 -0.02724413 1000 -0.001231961 -0.004623763 -0.0007457553 0.002361869 0.003462622 1000 -0.001231961 -0.004623763 -0.0007457553 0.002361869 0.003462622 1000
lala 22 0.075 0 first 2 1 329 5 5.1 0.479997873306274 -1 0 -1 1 0.005339082 0.007882098 0.002941527 1000 1000 1000 0.005339082 0.007882098 0.002941527 1000 1000 1000 -0.005718283 -0.005443432 -0.005603056 -0.005503938 -0.004976173 1000 -0.005718283 -0.005443432 -0.005603056 -0.005503938 -0.004976173 1000
lala 23 0.15 0 second 15 1 330 5 4.924999 0.519997835159302 0 1 -1 1 -0.003545355 -0.003821808 -0.004343366 -0.004881904 -0.004725678 1000 -0.003545355 -0.003821808 -0.004343366 -0.004881904 -0.004725678 1000 -0.004619702 -0.00505311 -0.005037323 -0.005131469 -0.004961156 1000 -0.004619702 -0.00505311 -0.005037323 -0.005131469 -0.004961156 1000
lala 15 2.4 0 first 7 1 331 4 2.920001 1.27999711036682 1 1 -1 0 -0.00545596 -0.004953684 -0.004727202 1000 1000 1000 -0.00545596 -0.004953684 -0.004727202 1000 1000 1000 -0.002941505 -0.003811231 -0.003699878 -0.003808894 -0.003660859 1000 -0.002941505 -0.003811231 -0.003699878 -0.003808894 -0.003660859 1000
lala 14 0.3 1 second 3 1 332 5 5.449999 1.51999688148499 -1 1 1 0 -0.02596701 -0.020102 -0.01622894 -0.01634343 -0.01402233 1000 -0.02596701 -0.020102 -0.01622894 -0.01634343 -0.01402233 1000 -0.008515843 -0.009577919 -0.01004252 -0.009276238 -0.007236242 1000 -0.008515843 -0.009577919 -0.01004252 -0.009276238 -0.007236242 1000
lala 17 0.3 0 second 6 1 333 4 3.24 0.579997777938843 1 0 -1 1 -0.01120318 -0.01075219 -0.01038814 -0.01018958 -0.01049659 1000 -0.01120318 -0.01075219 -0.01038814 -0.01018958 -0.01049659 1000 -0.009207425 -0.009067226 -0.008888404 -0.008759955 -0.008566965 1000 -0.009207425 -0.009067226 -0.008888404 -0.008759955 -0.008566965 1000
