subject PestNr Step_Size_OnTrial Pest_Faster Pest_Interval Condition block trial velH velH_Pest Reaction_Time velH_Subject Start_Above Response_MotionEstimation RightOrLeftxRotations_first0 xRotations_first1 xRotations_first2 xRotations_first3 xRotations_first4 xRotations_first5 yRotations_first0 yRotations_first1 yRotations_first2 yRotations_first3 yRotations_first4 yRotations_first5 xRotations_second0 xRotations_second1 xRotations_second2 xRotations_second3 xRotations_second4 xRotations_second5 yRotations_second0 yRotations_second1 yRotations_second2 yRotations_second3 yRotations_second4 yRotations_second5
lala 1 1.2 0 first 2 1 1 5 3.3 0.779997587203979 -1 0 -1 1 -0.01043463 -0.005386259 -0.003570654 0.0040089 0.0066525 0.003761142 -0.01043463 -0.005386259 -0.003570654 0.0040089 0.0066525 0.003761142 0.004645194 0.005389506 0.00559644 0.005261026 0.005469152 1000 0.004645194 0.005389506 0.00559644 0.005261026 0.005469152 1000
lala 1 1.2 1 first 11 1 2 6 7.98 0.559997797012329 1 1 1 0 0.008305949 0.009523459 0.01020051 1000 1000 1000 0.008305949 0.009523459 0.01020051 1000 1000 1000 0.01264947 0.01289836 0.01331102 0.01344305 0.01294921 1000 0.01264947 0.01289836 0.01331102 0.01344305 0.01294921 1000
lala 2 1.2 1 second 2 1 3 5 4.5 0.639997720718384 -1 0 1 1 0.01571087 0.01680405 0.01723404 0.01745141 0.01766918 1000 0.01571087 0.01680405 0.01723404 0.01745141 0.01766918 1000 0.008499074 0.01501944 0.0122406 0.009305495 0.009252731 1000 0.008499074 0.01501944 0.0122406 0.009305495 0.009252731 1000
lala 1 1.2 1 first 9 1 4 5 6.65 0.799997568130493 1 1 1 1 0.007840531 0.007462567 0.006989802 1000 1000 1000 0.007840531 0.007462567 0.006989802 1000 1000 1000 0.01267377 0.01286122 0.01332309 0.01394564 0.01486127 1000 0.01267377 0.01286122 0.01332309 0.01394564 0.01486127 1000
lala 3 1.2 0 first 2 1 5 5 3.3 0.439997911453247 -1 0 -1 0 0.01818616 0.01797355 0.01811113 1000 1000 1000 0.01818616 0.01797355 0.01811113 1000 1000 1000 0.01998048 0.01952915 0.01963862 0.0205382 0.02099006 1000 0.01998048 0.01952915 0.01963862 0.0205382 0.02099006 1000
lala 1 1.2 0 first 6 1 6 4 2.64 0.459997892379761 1 0 -1 1 0.02123775 0.02070916 0.0204806 1000 1000 1000 0.02123775 0.02070916 0.0204806 1000 1000 1000 0.02148609 0.02134488 0.02132782 0.02201356 0.02234244 1000 0.02148609 0.02134488 0.02132782 0.02201356 0.02234244 1000
lala 2 1.2 1 second 9 1 7 5 5.45 0.419997930526733 1 1 1 1 0.02444766 0.02396708 0.02458287 0.02538091 0.02635457 1000 0.02444766 0.02396708 0.02458287 0.02538091 0.02635457 1000 0.01117311 0.0120001 0.01210412 0.01192039 0.0120672 1000 0.01117311 0.0120001 0.01210412 0.01192039 0.0120672 1000
lala 1 1.2 1 second 17 1 8 6 7.98 1.05999732017517 0 1 1 1 0.0126778 0.0129477 0.01309542 0.01295712 0.0123925 1000 0.0126778 0.0129477 0.01309542 0.01295712 0.0123925 1000 0.01061603 0.009969085 0.01010555 0.01022033 0.009525815 1000 0.01061603 0.009969085 0.01010555 0.01022033 0.009525815 1000
lala 1 1.2 1 second 10 1 9 6 3.96 1.55999684333801 1 0 1 1 0.004945216 0.001165649 -0.0002800968 0.0001834029 0.002003626 1000 0.004945216 0.001165649 -0.0002800968 0.0001834029 0.002003626 1000 -0.02489915 -0.02425943 -0.0266552 -0.03142957 -0.03099044 1000 -0.02489915 -0.02425943 -0.0266552 -0.03142957 -0.03099044 1000
lala 1 1.2 1 first 3 1 10 5 6.65 3.09999561309814 -1 1 1 1 0.003705134 0.006415212 0.005471614 1000 1000 1000 0.003705134 0.006415212 0.005471614 1000 1000 1000 0.009403171 0.01013128 0.01677194 0.02556094 0.03286697 1000 0.009403171 0.01013128 0.01677194 0.02556094 0.03286697 1000
lala 1 1.2 1 second 13 1 11 4 5.32 0.179998159408569 0 1 1 1 -0.006440229 -0.008058164 -0.00958269 -0.01032219 -0.01007476 1000 -0.006440229 -0.008058164 -0.00958269 -0.01032219 -0.01007476 1000 -0.01070115 -0.01039118 -0.01000129 -0.01000006 -0.009952678 1000 -0.01070115 -0.01039118 -0.01000129 -0.01000006 -0.009952678 1000
lala 2 1.2 1 second 13 1 12 4 4.12 0.439997911453247 0 1 1 1 -0.01107802 -0.01094007 -0.01116403 -0.01120301 -0.01143791 1000 -0.01107802 -0.01094007 -0.01116403 -0.01120301 -0.01143791 1000 -0.01239758 -0.01212658 -0.01187026 -0.01176334 -0.01162923 1000 -0.01239758 -0.01212658 -0.01187026 -0.01176334 -0.01162923 1000
lala 2 1.2 1 first 11 1 13 6 6.780001 0.859997510910034 1 1 1 0 -0.01308315 -0.01341433 -0.01358687 1000 1000 1000 -0.01308315 -0.01341433 -0.01358687 1000 1000 1000 -0.01382016 -0.01382561 -0.01370422 -0.01361279 -0.01349286 1000 -0.01382016 -0.01382561 -0.01370422 -0.01361279 -0.01349286 1000
lala 1 1.2 0 second 12 1 14 4 2.64 0.519997835159302 0 0 -1 0 -0.01341604 -0.01322346 -0.01310526 -0.01301032 -0.01326586 1000 -0.01341604 -0.01322346 -0.01310526 -0.01301032 -0.01326586 1000 -0.01180518 -0.01151089 -0.01129408 -0.01128733 -0.01167548 1000 -0.01180518 -0.01151089 -0.01129408 -0.01128733 -0.01167548 1000
lala 1 1.2 1 first 7 1 15 4 5.32 0.539997816085815 1 1 1 0 -0.01181243 -0.01188879 -0.01230425 1000 1000 1000 -0.01181243 -0.01188879 -0.01230425 1000 1000 1000 -0.01382983 -0.01374275 -0.01323779 -0.01281673 -0.01250848 1000 -0.01382983 -0.01374275 -0.01323779 -0.01281673 -0.01250848 1000
lala 1 1.2 0 second 16 1 16 6 3.96 0.179998159408569 0 0 -1 1 -0.01343311 -0.01327639 -0.01284516 -0.01264291 -0.01233101 1000 -0.01343311 -0.01327639 -0.01284516 -0.01264291 -0.01233101 1000 -0.01207993 -0.01195442 -0.01209307 -0.01215474 -0.0121523 1000 -0.01207993 -0.01195442 -0.01209307 -0.01215474 -0.0121523 1000
lala 1 1.2 0 first 5 1 17 6 7.98 1.81999683380127 -1 1 -1 0 -0.01113359 -0.01120449 -0.01121787 1000 1000 1000 -0.01113359 -0.01120449 -0.01121787 1000 1000 1000 -0.009628602 -0.009743249 -0.009794975 -0.009721433 -0.009680655 1000 -0.009628602 -0.009743249 -0.009794975 -0.009721433 -0.009680655 1000
lala 1 1.2 1 first 15 1 18 5 6.65 0.299998044967651 0 1 1 0 -0.009760696 -0.0103113 -0.01057325 1000 1000 1000 -0.009760696 -0.0103113 -0.01057325 1000 1000 1000 -0.01002294 -0.009974889 -0.01015236 -0.01023887 -0.01011067 1000 -0.01002294 -0.009974889 -0.01015236 -0.01023887 -0.01011067 1000
lala 3 1.2 1 second 11 1 19 6 5.580001 1.27999711036682 1 1 1 1 -0.00920545 -0.009108819 -0.008811317 -0.008826595 -0.009049213 1000 -0.00920545 -0.009108819 -0.008811317 -0.008826595 -0.009049213 1000 -0.009133953 -0.009075686 -0.008862848 -0.008822936 -0.008770746 1000 -0.009133953 -0.009075686 -0.008862848 -0.008822936 -0.008770746 1000
lala 1 1.2 0 second 0 1 20 4 2.64 0.519997835159302 -1 0 -1 0 -0.008967878 -0.009451931 -0.009389107 -0.009281388 -0.009270191 1000 -0.008967878 -0.009451931 -0.009389107 -0.009281388 -0.009270191 1000 -0.009927811 -0.009924979 -0.01002361 -0.009727712 -0.009252471 1000 -0.009927811 -0.009924979 -0.01002361 -0.009727712 -0.009252471 1000
lala 4 1.2 0 first 11 1 21 6 4.380001 0.839997529983521 1 1 -1 1 -0.00887682 -0.009413495 -0.009714787 1000 1000 1000 -0.00887682 -0.009413495 -0.009714787 1000 1000 1000 -0.009874328 -0.009628499 -0.009580803 -0.00970062 -0.009775957 1000 -0.009874328 -0.009628499 -0.009580803 -0.00970062 -0.009775957 1000
lala 1 1.2 0 first 4 1 22 6 3.96 0.39999794960022 -1 0 -1 1 -0.007557786 -0.007817514 -0.008040386 1000 1000 1000 -0.007557786 -0.007817514 -0.008040386 1000 1000 1000 -0.006924736 -0.006418059 -0.006488638 -0.006386727 -0.006121357 1000 -0.006924736 -0.006418059 -0.006488638 -0.006386727 -0.006121357 1000
lala 2 1.2 1 first 4 1 23 6 5.16 0.419997930526733 -1 0 1 0 -0.007065165 -0.007250067 -0.007178839 1000 1000 1000 -0.007065165 -0.007250067 -0.007178839 1000 1000 1000 -0.007028395 -0.006218108 -0.005341512 -0.005018456 -0.004821724 1000 -0.007028395 -0.006218108 -0.005341512 -0.005018456 -0.004821724 1000
lala 2 1.2 1 first 15 1 24 5 5.45 0.319998025894165 0 1 1 0 -0.005636202 -0.005684318 -0.00554864 1000 1000 1000 -0.005636202 -0.005684318 -0.00554864 1000 1000 1000 -0.004735912 -0.004541678 -0.003947537 -0.003690164 -0.003367112 1000 -0.004735912 -0.004541678 -0.003947537 -0.003690164 -0.003367112 1000
lala 2 1.2 1 first 3 1 25 5 5.45 0.819997549057007 -1 1 1 1 -0.003806013 -0.003887274 -0.004208868 1000 1000 1000 -0.003806013 -0.003887274 -0.004208868 1000 1000 1000 -0.003768965 -0.003955877 -0.004121648 -0.004029635 -0.003792111 1000 -0.003768965 -0.003955877 -0.004121648 -0.004029635 -0.003792111 1000
lala 4 1.2 0 second 2 1 26 5 4.5 1.47999691963196 -1 0 -1 0 -0.003861708 -0.00379457 -0.003623656 -0.003810016 -0.003811459 1000 -0.003861708 -0.00379457 -0.003623656 -0.003810016 -0.003811459 1000 -0.003575109 -0.003637335 -0.003659262 -0.003261276 -0.002787316 1000 -0.003575109 -0.003637335 -0.003659262 -0.003261276 -0.002787316 1000
lala 2 1.2 0 first 6 1 27 4 3.84 0.459997892379761 1 0 -1 1 -0.003514724 -0.003863787 -0.00388444 1000 1000 1000 -0.003514724 -0.003863787 -0.00388444 1000 1000 1000 -0.001513094 -0.001670123 -0.001793297 -0.001937071 -0.001951846 1000 -0.001513094 -0.001670123 -0.001793297 -0.001937071 -0.001951846 1000
lala 5 1.2 1 second 11 1 28 6 5.580001 0.459997892379761 1 1 1 0 -0.002411491 -0.002475114 -0.002446152 -0.002527346 -0.00261393 1000 -0.002411491 -0.002475114 -0.002446152 -0.002527346 -0.00261393 1000 -0.00133891 -0.001544542 -0.001475627 -0.0009326924 -0.0008375599 1000 -0.00133891 -0.001544542 -0.001475627 -0.0009326924 -0.0008375599 1000
lala 2 1.2 0 second 12 1 29 4 3.84 2.07999658584595 0 0 -1 1 -0.001974833 -0.002057657 -0.002057669 -0.002354729 -0.002332548 1000 -0.001974833 -0.002057657 -0.002057669 -0.002354729 -0.002332548 1000 -0.002213295 -0.002019455 -0.002120033 -0.002418722 -0.002471029 1000 -0.002213295 -0.002019455 -0.002120033 -0.002418722 -0.002471029 1000
lala 3 1.2 1 second 9 1 30 5 4.25 0.559997797012329 1 1 1 0 -0.008081993 -0.00823817 -0.007636519 -0.007950828 -0.008131112 1000 -0.008081993 -0.00823817 -0.007636519 -0.007950828 -0.008131112 1000 -0.009196484 -0.009141171 -0.009087577 -0.008889981 -0.008638311 1000 -0.009196484 -0.009141171 -0.009087577 -0.008889981 -0.008638311 1000
lala 2 1.2 0 second 0 1 31 4 3.84 0.61999773979187 -1 0 -1 1 -0.009383808 -0.008925747 -0.008677405 -0.008152266 -0.00870801 1000 -0.009383808 -0.008925747 -0.008677405 -0.008152266 -0.00870801 1000 -0.009242306 -0.009202913 -0.009124181 -0.009189857 -0.009208522 1000 -0.009242306 -0.009202913 -0.009124181 -0.009189857 -0.009208522 1000
lala 3 1.2 1 first 12 1 32 4 5.04 0.299998044967651 0 0 1 1 -0.009163069 -0.009264551 -0.009496587 1000 1000 1000 -0.009163069 -0.009264551 -0.009496587 1000 1000 1000 -0.009139287 -0.009101947 -0.00897652 -0.008891869 -0.008650617 1000 -0.009139287 -0.009101947 -0.00897652 -0.008891869 -0.008650617 1000
lala 3 1.2 1 second 0 1 33 4 5.04 0.39999794960022 -1 0 1 0 -0.009211534 -0.009294785 -0.009248063 -0.009218967 -0.009275666 1000 -0.009211534 -0.009294785 -0.009248063 -0.009218967 -0.009275666 1000 -0.008612843 -0.008523498 -0.008379851 -0.008220586 -0.008879237 1000 -0.008612843 -0.008523498 -0.008379851 -0.008220586 -0.008879237 1000
lala 4 1.2 0 first 9 1 34 5 3.05 0.439997911453247 1 1 -1 0 -0.009587071 -0.009647099 -0.009819685 1000 1000 1000 -0.009587071 -0.009647099 -0.009819685 1000 1000 1000 -0.008676667 -0.008470083 -0.008433157 -0.008379057 -0.008174813 1000 -0.008676667 -0.008470083 -0.008433157 -0.008379057 -0.008174813 1000
lala 2 1.2 0 first 10 1 35 6 2.76 0.319998025894165 1 0 -1 1 -0.009666738 -0.00952201 -0.009334838 1000 1000 1000 -0.009666738 -0.00952201 -0.009334838 1000 1000 1000 -0.009383637 -0.009260071 -0.008964458 -0.008459139 -0.007635589 1000 -0.009383637 -0.009260071 -0.008964458 -0.008459139 -0.007635589 1000
lala 5 1.2 1 first 2 1 36 5 5.7 0.299998044967651 -1 0 1 1 -0.007904586 -0.007466148 -0.007890891 1000 1000 1000 -0.007904586 -0.007466148 -0.007890891 1000 1000 1000 -0.008654363 -0.008711598 -0.008505032 -0.008503382 -0.008230898 1000 -0.008654363 -0.008711598 -0.008505032 -0.008503382 -0.008230898 1000
lala 5 1.2 1 second 9 1 37 5 4.25 0.539997816085815 1 1 1 1 -0.00709097 -0.006988791 -0.006785556 -0.006690038 -0.006474234 1000 -0.00709097 -0.006988791 -0.006785556 -0.006690038 -0.006474234 1000 -0.006814357 -0.007304616 -0.007439482 -0.007237894 -0.007316223 1000 -0.006814357 -0.007304616 -0.007439482 -0.007237894 -0.007316223 1000
lala 1 1.2 0 first 14 1 38 5 3.3 0.479997873306274 0 0 -1 1 -0.006799502 -0.006805541 -0.006961322 1000 1000 1000 -0.006799502 -0.006805541 -0.006961322 1000 1000 1000 -0.006955606 -0.007285533 -0.00721742 -0.007100491 -0.00690222 1000 -0.006955606 -0.007285533 -0.00721742 -0.007100491 -0.00690222 1000
lala 6 1.2 0 second 9 1 39 5 3.05 1.17999720573425 1 1 -1 0 -0.007347865 -0.007022066 -0.006882564 -0.007063128 -0.006824265 1000 -0.007347865 -0.007022066 -0.006882564 -0.007063128 -0.006824265 1000 -0.006958733 -0.006869423 -0.007355167 -0.007485611 -0.007264127 1000 -0.006958733 -0.006869423 -0.007355167 -0.007485611 -0.007264127 1000
lala 4 1.2 1 second 0 1 40 4 3.84 0.599997758865356 -1 0 1 1 -0.007039099 -0.006993226 -0.007040992 -0.006884349 -0.007062645 1000 -0.007039099 -0.006993226 -0.007040992 -0.006884349 -0.007062645 1000 -0.007899258 -0.008131376 -0.008028371 -0.007814189 -0.007766223 1000 -0.007899258 -0.008131376 -0.008028371 -0.007814189 -0.007766223 1000
lala 3 1.2 1 second 4 1 41 6 3.96 1.05999732017517 -1 0 1 1 -0.008962724 -0.008447644 -0.008173537 -0.008256173 -0.008066092 1000 -0.008962724 -0.008447644 -0.008173537 -0.008256173 -0.008066092 1000 -0.008425177 -0.008320373 -0.008500192 -0.008583422 -0.008988007 1000 -0.008425177 -0.008320373 -0.008500192 -0.008583422 -0.008988007 1000
lala 6 1.2 0 first 2 1 42 5 4.5 0.61999773979187 -1 0 -1 0 -0.009196589 -0.009394014 -0.009606706 1000 1000 1000 -0.009196589 -0.009394014 -0.009606706 1000 1000 1000 -0.01000747 -0.01000308 -0.01030223 -0.01079442 -0.01103566 1000 -0.01000747 -0.01000308 -0.01030223 -0.01079442 -0.01103566 1000
lala 3 1.2 1 second 15 1 43 5 4.25 0.39999794960022 0 1 1 0 -0.01148702 -0.01103931 -0.01067501 -0.01052167 -0.01035451 1000 -0.01148702 -0.01103931 -0.01067501 -0.01052167 -0.01035451 1000 -0.009919129 -0.009674001 -0.009766492 -0.01005972 -0.01023583 1000 -0.009919129 -0.009674001 -0.009766492 -0.01005972 -0.01023583 1000
lala 3 1.2 1 second 13 1 44 4 2.92 1.43999695777893 0 1 1 0 -0.01075918 -0.0106942 -0.01052141 -0.01005441 -0.009418608 1000 -0.01075918 -0.0106942 -0.01052141 -0.01005441 -0.009418608 1000 -0.008580421 -0.008546688 -0.008151981 -0.007784926 -0.008220279 1000 -0.008580421 -0.008546688 -0.008151981 -0.007784926 -0.008220279 1000
lala 3 1.2 0 first 3 1 45 5 4.25 0.319998025894165 -1 1 -1 1 -0.008340604 -0.008359178 -0.008471534 1000 1000 1000 -0.008340604 -0.008359178 -0.008471534 1000 1000 1000 -0.009183721 -0.009016298 -0.009027345 -0.009155179 -0.009201024 1000 -0.009183721 -0.009016298 -0.009027345 -0.009155179 -0.009201024 1000
lala 4 1.2 0 second 12 1 46 4 3.84 1.3999969959259 0 0 -1 1 -0.00965072 -0.009369533 -0.008953399 -0.009109971 -0.009168817 1000 -0.00965072 -0.009369533 -0.008953399 -0.009109971 -0.009168817 1000 -0.008925815 -0.00906385 -0.009073741 -0.009354288 -0.009434102 1000 -0.008925815 -0.00906385 -0.009073741 -0.009354288 -0.009434102 1000
lala 2 1.2 1 first 17 1 47 6 6.780001 5.9200005531311 0 1 1 1 -0.01043557 -0.00999034 -0.009627027 1000 1000 1000 -0.01043557 -0.00999034 -0.009627027 1000 1000 1000 -0.00909155 -0.009189592 -0.009276665 -0.009168774 -0.009174801 1000 -0.00909155 -0.009189592 -0.009276665 -0.009168774 -0.009174801 1000
lala 4 1.2 1 second 15 1 48 5 3.05 1.29999709129334 0 1 1 0 -0.00842039 -0.008335698 -0.008077411 -0.007959547 -0.007935369 1000 -0.00842039 -0.008335698 -0.008077411 -0.007959547 -0.007935369 1000 -0.008532328 -0.008500574 -0.00854883 -0.00873009 -0.008725029 1000 -0.008532328 -0.008500574 -0.00854883 -0.00873009 -0.008725029 1000
lala 3 1.2 1 first 6 1 49 4 5.04 0.439997911453247 1 0 1 0 -0.008560821 -0.008602079 -0.008446314 1000 1000 1000 -0.008560821 -0.008602079 -0.008446314 1000 1000 1000 -0.007705351 -0.007503249 -0.007315257 -0.007345679 -0.007563214 1000 -0.007705351 -0.007503249 -0.007315257 -0.007345679 -0.007563214 1000
lala 2 1.2 1 second 16 1 50 6 5.16 0.499997854232788 0 0 1 0 0.01030905 0.01157015 0.01214811 0.01168795 0.01119947 1000 0.01030905 0.01157015 0.01214811 0.01168795 0.01119947 1000 0.01060688 0.01066206 0.01057005 0.01059933 0.01069546 1000 0.01060688 0.01066206 0.01057005 0.01059933 0.01069546 1000
lala 5 1.2 0 first 15 1 51 5 1.85 0.159998178482056 0 1 -1 1 0.01081697 0.01083993 0.01061356 1000 1000 1000 0.01081697 0.01083993 0.01061356 1000 1000 1000 0.01083752 0.01068052 0.01095384 0.01071768 0.01068884 1000 0.01083752 0.01068052 0.01095384 0.01071768 0.01068884 1000
lala 6 1.2 0 second 15 1 52 5 3.05 0.99999737739563 0 1 -1 1 0.01097467 0.01108773 0.01100092 0.0112235 0.01101499 1000 0.01097467 0.01108773 0.01100092 0.0112235 0.01101499 1000 0.0110237 0.01106438 0.01113716 0.01111593 0.01109103 1000 0.0110237 0.01106438 0.01113716 0.01111593 0.01109103 1000
lala 3 1.2 1 first 10 1 53 6 3.96 0.779997587203979 1 0 1 1 0.01236117 0.01217241 0.01237746 1000 1000 1000 0.01236117 0.01217241 0.01237746 1000 1000 1000 0.01213342 0.01234624 0.01233981 0.01245674 0.01281138 1000 0.01213342 0.01234624 0.01233981 0.01245674 0.01281138 1000
lala 5 1.2 1 first 12 1 54 4 5.04 0.23999810218811 0 0 1 1 0.01230556 0.01209455 0.0123026 1000 1000 1000 0.01230556 0.01209455 0.0123026 1000 1000 1000 0.01223241 0.01207985 0.0119765 0.01194956 0.01223357 1000 0.01223241 0.01207985 0.0119765 0.01194956 0.01223357 1000
lala 4 1.2 1 second 6 1 55 4 3.84 0.639997720718384 1 0 1 1 0.01306154 0.01333497 0.01310178 0.01289982 0.01291468 1000 0.01306154 0.01333497 0.01310178 0.01289982 0.01291468 1000 0.01270351 0.01294436 0.01281204 0.01292193 0.01296846 1000 0.01270351 0.01294436 0.01281204 0.01292193 0.01296846 1000
lala 4 1.2 0 first 13 1 56 4 1.72 0.139998197555542 0 1 -1 1 0.01250089 0.0121286 0.01211324 1000 1000 1000 0.01250089 0.0121286 0.01211324 1000 1000 1000 0.01276412 0.01260017 0.0112124 0.01143865 0.01212087 1000 0.01276412 0.01260017 0.0112124 0.01143865 0.01212087 1000
lala 5 1.2 0 second 6 1 57 4 2.64 0.839997529983521 1 0 -1 1 0.01222155 0.01241114 0.01242141 0.01254337 0.01254174 1000 0.01222155 0.01241114 0.01242141 0.01254337 0.01254174 1000 0.01333136 0.01266828 0.01256268 0.0127417 0.01283004 1000 0.01333136 0.01266828 0.01256268 0.0127417 0.01283004 1000
lala 1 1.2 0 first 8 1 58 5 3.3 0.319998025894165 1 0 -1 1 0.0121446 0.01206009 0.01216597 1000 1000 1000 0.0121446 0.01206009 0.01216597 1000 1000 1000 0.01147382 0.01139344 0.01133369 0.01126531 0.01046815 1000 0.01147382 0.01139344 0.01133369 0.01126531 0.01046815 1000
lala 3 1.2 1 second 17 1 59 6 5.580001 0.419997930526733 0 1 1 1 0.004137013 0.003593848 0.002571107 0.003110158 0.004298912 1000 0.004137013 0.003593848 0.002571107 0.003110158 0.004298912 1000 0.00534125 0.005649219 0.005242412 0.004921363 0.004809421 1000 0.00534125 0.005649219 0.005242412 0.004921363 0.004809421 1000
lala 4 1.2 0 first 10 1 60 6 2.76 0.079998254776001 1 0 -1 0 0.00464806 0.004834546 0.006913781 1000 1000 1000 0.00464806 0.004834546 0.006913781 1000 1000 1000 0.008062438 0.00842457 0.008656454 0.008354767 0.008157224 1000 0.008062438 0.00842457 0.008656454 0.008354767 0.008157224 1000
lala 4 1.2 1 first 17 1 61 6 4.380001 0.419997930526733 0 1 1 1 0.008877107 0.00814203 0.00794322 1000 1000 1000 0.008877107 0.00814203 0.00794322 1000 1000 1000 0.008814982 0.008603352 0.008490982 0.008555711 0.008516719 1000 0.008814982 0.008603352 0.008490982 0.008555711 0.008516719 1000
lala 7 1.2 1 second 2 1 62 5 5.7 0.459997892379761 -1 0 1 1 0.01007467 0.01022664 0.0101996 0.01013534 0.01006156 1000 0.01007467 0.01022664 0.0101996 0.01013534 0.01006156 1000 0.01073547 0.01065755 0.01060254 0.01111967 0.01137907 1000 0.01073547 0.01065755 0.01060254 0.01111967 0.01137907 1000
lala 7 1.2 0 first 9 1 63 5 4.25 0.339998006820679 1 1 -1 1 0.01160885 0.01154705 0.01158593 1000 1000 1000 0.01160885 0.01154705 0.01158593 1000 1000 1000 0.01188691 0.01206074 0.01228155 0.01246733 0.01264844 1000 0.01188691 0.01206074 0.01228155 0.01246733 0.01264844 1000
lala 2 1.2 1 second 5 1 64 6 9.18 0.359997987747192 -1 1 1 1 0.0118788 0.01177738 0.01181257 0.0119707 0.01175347 1000 0.0118788 0.01177738 0.01181257 0.0119707 0.01175347 1000 0.01183007 0.01285739 0.01325791 0.01319056 0.01287277 1000 0.01183007 0.01285739 0.01325791 0.01319056 0.01287277 1000
lala 8 1.2 1 first 9 1 65 5 5.45 0.479997873306274 1 1 1 1 0.01216575 0.01198808 0.01227412 1000 1000 1000 0.01216575 0.01198808 0.01227412 1000 1000 1000 0.01263999 0.01260456 0.01308963 0.01344892 0.01343893 1000 0.01263999 0.01260456 0.01308963 0.01344892 0.01343893 1000
lala 1 1.2 1 second 1 1 66 4 5.32 0.39999794960022 -1 1 1 0 0.01318704 0.01325746 0.01343962 0.01287529 0.01293334 1000 0.01318704 0.01325746 0.01343962 0.01287529 0.01293334 1000 0.01283739 0.01271912 0.0125777 0.01263395 0.01281973 1000 0.01283739 0.01271912 0.0125777 0.01263395 0.01281973 1000
lala 6 1.2 1 first 12 1 67 4 3.84 0.459997892379761 0 0 1 1 0.01235281 0.01274827 0.01268032 1000 1000 1000 0.01235281 0.01274827 0.01268032 1000 1000 1000 0.01242198 0.01252849 0.01273566 0.01272247 0.01281513 1000 0.01242198 0.01252849 0.01273566 0.01272247 0.01281513 1000
lala 3 1.2 1 second 5 1 68 6 7.98 0.339998006820679 -1 1 1 0 0.01234892 0.0127777 0.01313741 0.01308342 0.01301631 1000 0.01234892 0.0127777 0.01313741 0.01308342 0.01301631 1000 0.01283484 0.01259712 0.01246494 0.01253367 0.01239832 1000 0.01283484 0.01259712 0.01246494 0.01253367 0.01239832 1000
lala 5 1.2 0 second 0 1 69 4 2.64 0.39999794960022 -1 0 -1 1 0.01335132 0.01329672 0.01361773 0.01336445 0.01326161 1000 0.01335132 0.01329672 0.01361773 0.01336445 0.01326161 1000 0.01416794 0.01450268 0.01454933 0.01440548 0.0143514 1000 0.01416794 0.01450268 0.01454933 0.01440548 0.0143514 1000
lala 5 1.2 1 second 10 1 70 6 3.96 1.77999687194824 1 0 1 1 0.01515743 0.01503929 0.01503311 0.01499264 0.01474387 1000 0.01515743 0.01503929 0.01503311 0.01499264 0.01474387 1000 0.0151991 0.01483866 0.01478193 0.01508078 0.0153791 1000 0.0151991 0.01483866 0.01478193 0.01508078 0.0153791 1000
lala 5 1.2 0 second 13 1 71 4 2.92 0.979997396469116 0 1 -1 0 0.01544361 0.0152894 0.01523879 0.01513556 0.0150327 1000 0.01544361 0.0152894 0.01523879 0.01513556 0.0150327 1000 0.01543316 0.01538475 0.01533121 0.01531785 0.01548347 1000 0.01543316 0.01538475 0.01533121 0.01531785 0.01548347 1000
lala 8 1.2 0 first 2 1 72 5 4.5 0.439997911453247 -1 0 -1 0 0.01612847 0.01590731 0.01556408 1000 1000 1000 0.01612847 0.01590731 0.01556408 1000 1000 1000 0.01600332 0.01594194 0.01616616 0.01636507 0.01660498 1000 0.01600332 0.01594194 0.01616616 0.01636507 0.01660498 1000
lala 5 1.2 1 first 17 1 73 6 3.180001 1.15999722480774 0 1 1 0 0.01760212 0.0169162 0.01665195 1000 1000 1000 0.01760212 0.0169162 0.01665195 1000 1000 1000 0.01768334 0.01785001 0.01769843 0.01812343 0.0189604 1000 0.01768334 0.01785001 0.01769843 0.01812343 0.0189604 1000
lala 6 1.2 1 second 0 1 74 4 3.84 1.49999690055847 -1 0 1 0 0.01984901 0.01971255 0.0199897 0.01958339 0.01957054 1000 0.01984901 0.01971255 0.0199897 0.01958339 0.01957054 1000 0.02056642 0.02034986 0.02016543 0.0202943 0.02057653 1000 0.02056642 0.02034986 0.02016543 0.0202943 0.02057653 1000
lala 4 1.2 0 second 4 1 75 6 2.76 0.579997777938843 -1 0 -1 1 0.02009821 0.0200114 0.02010329 0.01987373 0.0200566 1000 0.02009821 0.0200114 0.02010329 0.01987373 0.0200566 1000 0.01968662 0.02018324 0.01990268 0.01986641 0.01987803 1000 0.01968662 0.02018324 0.01990268 0.01986641 0.01987803 1000
lala 6 1.2 1 first 13 1 76 4 4.12 0.539997816085815 0 1 1 1 0.01962522 0.01996734 0.02011084 1000 1000 1000 0.01962522 0.01996734 0.02011084 1000 1000 1000 0.01922796 0.01935108 0.01967537 0.01978379 0.02017367 1000 0.01922796 0.01935108 0.01967537 0.01978379 0.02017367 1000
lala 6 1.2 0 second 10 1 77 6 2.76 3.7599949836731 1 0 -1 1 0.02044415 0.02068457 0.02073155 0.02093227 0.02043824 1000 0.02044415 0.02068457 0.02073155 0.02093227 0.02043824 1000 0.01970386 0.01979505 0.02010594 0.02024528 0.02034422 1000 0.01970386 0.01979505 0.02010594 0.02024528 0.02034422 1000
lala 2 1.2 1 first 7 1 78 4 4.12 0.739997625350952 1 1 1 1 0.01911364 0.01913279 0.01976291 1000 1000 1000 0.01911364 0.01913279 0.01976291 1000 1000 1000 0.01855637 0.01875846 0.01875881 0.01907837 0.01888512 1000 0.01855637 0.01875846 0.01875881 0.01907837 0.01888512 1000
lala 9 1.2 1 second 2 1 79 5 5.7 0.459997892379761 -1 0 1 1 0.01970824 0.01997389 0.01992839 0.019493 0.0193135 1000 0.01970824 0.01997389 0.01992839 0.019493 0.0193135 1000 0.01859387 0.01865015 0.01876486 0.01922007 0.01907111 1000 0.01859387 0.01865015 0.01876486 0.01922007 0.01907111 1000
lala 2 1.2 1 second 8 1 80 5 4.5 0.919997453689575 1 0 1 1 0.01858066 0.01875273 0.01915664 0.01925123 0.01918385 1000 0.01858066 0.01875273 0.01915664 0.01925123 0.01918385 1000 0.01686893 0.01707709 0.01689832 0.01676041 0.01696395 1000 0.01686893 0.01707709 0.01689832 0.01676041 0.01696395 1000
lala 9 1.2 1 second 9 1 81 5 4.25 0.779997587203979 1 1 1 1 0.01705177 0.01751861 0.0173592 0.01728126 0.01724832 1000 0.01705177 0.01751861 0.0173592 0.01728126 0.01724832 1000 0.01619083 0.01629194 0.01626459 0.01634479 0.01638173 1000 0.01619083 0.01629194 0.01626459 0.01634479 0.01638173 1000
lala 7 1.2 1 second 10 1 82 6 3.96 0.439997911453247 1 0 1 0 0.01655913 0.01633474 0.01637207 0.01669312 0.01692312 1000 0.01655913 0.01633474 0.01637207 0.01669312 0.01692312 1000 0.01593344 0.01652313 0.01657269 0.01650653 0.01651925 1000 0.01593344 0.01652313 0.01657269 0.01650653 0.01651925 1000
lala 6 1.2 1 second 11 1 83 6 4.380001 2.95999574661255 1 1 1 1 0.0159341 0.01580516 0.01570009 0.01592283 0.0157072 1000 0.0159341 0.01580516 0.01570009 0.01592283 0.0157072 1000 0.01640808 0.01626289 0.01619245 0.01603831 0.01625909 1000 0.01640808 0.01626289 0.01619245 0.01603831 0.01625909 1000
lala 4 1.2 1 first 3 1 84 5 5.45 0.659997701644897 -1 1 1 1 0.01684507 0.01693674 0.01720971 1000 1000 1000 0.01684507 0.01693674 0.01720971 1000 1000 1000 0.01740163 0.01747617 0.01747838 0.01735128 0.01677516 1000 0.01740163 0.01747617 0.01747838 0.01735128 0.01677516 1000
lala 3 1.2 0 second 16 1 85 6 3.96 0.459997892379761 0 0 -1 1 0.01644428 0.01636261 0.01666852 0.01687319 0.01664461 1000 0.01644428 0.01636261 0.01666852 0.01687319 0.01664461 1000 0.01795644 0.01788706 0.01771532 0.01773317 0.01789758 1000 0.01795644 0.01788706 0.01771532 0.01773317 0.01789758 1000
lala 3 1.2 0 second 8 1 86 5 3.3 1.69999694824219 1 0 -1 1 0.01713536 0.01719978 0.01758507 0.01759481 0.01771714 1000 0.01713536 0.01719978 0.01758507 0.01759481 0.01771714 1000 0.01839378 0.01764846 0.01730094 0.01707121 0.01685822 1000 0.01839378 0.01764846 0.01730094 0.01707121 0.01685822 1000
lala 3 1.2 0 second 7 1 87 4 2.92 0.599997758865356 1 1 -1 0 0.01693934 0.01715289 0.01697914 0.01687854 0.01644007 1000 0.01693934 0.01715289 0.01697914 0.01687854 0.01644007 1000 0.01640113 0.01634346 0.01640248 0.0164755 0.01656345 1000 0.01640113 0.01634346 0.01640248 0.0164755 0.01656345 1000
lala 10 0.6 1 first 2 1 88 5 5.1 0.279998064041138 -1 0 1 0 0.01625647 0.01634531 0.01636601 1000 1000 1000 0.01625647 0.01634531 0.01636601 1000 1000 1000 0.01497651 0.01506528 0.01537494 0.01516335 0.01514978 1000 0.01497651 0.01506528 0.01537494 0.01516335 0.01514978 1000
lala 10 1.2 0 first 9 1 89 5 3.05 2.39999628067017 1 1 -1 1 0.01487719 0.01495383 0.01489777 1000 1000 1000 0.01487719 0.01495383 0.01489777 1000 1000 1000 0.01413523 0.01383952 0.01423701 0.01413907 0.01421218 1000 0.01413523 0.01383952 0.01423701 0.01413907 0.01421218 1000
lala 2 1.2 1 first 1 1 90 4 4.12 2.09999656677246 -1 1 1 1 0.01083258 0.01045389 0.01016726 1000 1000 1000 0.01083258 0.01045389 0.01016726 1000 1000 1000 0.01082551 0.01046618 0.01033235 0.01024862 0.01041946 1000 0.01082551 0.01046618 0.01033235 0.01024862 0.01041946 1000
lala 7 1.2 0 second 0 1 91 4 2.64 0.419997930526733 -1 0 -1 0 0.009703276 0.009361855 0.00942238 0.009391856 0.00917396 1000 0.009703276 0.009361855 0.00942238 0.009391856 0.00917396 1000 0.008460666 0.008806034 0.009036473 0.009005639 0.008893855 1000 0.008460666 0.008806034 0.009036473 0.009005639 0.008893855 1000
lala 7 1.2 0 first 15 1 92 5 4.25 0.159998178482056 0 1 -1 0 0.009029634 0.00882596 0.008829387 1000 1000 1000 0.009029634 0.00882596 0.008829387 1000 1000 1000 0.009099542 0.009519439 0.009296653 0.009028485 0.009147882 1000 0.009099542 0.009519439 0.009296653 0.009028485 0.009147882 1000
lala 8 1.2 0 first 10 1 93 6 2.76 1.03999733924866 1 0 -1 0 0.006503132 0.006075377 0.005817728 1000 1000 1000 0.006503132 0.006075377 0.005817728 1000 1000 1000 0.0002573141 0.006686141 0.006722445 0.00975031 0.01298336 1000 0.0002573141 0.006686141 0.006722445 0.00975031 0.01298336 1000
lala 11 0.6 1 second 2 1 94 5 4.5 0.539997816085815 -1 0 1 1 -0.02162438 -0.0281894 -0.03261006 -0.03223341 -0.03006062 1000 -0.02162438 -0.0281894 -0.03261006 -0.03223341 -0.03006062 1000 -0.01131327 -0.00985894 -0.009865552 -0.01034218 -0.01071533 1000 -0.01131327 -0.00985894 -0.009865552 -0.01034218 -0.01071533 1000
lala 4 1.2 1 second 5 1 95 6 6.780001 0.359997987747192 -1 1 1 1 -0.009826588 -0.009403932 -0.00959445 -0.01015075 -0.0104403 1000 -0.009826588 -0.009403932 -0.00959445 -0.01015075 -0.0104403 1000 -0.01013279 -0.0102328 -0.01011166 -0.01030544 -0.01028453 1000 -0.01013279 -0.0102328 -0.01011166 -0.01030544 -0.01028453 1000
lala 7 1.2 0 second 11 1 96 6 3.180001 1.3999969959259 1 1 -1 1 -0.0100873 -0.009755306 -0.009829769 -0.009895197 -0.01012186 1000 -0.0100873 -0.009755306 -0.009829769 -0.009895197 -0.01012186 1000 -0.01105666 -0.01084604 -0.01078138 -0.01053046 -0.0101334 1000 -0.01105666 -0.01084604 -0.01078138 -0.01053046 -0.0101334 1000
lala 11 0.6 0 second 9 1 97 5 3.65 0.579997777938843 1 1 -1 1 -0.01248335 -0.0122727 -0.01231837 -0.01246096 -0.01284175 1000 -0.01248335 -0.0122727 -0.01231837 -0.01246096 -0.01284175 1000 -0.01412702 -0.01437949 -0.0144348 -0.01445198 -0.0142028 1000 -0.01412702 -0.01437949 -0.0144348 -0.01445198 -0.0142028 1000
lala 6 1.2 0 first 6 1 98 4 3.84 0.539997816085815 1 0 -1 1 -0.01653395 -0.0164342 -0.01682221 1000 1000 1000 -0.01653395 -0.0164342 -0.01682221 1000 1000 1000 -0.01645812 -0.01643486 -0.01646693 -0.01662368 -0.01680899 1000 -0.01645812 -0.01643486 -0.01646693 -0.01662368 -0.01680899 1000
lala 6 1.2 0 second 17 1 99 6 1.980001 0.279998064041138 0 1 -1 0 -0.01751972 -0.01747065 -0.01765128 -0.01778669 -0.01800878 1000 -0.01751972 -0.01747065 -0.01765128 -0.01778669 -0.01800878 1000 -0.01831182 -0.01813049 -0.01796942 -0.01790408 -0.01788196 1000 -0.01831182 -0.01813049 -0.01796942 -0.01790408 -0.01788196 1000
lala 2 1.2 1 first 14 1 100 5 4.5 0.279998064041138 0 0 1 0 -0.01756319 -0.007852073 0.0003975081 0.008687976 0.01206675 0.01051506 -0.01756319 -0.007852073 0.0003975081 0.008687976 0.01206675 0.01051506 0.005255214 0.005143479 0.005652427 0.006197887 0.006534923 1000 0.005255214 0.005143479 0.005652427 0.006197887 0.006534923 1000
lala 7 1.2 1 second 12 1 101 4 2.64 1.0999972820282 0 0 1 0 0.006144858 0.00599298 0.006160364 0.006435804 0.006876662 1000 0.006144858 0.00599298 0.006160364 0.006435804 0.006876662 1000 0.008403695 0.008870805 0.008928665 0.009553398 0.009767296 1000 0.008403695 0.008870805 0.008928665 0.009553398 0.009767296 1000
lala 9 1.2 0 second 10 1 102 6 3.96 2.39999628067017 1 0 -1 0 0.01004307 0.01015359 0.01015455 0.01020357 0.01010045 1000 0.01004307 0.01015359 0.01015455 0.01020357 0.01010045 1000 0.01017915 0.0103522 0.01059856 0.01030981 0.01009516 1000 0.01017915 0.0103522 0.01059856 0.01030981 0.01009516 1000
lala 8 1.2 1 first 15 1 103 5 5.45 0.01999831199646 0 1 1 1 0.007927476 0.007739386 0.007670931 1000 1000 1000 0.007927476 0.007739386 0.007670931 1000 1000 1000 0.007022735 0.007312453 0.00753601 0.008007793 0.008054604 1000 0.007022735 0.007312453 0.00753601 0.008007793 0.008054604 1000
lala 12 0.6 0 first 9 1 104 5 4.25 0.219998121261597 1 1 -1 0 0.008103056 0.007746066 0.007649628 1000 1000 1000 0.008103056 0.007746066 0.007649628 1000 1000 1000 0.007147309 0.007517745 0.007686534 0.008058902 0.007872366 1000 0.007147309 0.007517745 0.007686534 0.008058902 0.007872366 1000
lala 7 1.2 1 second 6 1 105 4 5.04 1.47999691963196 1 0 1 1 0.007214575 0.007459043 0.007423567 0.007520905 0.007466367 1000 0.007214575 0.007459043 0.007423567 0.007520905 0.007466367 1000 0.0065284 0.006020898 0.00534725 0.004362535 0.004419818 1000 0.0065284 0.006020898 0.00534725 0.004362535 0.004419818 1000
lala 8 1.2 1 first 6 1 106 4 3.84 0.339998006820679 1 0 1 0 0.004517226 0.004649682 0.00454273 1000 1000 1000 0.004517226 0.004649682 0.00454273 1000 1000 1000 0.002395603 0.002562684 0.002885911 0.002932585 0.002774253 1000 0.002395603 0.002562684 0.002885911 0.002932585 0.002774253 1000
lala 13 0.6 0 first 9 1 107 5 4.85 1.31999707221985 1 1 -1 0 0.001231293 0.001235432 0.001559174 1000 1000 1000 0.001231293 0.001235432 0.001559174 1000 1000 1000 0.001183192 0.0007372912 0.0006416216 0.0005750881 0.0005452021 1000 0.001183192 0.0007372912 0.0006416216 0.0005750881 0.0005452021 1000
lala 8 1.2 0 first 12 1 108 4 1.44 0.079998254776001 0 0 -1 0 0.001382816 0.001554937 0.00129407 1000 1000 1000 0.001382816 0.001554937 0.00129407 1000 1000 1000 0.0008264305 0.0005102906 0.0008727998 0.001182308 0.001474724 1000 0.0008264305 0.0005102906 0.0008727998 0.001182308 0.001474724 1000
lala 7 1.2 1 first 13 1 109 4 2.92 0.279998064041138 0 1 1 1 -0.001557986 -0.002008604 -0.002036558 1000 1000 1000 -0.001557986 -0.002008604 -0.002036558 1000 1000 1000 -0.007146301 -0.007672247 -0.007805624 -0.007412724 -0.006159341 1000 -0.007146301 -0.007672247 -0.007805624 -0.007412724 -0.006159341 1000
lala 5 1.2 1 first 3 1 110 5 4.25 0.219998121261597 -1 1 1 1 -0.002593477 -0.0007570911 -0.0006869448 1000 1000 1000 -0.002593477 -0.0007570911 -0.0006869448 1000 1000 1000 -0.002006734 -0.002248711 -0.002780658 -0.003027753 -0.003221106 1000 -0.002006734 -0.002248711 -0.002780658 -0.003027753 -0.003221106 1000
lala 9 1.2 1 second 15 1 111 5 4.25 0.899997472763062 0 1 1 1 -0.003606172 -0.003476382 -0.003264477 -0.003467764 -0.00362387 1000 -0.003606172 -0.003476382 -0.003264477 -0.003467764 -0.00362387 1000 -0.003335143 -0.003697025 -0.003371351 -0.003534745 -0.00378919 1000 -0.003335143 -0.003697025 -0.003371351 -0.003534745 -0.00378919 1000
lala 5 1.2 1 second 5 1 112 6 5.580001 0.299998044967651 -1 1 1 1 -0.005659278 -0.005512037 -0.004757871 -0.004637624 -0.004167903 1000 -0.005659278 -0.005512037 -0.004757871 -0.004637624 -0.004167903 1000 -0.005244239 -0.005268379 -0.004926879 -0.004066955 -0.004144399 1000 -0.005244239 -0.005268379 -0.004926879 -0.004066955 -0.004144399 1000
lala 7 1.2 0 first 17 1 113 6 3.180001 2.51999616622925 0 1 -1 0 -0.004927064 -0.005089655 -0.005224329 1000 1000 1000 -0.004927064 -0.005089655 -0.005224329 1000 1000 1000 -0.006604365 -0.00620959 -0.005925723 -0.005519083 -0.006190592 1000 -0.006604365 -0.00620959 -0.005925723 -0.005519083 -0.006190592 1000
lala 12 0.6 0 first 2 1 114 5 3.9 1.99999666213989 -1 0 -1 0 -0.007514555 -0.007714772 -0.00785281 1000 1000 1000 -0.007514555 -0.007714772 -0.00785281 1000 1000 1000 -0.008205997 -0.008223169 -0.008408999 -0.008787391 -0.009308626 1000 -0.008205997 -0.008223169 -0.008408999 -0.008787391 -0.009308626 1000
lala 6 1.2 1 second 5 1 115 6 4.380001 2.2999963760376 -1 1 1 1 -0.01113266 -0.01082098 -0.0112488 -0.01185505 -0.01261597 1000 -0.01113266 -0.01082098 -0.0112488 -0.01185505 -0.01261597 1000 -0.01956828 -0.02336945 -0.02553096 -0.02412019 -0.02172424 1000 -0.01956828 -0.02336945 -0.02553096 -0.02412019 -0.02172424 1000
lala 3 1.2 1 second 14 1 116 5 3.3 0.99999737739563 0 0 1 0 -0.02118924 -0.02131943 -0.021174 -0.02103974 -0.02088631 1000 -0.02118924 -0.02131943 -0.021174 -0.02103974 -0.02088631 1000 -0.0195563 -0.01974677 -0.019876 -0.01998415 -0.01993215 1000 -0.0195563 -0.01974677 -0.019876 -0.01998415 -0.01993215 1000
lala 7 1.2 0 first 5 1 117 6 3.180001 2.7399959564209 -1 1 -1 0 -0.02032812 -0.02013357 -0.02046227 1000 1000 1000 -0.02032812 -0.02013357 -0.02046227 1000 1000 1000 -0.02211938 -0.02108611 -0.0206672 -0.02095609 -0.02149286 1000 -0.02211938 -0.02108611 -0.0206672 -0.02095609 -0.02149286 1000
lala 6 1.2 1 first 3 1 118 5 3.05 1.23999714851379 -1 1 1 0 -0.02467792 -0.0243209 -0.02406488 1000 1000 1000 -0.02467792 -0.0243209 -0.02406488 1000 1000 1000 -0.02662164 -0.02757468 -0.02839248 -0.02908932 -0.0289296 1000 -0.02662164 -0.02757468 -0.02839248 -0.02908932 -0.0289296 1000
lala 7 1.2 0 second 3 1 119 5 1.85 0.519997835159302 -1 1 -1 0 -0.01371781 -0.01494873 -0.01564817 -0.01544265 -0.01506715 1000 -0.01371781 -0.01494873 -0.01564817 -0.01544265 -0.01506715 1000 -0.01735714 -0.0173547 -0.01690594 -0.0162576 -0.0164873 1000 -0.01735714 -0.0173547 -0.01690594 -0.0162576 -0.0164873 1000
lala 10 1.2 0 second 15 1 120 5 3.05 0.39999794960022 0 1 -1 0 -0.01782422 -0.01778624 -0.01800446 -0.01773565 -0.01754701 1000 -0.01782422 -0.01778624 -0.01800446 -0.01773565 -0.01754701 1000 -0.0198039 -0.02000001 -0.01972076 -0.0193606 -0.01924936 1000 -0.0198039 -0.02000001 -0.01972076 -0.0193606 -0.01924936 1000
lala 8 1.2 0 second 5 1 121 6 4.380001 9.66008615493774 -1 1 -1 0 -0.02461044 -0.024483 -0.02404324 -0.02404727 -0.02430999 1000 -0.02461044 -0.024483 -0.02404324 -0.02404727 -0.02430999 1000 -0.02515331 -0.02498048 -0.02506254 -0.02506098 -0.02531367 1000 -0.02515331 -0.02498048 -0.02506254 -0.02506098 -0.02531367 1000
lala 8 1.2 0 first 11 1 122 6 4.380001 0.339998006820679 1 1 -1 1 -0.02207491 -0.02212565 -0.02199367 1000 1000 1000 -0.02207491 -0.02212565 -0.02199367 1000 1000 1000 -0.02368518 -0.0240064 -0.02253818 -0.02005628 -0.01836203 1000 -0.02368518 -0.0240064 -0.02253818 -0.02005628 -0.01836203 1000
lala 8 1.2 0 second 0 1 123 4 3.84 1.0999972820282 -1 0 -1 1 0.005141007 0.01421322 0.01786896 0.01479582 0.01639126 1000 0.005141007 0.01421322 0.01786896 0.01479582 0.01639126 1000 0.02055065 0.01698237 0.02046531 0.0261611 0.02887419 1000 0.02055065 0.01698237 0.02046531 0.0261611 0.02887419 1000
lala 9 1.2 0 first 11 1 124 6 5.580001 0.559997797012329 1 1 -1 0 -0.01118113 -0.009708672 -0.009774799 1000 1000 1000 -0.01118113 -0.009708672 -0.009774799 1000 1000 1000 -0.01198894 -0.0123683 -0.01255694 -0.01278168 -0.01303742 1000 -0.01198894 -0.0123683 -0.01255694 -0.01278168 -0.01303742 1000
lala 9 1.2 0 second 12 1 125 4 2.64 0.599997758865356 0 0 -1 1 -0.01430196 -0.0143263 -0.01494799 -0.0155811 -0.01613525 1000 -0.01430196 -0.0143263 -0.01494799 -0.0155811 -0.01613525 1000 -0.01764808 -0.01733335 -0.01746633 -0.0178703 -0.01772884 1000 -0.01764808 -0.01733335 -0.01746633 -0.0178703 -0.01772884 1000
lala 13 0.3 1 second 2 1 126 5 4.2 0.199998140335083 -1 0 1 0 -0.01832327 -0.01854214 -0.01868687 -0.01913907 -0.01959061 1000 -0.01832327 -0.01854214 -0.01868687 -0.01913907 -0.01959061 1000 -0.01985114 -0.01988091 -0.0197597 -0.01993034 -0.01991704 1000 -0.01985114 -0.01988091 -0.0197597 -0.01993034 -0.01991704 1000
lala 8 1.2 1 second 17 1 127 6 4.380001 0.259998083114624 0 1 1 0 -0.02290995 -0.02320044 -0.0232626 -0.02333144 -0.02350023 1000 -0.02290995 -0.02320044 -0.0232626 -0.02333144 -0.02350023 1000 -0.02343079 -0.02324526 -0.02302567 -0.02301865 -0.02330206 1000 -0.02343079 -0.02324526 -0.02302567 -0.02301865 -0.02330206 1000
lala 14 1.2 1 second 9 1 128 5 6.05 0.659997701644897 1 1 1 1 -0.02414459 -0.02434617 -0.02398811 -0.02391636 -0.02399782 1000 -0.02414459 -0.02434617 -0.02398811 -0.02391636 -0.02399782 1000 -0.02555573 -0.02574395 -0.02482362 -0.02402195 -0.02260304 1000 -0.02555573 -0.02574395 -0.02482362 -0.02402195 -0.02260304 1000
lala 9 1.2 0 second 17 1 129 6 3.180001 0.0999982357025146 0 1 -1 1 -0.0156289 -0.01444011 -0.01245654 -0.01380117 -0.01548231 1000 -0.0156289 -0.01444011 -0.01245654 -0.01380117 -0.01548231 1000 -0.01404438 -0.01408103 -0.01341301 -0.01123518 -0.008369801 1000 -0.01404438 -0.01408103 -0.01341301 -0.01123518 -0.008369801 1000
lala 4 1.2 1 second 16 1 130 6 5.16 0.339998006820679 0 0 1 0 -0.01037896 -0.01342709 -0.01477304 -0.01577229 -0.01734566 1000 -0.01037896 -0.01342709 -0.01477304 -0.01577229 -0.01734566 1000 -0.01540609 -0.01392988 -0.01215402 -0.01195934 -0.01048834 1000 -0.01540609 -0.01392988 -0.01215402 -0.01195934 -0.01048834 1000
lala 9 1.2 1 first 5 1 131 6 5.580001 0.0399982929229736 -1 1 1 1 -0.01219027 -0.01218163 -0.01093905 1000 1000 1000 -0.01219027 -0.01218163 -0.01093905 1000 1000 1000 -0.01496149 -0.01496989 -0.01560985 -0.01645821 -0.0174196 1000 -0.01496149 -0.01496989 -0.01560985 -0.01645821 -0.0174196 1000
lala 9 1.2 0 first 6 1 132 4 2.64 1.25999712944031 1 0 -1 1 -0.01792864 -0.01862426 -0.01883164 1000 1000 1000 -0.01792864 -0.01862426 -0.01883164 1000 1000 1000 -0.02197067 -0.02268233 -0.02297868 -0.02321568 -0.02299638 1000 -0.02197067 -0.02268233 -0.02297868 -0.02321568 -0.02299638 1000
lala 10 1.2 1 first 10 1 133 6 5.16 0.419997930526733 1 0 1 0 -0.02230756 -0.02212065 -0.0213494 1000 1000 1000 -0.02230756 -0.02212065 -0.0213494 1000 1000 1000 -0.02428702 -0.02418101 -0.02449285 -0.02506431 -0.02599107 1000 -0.02428702 -0.02418101 -0.02449285 -0.02506431 -0.02599107 1000
lala 4 1.2 0 second 7 1 134 4 4.12 0.599997758865356 1 1 -1 1 -0.002187976 -0.001135072 -0.0009019154 -0.001456749 -0.001793658 1000 -0.002187976 -0.001135072 -0.0009019154 -0.001456749 -0.001793658 1000 -0.002739784 -0.003472067 -0.004355655 -0.004562031 -0.004336519 1000 -0.002739784 -0.003472067 -0.004355655 -0.004562031 -0.004336519 1000
lala 10 2.4 1 first 11 1 135 6 7.980001 0.679997682571411 1 1 1 0 -0.005184829 -0.005258102 -0.005299456 1000 1000 1000 -0.005184829 -0.005258102 -0.005299456 1000 1000 1000 -0.006176834 -0.006140793 -0.006737933 -0.007114063 -0.007244447 1000 -0.006176834 -0.006140793 -0.006737933 -0.007114063 -0.007244447 1000
lala 11 0.6 0 second 15 1 136 5 3.65 2.159996509552 0 1 -1 0 -0.007848658 -0.007590932 -0.007388106 -0.007078735 -0.007541263 1000 -0.007848658 -0.007590932 -0.007388106 -0.007078735 -0.007541263 1000 -0.01267456 -0.01225036 -0.01309742 -0.01387566 -0.01446165 1000 -0.01267456 -0.01225036 -0.01309742 -0.01387566 -0.01446165 1000
lala 5 1.2 1 first 4 1 137 6 3.96 1.91999673843384 -1 0 1 1 -0.01169898 -0.01186863 -0.01219826 1000 1000 1000 -0.01169898 -0.01186863 -0.01219826 1000 1000 1000 -0.02431552 -0.02384146 -0.02352842 -0.02231829 -0.02204411 1000 -0.02431552 -0.02384146 -0.02352842 -0.02231829 -0.02204411 1000
lala 15 0.6 1 first 9 1 138 5 5.45 0.539997816085815 1 1 1 0 -0.02349436 -0.02335378 -0.02295446 1000 1000 1000 -0.02349436 -0.02335378 -0.02295446 1000 1000 1000 -0.02302125 -0.02300602 -0.02238048 -0.02134872 -0.02120241 1000 -0.02302125 -0.02300602 -0.02238048 -0.02134872 -0.02120241 1000
lala 3 1.2 0 second 1 1 139 4 2.92 0.0999982357025146 -1 1 -1 1 -0.01951966 -0.01909938 -0.01856139 -0.01834769 -0.0185573 1000 -0.01951966 -0.01909938 -0.01856139 -0.01834769 -0.0185573 1000 -0.01934697 -0.01947058 -0.0194008 -0.01912498 -0.01895541 1000 -0.01934697 -0.01947058 -0.0194008 -0.01912498 -0.01895541 1000
lala 6 1.2 0 second 4 1 140 6 2.76 0.159998178482056 -1 0 -1 1 -0.02152929 -0.02126542 -0.02114901 -0.0214906 -0.02210287 1000 -0.02152929 -0.02126542 -0.02114901 -0.0214906 -0.02210287 1000 -0.02121117 -0.02060522 -0.0205865 -0.02103036 -0.02155001 1000 -0.02121117 -0.02060522 -0.0205865 -0.02103036 -0.02155001 1000
lala 8 1.2 0 second 3 1 141 5 3.05 3.93999481201172 -1 1 -1 0 -0.02226105 -0.02206594 -0.02207549 -0.02228616 -0.02227126 1000 -0.02226105 -0.02206594 -0.02207549 -0.02228616 -0.02227126 1000 -0.02334263 -0.02405739 -0.02484358 -0.02593062 -0.02810084 1000 -0.02334263 -0.02405739 -0.02484358 -0.02593062 -0.02810084 1000
lala 10 0.6 0 second 6 1 142 4 3.24 6.08000421524048 1 0 -1 0 -0.01323244 -0.01322712 -0.01328129 -0.01365902 -0.01384859 1000 -0.01323244 -0.01322712 -0.01328129 -0.01365902 -0.01384859 1000 -0.01566179 -0.01603981 -0.01621801 -0.01643695 -0.01628232 1000 -0.01566179 -0.01603981 -0.01621801 -0.01643695 -0.01628232 1000
lala 4 1.2 1 second 8 1 143 5 4.5 0.359997987747192 1 0 1 0 -0.01019064 -0.01051149 -0.01073786 -0.01072873 -0.01073495 1000 -0.01019064 -0.01051149 -0.01073786 -0.01072873 -0.01073495 1000 -0.0116131 -0.01179578 -0.01186246 -0.01197255 -0.01258746 1000 -0.0116131 -0.01179578 -0.01186246 -0.01197255 -0.01258746 1000
lala 9 1.2 1 first 0 1 144 4 5.04 0.01999831199646 -1 0 1 1 -0.01625847 -0.01622446 -0.01630625 1000 1000 1000 -0.01625847 -0.01622446 -0.01630625 1000 1000 1000 -0.01768094 -0.01773079 -0.01798107 -0.01824005 -0.01826578 1000 -0.01768094 -0.01773079 -0.01798107 -0.01824005 -0.01826578 1000
lala 14 0.15 1 second 2 1 145 5 4.05 1.03999733924866 -1 0 1 0 -0.02057585 -0.02063205 -0.02055165 -0.02116548 -0.02181083 1000 -0.02057585 -0.02063205 -0.02055165 -0.02116548 -0.02181083 1000 -0.02345661 -0.02302915 -0.02265042 -0.02283277 -0.02323957 1000 -0.02345661 -0.02302915 -0.02265042 -0.02283277 -0.02323957 1000
lala 4 1.2 1 first 1 1 146 4 4.12 0.61999773979187 -1 1 1 0 -0.02327389 -0.02344359 -0.02343184 1000 1000 1000 -0.02327389 -0.02344359 -0.02343184 1000 1000 1000 -0.02531888 -0.02546869 -0.02544225 -0.0254111 -0.0255093 1000 -0.02531888 -0.02546869 -0.02544225 -0.0254111 -0.0255093 1000
lala 16 0.6 1 second 9 1 147 5 4.85 0.379997968673706 1 1 1 0 0.02811478 0.0261069 0.02183304 0.01653928 0.01367594 1000 0.02811478 0.0261069 0.02183304 0.01653928 0.01367594 1000 0.009580383 0.009023138 0.008584015 0.008319851 0.007751857 1000 0.009580383 0.009023138 0.008584015 0.008319851 0.007751857 1000
lala 11 1.2 1 second 11 1 148 6 6.780001 0.939997434616089 1 1 1 0 0.006524187 0.006677103 0.00678686 0.006758293 0.006402455 1000 0.006524187 0.006677103 0.00678686 0.006758293 0.006402455 1000 0.004800537 0.004050024 0.003529444 0.003002385 0.002821619 1000 0.004800537 0.004050024 0.003529444 0.003002385 0.002821619 1000
lala 10 1.2 0 first 12 1 149 4 3.84 0.779997587203979 0 0 -1 0 0.001484863 0.001023446 0.0005016304 1000 1000 1000 0.001484863 0.001023446 0.0005016304 1000 1000 1000 -0.003941289 -0.004211228 -0.004487341 -0.004782423 -0.004767109 1000 -0.003941289 -0.004211228 -0.004487341 -0.004782423 -0.004767109 1000
lala 11 0.6 1 second 10 1 150 6 4.56 0.439997911453247 1 0 1 0 0.00196097 0.002748522 0.003456523 0.001084841 -0.002012955 1000 0.00196097 0.002748522 0.003456523 0.001084841 -0.002012955 1000 -0.01137895 -0.01269384 -0.01173098 -0.01068668 -0.01046906 1000 -0.01137895 -0.01269384 -0.01173098 -0.01068668 -0.01046906 1000
lala 17 0.6 1 second 9 1 151 5 4.25 0.319998025894165 1 1 1 0 -0.01534757 -0.01560253 -0.01536561 -0.01593262 -0.01640197 1000 -0.01534757 -0.01560253 -0.01536561 -0.01593262 -0.01640197 1000 -0.01622742 -0.01627 -0.01626125 -0.01615913 -0.01609506 1000 -0.01622742 -0.01627 -0.01626125 -0.01615913 -0.01609506 1000
lala 4 1.2 0 first 14 1 152 5 2.1 0.159998178482056 0 0 -1 0 -0.01731299 -0.01790976 -0.01780426 1000 1000 1000 -0.01731299 -0.01790976 -0.01780426 1000 1000 1000 -0.01870899 -0.01860764 -0.01905741 -0.01895567 -0.01884609 1000 -0.01870899 -0.01860764 -0.01905741 -0.01895567 -0.01884609 1000
lala 7 1.2 0 first 4 1 153 6 3.96 0.359997987747192 -1 0 -1 1 -0.0187467 -0.01846219 -0.01853191 1000 1000 1000 -0.0187467 -0.01846219 -0.01853191 1000 1000 1000 -0.0181652 -0.01791147 -0.01749132 -0.01796766 -0.01880318 1000 -0.0181652 -0.01791147 -0.01749132 -0.01796766 -0.01880318 1000
lala 12 1.2 1 second 11 1 154 6 5.580001 0.359997987747192 1 1 1 1 -0.02076264 -0.02218023 -0.0231271 -0.02391861 -0.02337048 1000 -0.02076264 -0.02218023 -0.0231271 -0.02391861 -0.02337048 1000 -0.02262867 -0.02243026 -0.02263307 -0.02327855 -0.02375918 1000 -0.02262867 -0.02243026 -0.02263307 -0.02327855 -0.02375918 1000
lala 10 0.6 0 first 0 1 155 4 4.44 0.899997472763062 -1 0 -1 0 -0.01889036 -0.003638694 0.008996384 1000 1000 1000 -0.01889036 -0.003638694 0.008996384 1000 1000 1000 0.01414321 0.01159879 0.01119224 0.0119591 0.0129191 1000 0.01414321 0.01159879 0.01119224 0.0119591 0.0129191 1000
lala 5 1.2 0 second 16 1 156 6 3.96 0.439997911453247 0 0 -1 1 0.01147223 0.01157452 0.010868 0.01094134 0.01133604 1000 0.01147223 0.01157452 0.010868 0.01094134 0.01133604 1000 0.0121965 0.01174301 0.011695 0.0116454 0.01162789 1000 0.0121965 0.01174301 0.011695 0.0116454 0.01162789 1000
lala 15 0.15 0 first 2 1 157 5 3.9 0.439997911453247 -1 0 -1 1 0.01348504 0.01406389 0.01378352 1000 1000 1000 0.01348504 0.01406389 0.01378352 1000 1000 1000 0.01647024 0.01653511 0.01555894 0.01520404 0.01548495 1000 0.01647024 0.01653511 0.01555894 0.01520404 0.01548495 1000
lala 5 1.2 0 second 1 1 158 4 2.92 0.339998006820679 -1 1 -1 1 0.01887159 0.01880336 0.01903287 0.01945364 0.01982958 1000 0.01887159 0.01880336 0.01903287 0.01945364 0.01982958 1000 0.01931232 0.01955782 0.02061256 0.02072691 0.02015297 1000 0.01931232 0.01955782 0.02061256 0.02072691 0.02015297 1000
lala 8 1.2 1 second 4 1 159 6 5.16 0.219998121261597 -1 0 1 0 0.02204601 0.02248506 0.02230159 0.02192716 0.02226397 1000 0.02204601 0.02248506 0.02230159 0.02192716 0.02226397 1000 0.02107577 0.0205767 0.02041277 0.02020533 0.02018974 1000 0.02107577 0.0205767 0.02041277 0.02020533 0.02018974 1000
lala 11 2.4 1 second 12 1 160 4 6.24 0.119998216629028 0 0 1 1 0.0209303 0.02106079 0.02143531 0.02179982 0.02183319 1000 0.0209303 0.02106079 0.02143531 0.02179982 0.02183319 1000 0.02111732 0.0209225 0.02129012 0.02058571 0.0201674 1000 0.02111732 0.0209225 0.02129012 0.02058571 0.0201674 1000
lala 9 1.2 1 second 3 1 161 5 4.25 0.279998064041138 -1 1 1 0 0.02240889 0.02245307 0.02221584 0.0224092 0.02293275 1000 0.02240889 0.02245307 0.02221584 0.0224092 0.02293275 1000 0.02277343 0.02188044 0.02158603 0.02119034 0.02147129 1000 0.02277343 0.02188044 0.02158603 0.02119034 0.02147129 1000
lala 12 0.6 1 first 15 1 162 5 4.25 0.299998044967651 0 1 1 0 0.02245671 0.02264161 0.0227746 1000 1000 1000 0.02245671 0.02264161 0.0227746 1000 1000 1000 0.0218902 0.02233396 0.02300791 0.02341045 0.02366961 1000 0.0218902 0.02233396 0.02300791 0.02341045 0.02366961 1000
lala 12 0.6 1 second 10 1 163 6 3.96 0.459997892379761 1 0 1 0 0.02446159 0.02446526 0.02442522 0.02445692 0.0246113 1000 0.02446159 0.02446526 0.02442522 0.02445692 0.0246113 1000 0.02325691 0.02350879 0.02318097 0.0223159 0.02234619 1000 0.02325691 0.02350879 0.02318097 0.0223159 0.02234619 1000
lala 12 1.2 1 second 12 1 164 4 5.04 0.379997968673706 0 0 1 1 0.02487985 0.02438485 0.02439831 0.02488081 0.02509467 1000 0.02487985 0.02438485 0.02439831 0.02488081 0.02509467 1000 0.01976612 0.01982037 0.01960923 0.01887613 0.01884316 1000 0.01976612 0.01982037 0.01960923 0.01887613 0.01884316 1000
lala 10 0.6 1 second 5 1 165 6 4.980001 1.25999712944031 -1 1 1 1 0.01969268 0.02014402 0.02018866 0.01986687 0.0201735 1000 0.01969268 0.02014402 0.02018866 0.01986687 0.0201735 1000 0.02098036 0.02068198 0.01988898 0.01898618 0.01877259 1000 0.02098036 0.02068198 0.01988898 0.01898618 0.01877259 1000
lala 11 0.6 1 first 5 1 166 6 4.380001 1.47999691963196 -1 1 1 0 0.005524689 0.005771433 0.003947031 1000 1000 1000 0.005524689 0.005771433 0.003947031 1000 1000 1000 0.006592788 0.005812242 0.005535563 0.005149981 0.004770796 1000 0.006592788 0.005812242 0.005535563 0.005149981 0.004770796 1000
lala 11 0.3 0 first 0 1 167 4 4.74 0.259998083114624 -1 0 -1 0 0.001802866 0.002243036 0.002561754 1000 1000 1000 0.001802866 0.002243036 0.002561754 1000 1000 1000 7.323336E-05 1.959663E-05 -1.544763E-05 7.103867E-05 -0.0001812964 1000 7.323336E-05 1.959663E-05 -1.544763E-05 7.103867E-05 -0.0001812964 1000
lala 6 1.2 0 first 16 1 168 6 5.16 0.339998006820679 0 0 -1 0 -0.00079404 -0.00058892 -0.0003675209 1000 1000 1000 -0.00079404 -0.00058892 -0.0003675209 1000 1000 1000 -0.001770066 -0.001632541 -0.001598418 -0.001291361 -0.001849072 1000 -0.001770066 -0.001632541 -0.001598418 -0.001291361 -0.001849072 1000
lala 10 0.6 0 second 3 1 169 5 3.65 0.859997510910034 -1 1 -1 0 -0.003242196 -0.003401476 -0.002939721 -0.002763489 -0.002665953 1000 -0.003242196 -0.003401476 -0.002939721 -0.002763489 -0.002665953 1000 -0.003812806 -0.003656493 -0.00393941 -0.003577139 -0.003616195 1000 -0.003812806 -0.003656493 -0.00393941 -0.003577139 -0.003616195 1000
lala 6 1.2 0 first 1 1 170 4 4.12 1.01999735832214 -1 1 -1 0 -0.006090065 -0.005996473 -0.006301444 1000 1000 1000 -0.006090065 -0.005996473 -0.006301444 1000 1000 1000 -0.005957217 -0.006056299 -0.00607756 -0.005582737 -0.006064476 1000 -0.005957217 -0.006056299 -0.00607756 -0.005582737 -0.006064476 1000
lala 12 0.3 1 first 0 1 171 4 5.04 0.0399982929229736 -1 0 1 1 -0.006587058 -0.006742991 -0.006218839 1000 1000 1000 -0.006587058 -0.006742991 -0.006218839 1000 1000 1000 -0.006583749 -0.006617401 -0.006800725 -0.00679937 -0.006408209 1000 -0.006583749 -0.006617401 -0.006800725 -0.00679937 -0.006408209 1000
lala 13 1.2 1 first 11 1 172 6 4.380001 1.49999690055847 1 1 1 1 -0.006965518 -0.006657691 -0.006425195 1000 1000 1000 -0.006965518 -0.006657691 -0.006425195 1000 1000 1000 -0.007449245 -0.007888551 -0.007766778 -0.007780573 -0.00782518 1000 -0.007449245 -0.007888551 -0.007766778 -0.007780573 -0.00782518 1000
lala 13 1.2 0 first 12 1 173 4 3.84 0.99999737739563 0 0 -1 1 -0.01554089 -0.01574756 -0.01615766 1000 1000 1000 -0.01554089 -0.01574756 -0.01615766 1000 1000 1000 -0.01776293 -0.01773354 -0.01710464 -0.01613669 -0.01528831 1000 -0.01776293 -0.01773354 -0.01710464 -0.01613669 -0.01528831 1000
lala 16 0.075 0 first 2 1 174 5 3.975 0.159998178482056 -1 0 -1 0 -0.01846747 -0.01835702 -0.01826738 1000 1000 1000 -0.01846747 -0.01835702 -0.01826738 1000 1000 1000 -0.01857145 -0.01853817 -0.01849908 -0.01861062 -0.01848526 1000 -0.01857145 -0.01853817 -0.01849908 -0.01861062 -0.01848526 1000
lala 14 0.6 1 first 12 1 175 4 4.44 0.779997587203979 0 0 1 0 -0.01894223 -0.01895688 -0.01839076 1000 1000 1000 -0.01894223 -0.01895688 -0.01839076 1000 1000 1000 -0.02286213 -0.02272389 -0.02249711 -0.02254911 -0.02245296 1000 -0.02286213 -0.02272389 -0.02249711 -0.02254911 -0.02245296 1000
lala 11 0.6 0 first 6 1 176 4 3.84 0.459997892379761 1 0 -1 0 -0.01783758 -0.01819185 -0.01827911 1000 1000 1000 -0.01783758 -0.01819185 -0.01827911 1000 1000 1000 -0.02064468 -0.02067053 -0.02019672 -0.02043565 -0.0204863 1000 -0.02064468 -0.02067053 -0.02019672 -0.02043565 -0.0204863 1000
lala 5 1.2 1 second 8 1 177 5 3.3 0.519997835159302 1 0 1 0 -0.02037405 -0.0208247 -0.02153987 -0.02195854 -0.02217367 1000 -0.02037405 -0.0208247 -0.02153987 -0.02195854 -0.02217367 1000 -0.02321316 -0.02355693 -0.02367191 -0.02340672 -0.02370504 1000 -0.02321316 -0.02355693 -0.02367191 -0.02340672 -0.02370504 1000
lala 12 0.6 0 second 5 1 178 6 3.780001 0.459997892379761 -1 1 -1 0 -0.02365471 -0.02433334 -0.02485681 -0.0250623 -0.02493451 1000 -0.02365471 -0.02433334 -0.02485681 -0.0250623 -0.02493451 1000 -0.01703383 -0.01596304 -0.01548387 -0.01560407 -0.01583222 1000 -0.01703383 -0.01596304 -0.01548387 -0.01560407 -0.01583222 1000
lala 11 0.3 0 second 3 1 179 5 3.95 0.339998006820679 -1 1 -1 1 -0.01641406 -0.01604294 -0.01683531 -0.01707189 -0.01719566 1000 -0.01641406 -0.01604294 -0.01683531 -0.01707189 -0.01719566 1000 -0.01772619 -0.01752703 -0.01752315 -0.01715049 -0.01782204 1000 -0.01772619 -0.01752703 -0.01752315 -0.01715049 -0.01782204 1000
lala 6 1.2 0 second 8 1 180 5 2.1 0.279998064041138 1 0 -1 1 -0.01785341 -0.01783957 -0.01813198 -0.01888333 -0.01893725 1000 -0.01785341 -0.01783957 -0.01813198 -0.01888333 -0.01893725 1000 -0.02049452 -0.02059151 -0.0206829 -0.02084485 -0.02077647 1000 -0.02049452 -0.02059151 -0.0206829 -0.02084485 -0.02077647 1000
lala 14 2.4 0 first 11 1 181 6 1.980001 0.219998121261597 1 1 -1 0 -0.02071446 -0.0206334 -0.02165278 1000 1000 1000 -0.02071446 -0.0206334 -0.02165278 1000 1000 1000 -0.02165418 -0.02116866 -0.02147967 -0.02160501 -0.02178743 1000 -0.02165418 -0.02116866 -0.02147967 -0.02160501 -0.02178743 1000
lala 10 0.6 1 first 17 1 182 6 3.780001 0.159998178482056 0 1 1 0 -0.02302061 -0.02297516 -0.0228547 1000 1000 1000 -0.02302061 -0.02297516 -0.0228547 1000 1000 1000 -0.02435108 -0.02453105 -0.02436054 -0.02406307 -0.02385618 1000 -0.02435108 -0.02453105 -0.02436054 -0.02406307 -0.02385618 1000
lala 11 0.3 0 first 17 1 183 6 3.480001 2.25999641418457 0 1 -1 1 -0.02455202 -0.02439162 -0.02403211 1000 1000 1000 -0.02455202 -0.02439162 -0.02403211 1000 1000 1000 -0.02481757 -0.02462892 -0.02464028 -0.02463548 -0.02491797 1000 -0.02481757 -0.02462892 -0.02464028 -0.02463548 -0.02491797 1000
lala 7 1.2 1 second 16 1 184 6 6.36 0.0599982738494873 0 0 1 1 -0.02020756 -0.01997779 -0.01955288 -0.02025338 -0.02060287 1000 -0.02020756 -0.01997779 -0.01955288 -0.02025338 -0.02060287 1000 -0.02105061 -0.02076437 -0.02055023 -0.02017429 -0.02022612 1000 -0.02105061 -0.02076437 -0.02055023 -0.02017429 -0.02022612 1000
lala 8 1.2 0 first 13 1 185 4 1.72 0.01999831199646 0 1 -1 1 -0.02074532 -0.02077348 -0.02025461 1000 1000 1000 -0.02074532 -0.02077348 -0.02025461 1000 1000 1000 -0.02008652 -0.01977417 -0.01941993 -0.01884022 -0.0185686 1000 -0.02008652 -0.01977417 -0.01941993 -0.01884022 -0.0185686 1000
lala 17 0.075 0 first 2 1 186 5 4.05 0.359997987747192 -1 0 -1 0 -0.01920181 -0.01915165 -0.01889305 1000 1000 1000 -0.01920181 -0.01915165 -0.01889305 1000 1000 1000 -0.01830157 -0.01820709 -0.01803781 -0.01747784 -0.01743454 1000 -0.01830157 -0.01820709 -0.01803781 -0.01747784 -0.01743454 1000
lala 18 1.2 0 second 9 1 187 5 3.05 0.779997587203979 1 1 -1 1 -0.01765878 -0.01783758 -0.0178641 -0.01765689 -0.01732134 1000 -0.01765878 -0.01783758 -0.0178641 -0.01765689 -0.01732134 1000 -0.01672836 -0.01653962 -0.01625372 -0.01586362 -0.0152185 1000 -0.01672836 -0.01653962 -0.01625372 -0.01586362 -0.0152185 1000
lala 13 0.3 1 first 15 1 188 5 3.95 0.279998064041138 0 1 1 1 -0.01597342 -0.01625055 -0.01602902 1000 1000 1000 -0.01597342 -0.01625055 -0.01602902 1000 1000 1000 -0.01565967 -0.0156512 -0.01546974 -0.01516023 -0.01493204 1000 -0.01565967 -0.0156512 -0.01546974 -0.01516023 -0.01493204 1000
lala 8 1.2 1 second 16 1 189 6 5.16 0.0999982357025146 0 0 1 1 -0.0153443 -0.01506529 -0.0149035 -0.01476498 -0.01499368 1000 -0.0153443 -0.01506529 -0.0149035 -0.01476498 -0.01499368 1000 -0.01434176 -0.01405371 -0.01371433 -0.0140002 -0.01401871 1000 -0.01434176 -0.01405371 -0.01371433 -0.0140002 -0.01401871 1000
lala 7 1.2 0 first 8 1 190 5 3.3 0.01999831199646 1 0 -1 1 -0.0133312 -0.0140228 -0.0141626 1000 1000 1000 -0.0133312 -0.0140228 -0.0141626 1000 1000 1000 -0.01273834 -0.01249714 -0.01280431 -0.01296787 -0.01308955 1000 -0.01273834 -0.01249714 -0.01280431 -0.01296787 -0.01308955 1000
lala 8 1.2 1 second 8 1 191 5 4.5 0.259998083114624 1 0 1 1 -0.01295633 -0.01281987 -0.01293915 -0.01302358 -0.01259525 1000 -0.01295633 -0.01281987 -0.01293915 -0.01302358 -0.01259525 1000 -0.01234967 -0.01263192 -0.01296399 -0.01293835 -0.01306869 1000 -0.01234967 -0.01263192 -0.01296399 -0.01293835 -0.01306869 1000
lala 9 1.2 0 first 13 1 192 4 2.92 1.77999687194824 0 1 -1 1 -0.01354054 -0.01358685 -0.01375066 1000 1000 1000 -0.01354054 -0.01358685 -0.01375066 1000 1000 1000 -0.01334954 -0.01313721 -0.01240149 -0.01154757 -0.01126412 1000 -0.01334954 -0.01313721 -0.01240149 -0.01154757 -0.01126412 1000
lala 15 1.2 0 first 11 1 193 6 3.180001 1.07999730110168 1 1 -1 1 -0.0131413 -0.01323398 -0.01316161 1000 1000 1000 -0.0131413 -0.01323398 -0.01316161 1000 1000 1000 0.007157167 0.008283992 0.008788869 0.008476266 0.007237712 1000 0.007157167 0.008283992 0.008788869 0.008476266 0.007237712 1000
lala 16 1.2 1 second 11 1 194 6 4.380001 0.419997930526733 1 1 1 0 0.01444561 0.01228935 0.01087172 0.01060061 0.01073813 1000 0.01444561 0.01228935 0.01087172 0.01060061 0.01073813 1000 0.01255002 0.008955634 0.006957613 0.009290972 0.01225418 1000 0.01255002 0.008955634 0.006957613 0.009290972 0.01225418 1000
lala 10 1.2 1 second 13 1 195 4 4.12 0.559997797012329 0 1 1 0 0.02260623 0.02391747 0.0250528 0.02639986 0.02672314 1000 0.02260623 0.02391747 0.0250528 0.02639986 0.02672314 1000 0.007353906 0.007908104 0.007382137 0.006394736 0.005735627 1000 0.007353906 0.007908104 0.007382137 0.006394736 0.005735627 1000
lala 13 0.6 0 first 10 1 196 6 3.36 0.519997835159302 1 0 -1 1 0.004324596 0.005311478 0.005767676 1000 1000 1000 0.004324596 0.005311478 0.005767676 1000 1000 1000 0.004197859 0.004697932 0.004662639 0.004529662 0.003581577 1000 0.004197859 0.004697932 0.004662639 0.004529662 0.003581577 1000
lala 5 1.2 1 second 7 1 197 4 5.32 0.519997835159302 1 1 1 1 0.004299575 0.004678616 0.004043226 0.00336373 0.002894168 1000 0.004299575 0.004678616 0.004043226 0.00336373 0.002894168 1000 0.002186825 0.002391041 0.00244218 0.002329024 0.002568353 1000 0.002186825 0.002391041 0.00244218 0.002329024 0.002568353 1000
lala 7 1.2 1 second 1 1 198 4 5.32 0.439997911453247 -1 1 1 1 0.003098389 0.002844186 0.002617088 0.001909069 0.001571313 1000 0.003098389 0.002844186 0.002617088 0.001909069 0.001571313 1000 0.001515788 0.001750324 0.002190732 0.002143821 0.001821232 1000 0.001515788 0.001750324 0.002190732 0.002143821 0.001821232 1000
lala 15 0.3 1 second 12 1 199 4 4.14 0.439997911453247 0 0 1 0 3.852908E-05 -0.0004485965 -0.000639201 -0.0007977627 -0.001162864 1000 3.852908E-05 -0.0004485965 -0.000639201 -0.0007977627 -0.001162864 1000 -0.001800233 -0.001922278 -0.002155022 -0.002520869 -0.00230395 1000 -0.001800233 -0.001922278 -0.002155022 -0.002520869 -0.00230395 1000
lala 14 0.3 1 second 10 1 200 6 3.66 0.499997854232788 1 0 1 0 -0.009337229 -0.008946854 -0.008882708 -0.009108156 -0.009282501 1000 -0.009337229 -0.008946854 -0.008882708 -0.009108156 -0.009282501 1000 -0.009971046 -0.009839222 -0.009764886 -0.009819836 -0.009327658 1000 -0.009971046 -0.009839222 -0.009764886 -0.009819836 -0.009327658 1000
lala 14 0.3 0 first 15 1 201 5 3.65 0.419997930526733 0 1 -1 1 -0.008981144 -0.009368541 -0.009500314 1000 1000 1000 -0.008981144 -0.009368541 -0.009500314 1000 1000 1000 -0.009988025 -0.009975795 -0.009303216 -0.008779181 -0.009149198 1000 -0.009988025 -0.009975795 -0.009303216 -0.008779181 -0.009149198 1000
lala 18 0.075 1 first 2 1 202 5 4.125 0.439997911453247 -1 0 1 0 -0.009637144 -0.009893762 -0.01012869 1000 1000 1000 -0.009637144 -0.009893762 -0.01012869 1000 1000 1000 -0.00996462 -0.009771678 -0.009314245 -0.009263702 -0.009257419 1000 -0.00996462 -0.009771678 -0.009314245 -0.009263702 -0.009257419 1000
lala 6 1.2 1 second 7 1 203 4 4.12 0.419997930526733 1 1 1 0 -0.008003345 -0.008079521 -0.008387326 -0.008408314 -0.008369731 1000 -0.008003345 -0.008079521 -0.008387326 -0.008408314 -0.008369731 1000 -0.005703996 -0.005511597 -0.005193319 -0.004904307 -0.004524261 1000 -0.005703996 -0.005511597 -0.005193319 -0.004904307 -0.004524261 1000
lala 15 0.15 0 second 10 1 204 6 3.51 1.13999724388123 1 0 -1 1 -0.005927174 -0.006445404 -0.007330858 -0.007644976 -0.007392735 1000 -0.005927174 -0.006445404 -0.007330858 -0.007644976 -0.007392735 1000 -0.005705172 -0.005568288 -0.005942307 -0.005866759 -0.005428541 1000 -0.005705172 -0.005568288 -0.005942307 -0.005866759 -0.005428541 1000
lala 19 0.6 0 second 9 1 205 5 3.650001 0.39999794960022 1 1 -1 0 -0.007013666 -0.006864774 -0.006852416 -0.006728122 -0.00623892 1000 -0.007013666 -0.006864774 -0.006852416 -0.006728122 -0.00623892 1000 -0.0053967 -0.005534367 -0.005939081 -0.005759874 -0.0056912 1000 -0.0053967 -0.005534367 -0.005939081 -0.005759874 -0.0056912 1000
lala 13 0.3 1 second 5 1 206 6 4.080001 0.319998025894165 -1 1 1 0 -0.007035266 -0.007049129 -0.007131563 -0.007351436 -0.007263363 1000 -0.007035266 -0.007049129 -0.007131563 -0.007351436 -0.007263363 1000 -0.006887611 -0.007047555 -0.006859892 -0.006620515 -0.006767767 1000 -0.006887611 -0.007047555 -0.006859892 -0.006620515 -0.006767767 1000
lala 16 0.3 1 second 12 1 207 4 3.84 1.01999735832214 0 0 1 1 -0.008645214 -0.008683594 -0.009233782 -0.009433129 -0.009595575 1000 -0.008645214 -0.008683594 -0.009233782 -0.009433129 -0.009595575 1000 -0.009815573 -0.009793429 -0.01006875 -0.01061753 -0.01072489 1000 -0.009815573 -0.009793429 -0.01006875 -0.01061753 -0.01072489 1000
lala 19 0.0375 1 first 2 1 208 5 4.0875 0.859997510910034 -1 0 1 1 -0.01144617 -0.0115242 -0.01157332 1000 1000 1000 -0.01144617 -0.0115242 -0.01157332 1000 1000 1000 -0.01076893 -0.01101298 -0.01116889 -0.01103963 -0.01097869 1000 -0.01076893 -0.01101298 -0.01116889 -0.01103963 -0.01097869 1000
lala 12 0.3 0 first 3 1 209 5 4.25 0.479997873306274 -1 1 -1 0 -0.011406 -0.01174032 -0.01249511 1000 1000 1000 -0.011406 -0.01174032 -0.01249511 1000 1000 1000 -0.01243493 -0.01233816 -0.01206408 -0.01221067 -0.01277229 1000 -0.01243493 -0.01233816 -0.01206408 -0.01221067 -0.01277229 1000
lala 13 0.15 0 second 0 1 210 4 4.89 0.499997854232788 -1 0 -1 0 -0.01247733 -0.01262913 -0.01289458 -0.01278323 -0.01323971 1000 -0.01247733 -0.01262913 -0.01289458 -0.01278323 -0.01323971 1000 -0.01764731 -0.01872238 -0.01877365 -0.01917122 -0.01907033 1000 -0.01764731 -0.01872238 -0.01877365 -0.01917122 -0.01907033 1000
lala 8 1.2 0 first 1 1 211 4 4.12 0.439997911453247 -1 1 -1 0 -0.01533859 -0.0152148 -0.01479568 1000 1000 1000 -0.01533859 -0.0152148 -0.01479568 1000 1000 1000 -0.0170881 -0.01880477 -0.0195345 -0.01958412 -0.01895132 1000 -0.0170881 -0.01880477 -0.0195345 -0.01958412 -0.01895132 1000
lala 11 0.6 1 second 13 1 212 4 3.52 0.39999794960022 0 1 1 0 -0.01938314 -0.01947221 -0.01946207 -0.01952604 -0.01939378 1000 -0.01938314 -0.01947221 -0.01946207 -0.01952604 -0.01939378 1000 -0.02099673 -0.021287 -0.02129004 -0.0218306 -0.02241815 1000 -0.02099673 -0.021287 -0.02129004 -0.0218306 -0.02241815 1000
lala 20 0.0375 1 second 2 1 213 5 4.05 4.27999448776245 -1 0 1 1 -0.02185588 -0.02201649 -0.02186328 -0.02204081 -0.02261774 1000 -0.02185588 -0.02201649 -0.02186328 -0.02204081 -0.02261774 1000 -0.02405952 -0.02460486 -0.02480558 -0.02452267 -0.02413712 1000 -0.02405952 -0.02460486 -0.02480558 -0.02452267 -0.02413712 1000
lala 12 0.6 1 second 6 1 214 4 4.44 0.799997568130493 1 0 1 0 -0.02089465 -0.02141589 -0.02126846 -0.02085519 -0.02042266 1000 -0.02089465 -0.02141589 -0.02126846 -0.02085519 -0.02042266 1000 -0.02040242 -0.02032692 -0.02063549 -0.02064819 -0.02070963 1000 -0.02040242 -0.02032692 -0.02063549 -0.02064819 -0.02070963 1000
lala 9 1.2 1 second 4 1 215 6 3.96 1.47999691963196 -1 0 1 0 -0.01920456 -0.01939295 -0.01926396 -0.01930505 -0.01955096 1000 -0.01920456 -0.01939295 -0.01926396 -0.01930505 -0.01955096 1000 -0.02192037 -0.02214734 -0.0218604 -0.02131587 -0.02064879 1000 -0.02192037 -0.02214734 -0.0218604 -0.02131587 -0.02064879 1000
lala 13 0.3 0 second 3 1 216 5 4.55 0.479997873306274 -1 1 -1 1 -0.02150291 -0.02126948 -0.02147486 -0.02192025 -0.02173543 1000 -0.02150291 -0.02126948 -0.02147486 -0.02192025 -0.02173543 1000 -0.02085434 -0.02024317 -0.02018911 -0.02075934 -0.02073153 1000 -0.02085434 -0.02024317 -0.02018911 -0.02075934 -0.02073153 1000
lala 5 1.2 1 first 14 1 217 5 3.3 1.51999688148499 0 0 1 0 -0.01742346 -0.01780924 -0.01836447 1000 1000 1000 -0.01742346 -0.01780924 -0.01836447 1000 1000 1000 -0.02076393 -0.02062073 -0.02062592 -0.02056098 -0.02069424 1000 -0.02076393 -0.02062073 -0.02062592 -0.02056098 -0.02069424 1000
lala 9 1.2 1 first 1 1 218 4 5.32 3.01999568939209 -1 1 1 0 -0.02327078 -0.0227802 -0.02235007 1000 1000 1000 -0.02327078 -0.0227802 -0.02235007 1000 1000 1000 -0.02475725 -0.0241634 -0.02417725 -0.02451926 -0.02455516 1000 -0.02475725 -0.0241634 -0.02417725 -0.02451926 -0.02455516 1000
lala 6 1.2 0 first 14 1 219 5 2.1 0.179998159408569 0 0 -1 1 -0.01955457 -0.01442068 -0.01062297 1000 1000 1000 -0.01955457 -0.01442068 -0.01062297 1000 1000 1000 0.01326152 0.01265947 0.01197014 0.01173174 0.01128434 1000 0.01326152 0.01265947 0.01197014 0.01173174 0.01128434 1000
lala 14 0.075 1 first 0 1 220 4 4.965 0.199998140335083 -1 0 1 0 0.006388513 0.005836699 0.005640519 1000 1000 1000 0.006388513 0.005836699 0.005640519 1000 1000 1000 0.009096684 0.008751706 0.008622732 0.008838808 0.008877623 1000 0.009096684 0.008751706 0.008622732 0.008838808 0.008877623 1000
lala 17 0.6 1 second 11 1 221 6 3.780001 0.379997968673706 1 1 1 0 0.007109195 0.007378173 0.007021888 0.006967499 0.007444471 1000 0.007109195 0.007378173 0.007021888 0.006967499 0.007444471 1000 0.007924106 0.008439575 0.008096569 0.007647849 0.007701617 1000 0.007924106 0.008439575 0.008096569 0.007647849 0.007701617 1000
lala 15 0.15 1 second 15 1 222 5 3.8 0.99999737739563 0 1 1 0 -0.008493733 -0.009570833 -0.01120869 -0.008356709 -0.005114529 1000 -0.008493733 -0.009570833 -0.01120869 -0.008356709 -0.005114529 1000 0.005439617 0.006674263 0.004997848 0.00396094 0.002880075 1000 0.005439617 0.006674263 0.004997848 0.00396094 0.002880075 1000
lala 10 0.6 1 second 1 1 223 4 4.72 1.77999687194824 -1 1 1 0 0.01196431 0.01252291 0.01379765 0.01789183 0.01824974 1000 0.01196431 0.01252291 0.01379765 0.01789183 0.01824974 1000 -0.003332653 -0.007219987 -0.008734134 -0.01155089 -0.01063482 1000 -0.003332653 -0.007219987 -0.008734134 -0.01155089 -0.01063482 1000
lala 13 0.3 1 first 6 1 224 4 4.139999 0.379997968673706 1 0 1 1 0.006505362 0.004651519 0.002754329 1000 1000 1000 0.006505362 0.004651519 0.002754329 1000 1000 1000 0.01191908 0.01252353 0.01342776 0.0143961 0.01504165 1000 0.01191908 0.01252353 0.01342776 0.0143961 0.01504165 1000
lala 9 1.2 0 second 8 1 225 5 3.3 0.379997968673706 1 0 -1 0 0.01138999 0.0104537 0.01011646 0.009870571 0.01026907 1000 0.01138999 0.0104537 0.01011646 0.009870571 0.01026907 1000 0.006810349 0.006721934 0.006512112 0.006327307 0.005969874 1000 0.006810349 0.006721934 0.006512112 0.006327307 0.005969874 1000
lala 12 0.15 1 second 17 1 226 6 3.630001 0.079998254776001 0 1 1 0 -0.0010806 -0.0002589973 0.000202991 0.0008005835 9.066494E-05 1000 -0.0010806 -0.0002589973 0.000202991 0.0008005835 9.066494E-05 1000 -0.000986728 -0.0007723238 -0.0007169085 -0.0004110755 -0.0004199801 1000 -0.000986728 -0.0007723238 -0.0007169085 -0.0004110755 -0.0004199801 1000
lala 14 0.15 0 second 5 1 227 6 3.930001 0.559997797012329 -1 1 -1 1 0.0007067269 0.0006451752 0.0006321561 0.0002510972 -0.0002850378 1000 0.0007067269 0.0006451752 0.0006321561 0.0002510972 -0.0002850378 1000 -0.003314994 -0.003517641 -0.003152959 -0.003223044 -0.003191962 1000 -0.003314994 -0.003517641 -0.003152959 -0.003223044 -0.003191962 1000
lala 7 1.2 0 first 14 1 228 5 3.3 2.19999647140503 0 0 -1 0 -0.002403713 -0.002231302 -0.003002384 1000 1000 1000 -0.002403713 -0.002231302 -0.003002384 1000 1000 1000 -0.005303922 -0.005389183 -0.005036828 -0.005234723 -0.005633729 1000 -0.005303922 -0.005389183 -0.005036828 -0.005234723 -0.005633729 1000
lala 16 0.075 1 second 15 1 229 5 3.725 1.73999691009521 0 1 1 0 -0.002060831 -0.00289545 -0.00365886 -0.003853131 -0.004457776 1000 -0.002060831 -0.00289545 -0.00365886 -0.003853131 -0.004457776 1000 -0.004870037 -0.005007267 -0.004976613 -0.004949035 -0.00495357 1000 -0.004870037 -0.005007267 -0.004976613 -0.004949035 -0.00495357 1000
lala 9 1.2 1 first 16 1 230 6 3.96 0.519997835159302 0 0 1 1 -0.009331793 -0.008699963 -0.008399704 1000 1000 1000 -0.009331793 -0.008699963 -0.008399704 1000 1000 1000 -0.007628458 -0.008273488 -0.008210461 -0.008187986 -0.008266423 1000 -0.007628458 -0.008273488 -0.008210461 -0.008187986 -0.008266423 1000
lala 10 1.2 0 second 4 1 231 6 2.76 0.679997682571411 -1 0 -1 0 -0.00866601 -0.007768972 -0.007589126 -0.007762461 -0.00832457 1000 -0.00866601 -0.007768972 -0.007589126 -0.007762461 -0.00832457 1000 -0.0110646 -0.01068758 -0.01036579 -0.010295 -0.01026327 1000 -0.0110646 -0.01068758 -0.01036579 -0.010295 -0.01026327 1000
lala 12 0.6 1 first 13 1 232 4 2.92 0.739997625350952 0 1 1 1 -0.01042977 -0.01025623 -0.01027713 1000 1000 1000 -0.01042977 -0.01025623 -0.01027713 1000 1000 1000 -0.01182351 -0.01205044 -0.0120447 -0.01210891 -0.01201567 1000 -0.01182351 -0.01205044 -0.0120447 -0.01210891 -0.01201567 1000
lala 10 2.4 0 second 16 1 233 6 1.98 1.15999722480774 0 0 -1 1 -0.01112702 -0.01103241 -0.01086577 -0.01108912 -0.01137153 1000 -0.01112702 -0.01103241 -0.01086577 -0.01108912 -0.01137153 1000 -0.01305906 -0.01303745 -0.01268254 -0.01209791 -0.01216643 1000 -0.01305906 -0.01303745 -0.01268254 -0.01209791 -0.01216643 1000
lala 11 1.2 0 first 16 1 234 6 3.18 1.17999720573425 0 0 -1 1 -0.01401729 -0.0151483 -0.01579548 1000 1000 1000 -0.01401729 -0.0151483 -0.01579548 1000 1000 1000 -0.01596938 -0.01582735 -0.01597747 -0.01603976 -0.01605323 1000 -0.01596938 -0.01582735 -0.01597747 -0.01603976 -0.01605323 1000
lala 12 1.2 1 first 16 1 235 6 4.38 2.11999654769897 0 0 1 0 -0.01671855 -0.01720766 -0.01720279 1000 1000 1000 -0.01671855 -0.01720766 -0.01720279 1000 1000 1000 -0.01877132 -0.0188999 -0.01911341 -0.01900706 -0.01944615 1000 -0.01877132 -0.0188999 -0.01911341 -0.01900706 -0.01944615 1000
lala 7 1.2 0 first 7 1 236 4 2.92 0.439997911453247 1 1 -1 1 -0.0207199 -0.02059544 -0.02062603 1000 1000 1000 -0.0207199 -0.02059544 -0.02062603 1000 1000 1000 -0.02135164 -0.02131567 -0.02227152 -0.02237835 -0.02265473 1000 -0.02135164 -0.02131567 -0.02227152 -0.02237835 -0.02265473 1000
lala 16 0.075 1 second 10 1 237 6 3.585 0.759997606277466 1 0 1 0 0.01706031 0.01260935 0.007030331 0.007652741 0.0107009 1000 0.01706031 0.01260935 0.007030331 0.007652741 0.0107009 1000 -0.006528172 -0.008207023 -0.009472359 -0.008122213 -0.009720586 1000 -0.006528172 -0.008207023 -0.009472359 -0.008122213 -0.009720586 1000
lala 14 0.3 1 second 6 1 238 4 3.839999 0.319998025894165 1 0 1 0 0.01832675 0.01556932 0.01785496 0.02240345 0.02135272 1000 0.01832675 0.01556932 0.01785496 0.02240345 0.02135272 1000 0.01950565 0.01830582 0.01690341 0.01635096 0.01636257 1000 0.01950565 0.01830582 0.01690341 0.01635096 0.01636257 1000
lala 21 0.0375 0 first 2 1 239 5 4.0125 0.279998064041138 -1 0 -1 1 0.01934592 0.01913808 0.01880574 1000 1000 1000 0.01934592 0.01913808 0.01880574 1000 1000 1000 0.01500006 0.01455571 0.0142665 0.01384438 0.01319191 1000 0.01500006 0.01455571 0.0142665 0.01384438 0.01319191 1000
lala 17 0.075 0 first 15 1 240 5 3.65 2.17999649047852 0 1 -1 1 0.01252915 0.01245093 0.01219423 1000 1000 1000 0.01252915 0.01245093 0.01219423 1000 1000 1000 0.008631855 0.008529798 0.008805702 0.009020733 0.008882339 1000 0.008631855 0.008529798 0.008805702 0.009020733 0.008882339 1000
lala 15 0.0375 1 second 0 1 241 4 4.9275 0.199998140335083 -1 0 1 0 0.002743252 0.002807109 0.002254942 0.002028455 0.00156508 1000 0.002743252 0.002807109 0.002254942 0.002028455 0.00156508 1000 0.0002723334 0.0001449248 4.77397E-05 -0.0002189071 -0.0002195208 1000 0.0002723334 0.0001449248 4.77397E-05 -0.0002189071 -0.0002195208 1000
lala 15 0.075 1 second 5 1 242 6 4.005001 0.439997911453247 -1 1 1 0 -0.0009843432 -0.001400916 -0.001437601 -0.001404814 -0.001775467 1000 -0.0009843432 -0.001400916 -0.001437601 -0.001404814 -0.001775467 1000 -0.003568454 -0.00390855 -0.004425843 -0.00479876 -0.004899777 1000 -0.003568454 -0.00390855 -0.004425843 -0.00479876 -0.004899777 1000
lala 15 0.3 0 first 6 1 243 4 3.539999 1.79999685287476 1 0 -1 1 -0.007699925 -0.007341275 -0.007506027 1000 1000 1000 -0.007699925 -0.007341275 -0.007506027 1000 1000 1000 -0.01090583 -0.01328458 -0.01570735 -0.01850945 -0.01828271 1000 -0.01090583 -0.01328458 -0.01570735 -0.01850945 -0.01828271 1000
lala 10 0.6 1 first 8 1 244 5 3.9 0.799997568130493 1 0 1 1 -0.01433438 -0.01387857 -0.01361585 1000 1000 1000 -0.01433438 -0.01387857 -0.01361585 1000 1000 1000 -0.01826586 -0.01847477 -0.01851077 -0.01847893 -0.01806524 1000 -0.01826586 -0.01847477 -0.01851077 -0.01847893 -0.01806524 1000
lala 16 0.15 0 second 6 1 245 4 3.69 0.899997472763062 1 0 -1 0 -0.02028796 -0.02035382 -0.02086771 -0.02094473 -0.02117435 1000 -0.02028796 -0.02035382 -0.02086771 -0.02094473 -0.02117435 1000 -0.02197626 -0.02166934 -0.02180519 -0.02214086 -0.02208717 1000 -0.02197626 -0.02166934 -0.02180519 -0.02214086 -0.02208717 1000
lala 13 0.075 1 first 17 1 246 6 3.555001 2.85999584197998 0 1 1 1 -0.02248251 -0.02220112 -0.02229125 1000 1000 1000 -0.02248251 -0.02220112 -0.02229125 1000 1000 1000 -0.02945909 -0.02828766 -0.02592949 -0.01748493 -0.0116424 1000 -0.02945909 -0.02828766 -0.02592949 -0.01748493 -0.0116424 1000
lala 8 1.2 1 first 14 1 247 5 4.5 0.439997911453247 0 0 1 1 0.01616813 0.01860091 0.02103728 1000 1000 1000 0.01616813 0.01860091 0.02103728 1000 1000 1000 0.02120052 0.02124512 0.02048381 0.01932706 0.01925112 1000 0.02120052 0.02124512 0.02048381 0.01932706 0.01925112 1000
lala 17 0.3 1 second 12 1 248 4 3.54 0.879997491836548 0 0 1 0 0.01073306 0.01044093 0.01146499 0.01209143 0.01236097 1000 0.01073306 0.01044093 0.01146499 0.01209143 0.01236097 1000 0.01153052 0.01083071 0.01075537 0.0101129 0.009555926 1000 0.01153052 0.01083071 0.01075537 0.0101129 0.009555926 1000
lala 18 0.6 0 first 12 1 249 4 2.94 0.179998159408569 0 0 -1 0 0.004184472 0.003732578 0.003425283 1000 1000 1000 0.004184472 0.003732578 0.003425283 1000 1000 1000 0.002307288 0.002410442 0.001601151 0.001133593 0.001218945 1000 0.002307288 0.002410442 0.001601151 0.001133593 0.001218945 1000
lala 11 0.6 0 first 1 1 250 4 4.12 0.419997930526733 -1 1 -1 1 -0.0156387 -0.01594145 -0.01551235 -0.0150466 -0.0147894 -0.01475144 -0.0156387 -0.01594145 -0.01551235 -0.0150466 -0.0147894 -0.01475144 -0.01319611 -0.01305281 -0.01316264 -0.01320592 -0.01326453 1000 -0.01319611 -0.01305281 -0.01316264 -0.01320592 -0.01326453 1000
lala 20 0.6 0 second 9 1 251 5 4.25 0.479997873306274 1 1 -1 1 -0.01349959 -0.01357744 -0.01348798 -0.01392906 -0.01413081 1000 -0.01349959 -0.01357744 -0.01348798 -0.01392906 -0.01413081 1000 -0.01358364 -0.01353225 -0.01376193 -0.01379415 -0.01362948 1000 -0.01358364 -0.01353225 -0.01376193 -0.01379415 -0.01362948 1000
lala 11 0.6 0 second 4 1 252 6 3.36 0.299998044967651 -1 0 -1 1 -0.01508773 -0.01479451 -0.01464742 -0.01453999 -0.01455421 1000 -0.01508773 -0.01479451 -0.01464742 -0.01453999 -0.01455421 1000 -0.01478503 -0.01479448 -0.01464278 -0.01462875 -0.01458001 1000 -0.01478503 -0.01479448 -0.01464278 -0.01462875 -0.01458001 1000
lala 18 0.0375 1 first 15 1 253 5 3.6875 0.119998216629028 0 1 1 0 -0.01563291 -0.01537381 -0.01544365 1000 1000 1000 -0.01563291 -0.01537381 -0.01544365 1000 1000 1000 -0.015752 -0.01593337 -0.01590832 -0.01597061 -0.01596501 1000 -0.015752 -0.01593337 -0.01590832 -0.01597061 -0.01596501 1000
lala 16 0.0375 0 second 5 1 254 6 3.967501 0.339998006820679 -1 1 -1 1 -0.01609465 -0.0165976 -0.01647209 -0.01614449 -0.01618054 1000 -0.01609465 -0.0165976 -0.01647209 -0.01614449 -0.01618054 1000 -0.01701375 -0.01695262 -0.01693264 -0.01707919 -0.01716308 1000 -0.01701375 -0.01695262 -0.01693264 -0.01707919 -0.01716308 1000
lala 13 0.6 0 first 13 1 255 4 2.32 0.39999794960022 0 1 -1 0 -0.01907761 -0.01942357 -0.01927909 1000 1000 1000 -0.01907761 -0.01942357 -0.01927909 1000 1000 1000 -0.02022717 -0.01990071 -0.01963688 -0.01934835 -0.01911518 1000 -0.02022717 -0.01990071 -0.01963688 -0.01934835 -0.01911518 1000
lala 13 0.6 1 first 16 1 256 6 3.78 0.01999831199646 0 0 1 0 -0.02087251 -0.02109919 -0.02083367 1000 1000 1000 -0.02087251 -0.02109919 -0.02083367 1000 1000 1000 -0.02228648 -0.02216461 -0.02226339 -0.02280956 -0.02278753 1000 -0.02228648 -0.02216461 -0.02226339 -0.02280956 -0.02278753 1000
lala 17 0.0375 1 second 10 1 257 6 3.5475 0.61999773979187 1 0 1 1 -0.01948189 -0.02017165 -0.02159778 -0.0227181 -0.02373686 1000 -0.01948189 -0.02017165 -0.02159778 -0.0227181 -0.02373686 1000 -0.02316273 -0.02265115 -0.02219356 -0.02210812 -0.02227943 1000 -0.02316273 -0.02265115 -0.02219356 -0.02210812 -0.02227943 1000
lala 16 0.0375 1 first 0 1 258 4 4.89 0.419997930526733 -1 0 1 0 -0.02509343 -0.02557052 -0.02570754 1000 1000 1000 -0.02509343 -0.02557052 -0.02570754 1000 1000 1000 0.006867457 0.006330475 0.005929811 0.005719343 0.005914143 1000 0.006867457 0.006330475 0.005929811 0.005719343 0.005914143 1000
lala 18 0.0375 1 second 10 1 259 6 3.51 1.3999969959259 1 0 1 0 0.004557722 0.004541514 0.004321595 0.003675808 0.00345053 1000 0.004557722 0.004541514 0.004321595 0.003675808 0.00345053 1000 0.0002826533 -7.205477E-05 -0.001160101 -0.001518236 -0.001860822 1000 0.0002826533 -7.205477E-05 -0.001160101 -0.001518236 -0.001860822 1000
lala 11 0.3 0 second 8 1 260 5 3.6 1.45999693870544 1 0 -1 1 -0.003566952 -0.002770605 -0.002727856 -0.002961257 -0.002946696 1000 -0.003566952 -0.002770605 -0.002727856 -0.002961257 -0.002946696 1000 -5.720913E-05 0.0006472797 0.0009919893 0.000937956 0.0001096566 1000 -5.720913E-05 0.0006472797 0.0009919893 0.000937956 0.0001096566 1000
lala 14 0.075 0 second 17 1 261 6 3.480001 2.37999629974365 0 1 -1 1 -0.003322607 -0.00309647 -0.003213748 -0.003359263 -0.00317255 1000 -0.003322607 -0.00309647 -0.003213748 -0.003359263 -0.00317255 1000 -0.004471717 -0.005076419 -0.006556484 -0.007359603 -0.007617863 1000 -0.004471717 -0.005076419 -0.006556484 -0.007359603 -0.007617863 1000
lala 15 0.0375 1 second 17 1 262 6 3.517501 0.499997854232788 0 1 1 1 -0.009006706 -0.009369235 -0.009793936 -0.009837352 -0.01001131 1000 -0.009006706 -0.009369235 -0.009793936 -0.009837352 -0.01001131 1000 -0.01100876 -0.01078062 -0.01043389 -0.01040364 -0.01046676 1000 -0.01100876 -0.01078062 -0.01043389 -0.01040364 -0.01046676 1000
lala 14 0.6 0 second 16 1 263 6 3.18 0.419997930526733 0 0 -1 0 -0.01018162 -0.01031984 -0.01047644 -0.01069619 -0.01065465 1000 -0.01018162 -0.01031984 -0.01047644 -0.01069619 -0.01065465 1000 -0.01476844 -0.01504881 -0.01578812 -0.01688322 -0.01755312 1000 -0.01476844 -0.01504881 -0.01578812 -0.01688322 -0.01755312 1000
lala 16 0.01875 1 first 17 1 264 6 3.498751 0.0999982357025146 0 1 1 0 0.001807428 0.007499044 0.01005597 1000 1000 1000 0.001807428 0.007499044 0.01005597 1000 1000 1000 -0.006209006 -0.0007896842 0.001548607 -0.002113687 -0.0007811736 1000 -0.006209006 -0.0007896842 0.001548607 -0.002113687 -0.0007811736 1000
lala 17 0.15 1 second 6 1 265 4 3.84 0.559997797012329 1 0 1 1 0.002974918 0.0009903683 -0.0005323725 -0.001462497 -0.00214385 1000 0.002974918 0.0009903683 -0.0005323725 -0.001462497 -0.00214385 1000 -0.001035574 -0.001298156 -0.001293315 -0.001525793 -0.00135344 1000 -0.001035574 -0.001298156 -0.001293315 -0.001525793 -0.00135344 1000
lala 14 0.6 1 first 3 1 266 5 5.15 0.39999794960022 -1 1 1 0 -0.003037302 -0.002512192 -0.002468846 1000 1000 1000 -0.003037302 -0.002512192 -0.002468846 1000 1000 1000 -0.005420132 -0.005444275 -0.005127034 -0.005265926 -0.005201385 1000 -0.005420132 -0.005444275 -0.005127034 -0.005265926 -0.005201385 1000
lala 21 0.6 1 second 9 1 267 5 4.85 0.339998006820679 1 1 1 1 -0.00452689 -0.00493634 -0.004613489 -0.004665768 -0.004821494 1000 -0.00452689 -0.00493634 -0.004613489 -0.004665768 -0.004821494 1000 -0.00585612 -0.005595069 -0.005547514 -0.00557373 -0.006258484 1000 -0.00585612 -0.005595069 -0.005547514 -0.00557373 -0.006258484 1000
lala 12 0.3 0 second 1 1 268 4 4.42 0.499997854232788 -1 1 -1 0 -0.008113323 -0.008511794 -0.008791156 -0.008585654 -0.008913339 1000 -0.008113323 -0.008511794 -0.008791156 -0.008585654 -0.008913339 1000 -0.01049047 -0.01049385 -0.01028417 -0.01044447 -0.01030729 1000 -0.01049047 -0.01049385 -0.01028417 -0.01044447 -0.01030729 1000
lala 19 0.0375 0 second 10 1 269 6 3.4725 0.819997549057007 1 0 -1 0 -0.01179749 -0.01187091 -0.01201382 -0.01211351 -0.01206423 1000 -0.01179749 -0.01187091 -0.01201382 -0.01211351 -0.01206423 1000 -0.01205045 -0.01228898 -0.01221981 -0.01167485 -0.01179347 1000 -0.01205045 -0.01228898 -0.01221981 -0.01167485 -0.01179347 1000
lala 9 1.2 1 first 14 1 270 5 3.3 3.41999530792236 0 0 1 1 -0.01167479 -0.01165952 -0.01167303 1000 1000 1000 -0.01167479 -0.01165952 -0.01167303 1000 1000 1000 -0.01116496 -0.01123991 -0.0114001 -0.01155373 -0.01120885 1000 -0.01116496 -0.01123991 -0.0114001 -0.01155373 -0.01120885 1000
lala 20 0.01875 1 first 10 1 271 6 3.49125 1.51999688148499 1 0 1 0 -0.01047689 -0.0106204 -0.01107179 1000 1000 1000 -0.01047689 -0.0106204 -0.01107179 1000 1000 1000 -0.01255831 -0.01216248 -0.01169077 -0.01120652 -0.01118161 1000 -0.01255831 -0.01216248 -0.01169077 -0.01120652 -0.01118161 1000
lala 15 0.3 1 first 16 1 272 6 3.48 1.29999709129334 0 0 1 0 -0.01451 -0.01480006 -0.0143071 1000 1000 1000 -0.01451 -0.01480006 -0.0143071 1000 1000 1000 -0.01361534 -0.01403343 -0.01317743 -0.01115638 -0.01026024 1000 -0.01361534 -0.01403343 -0.01317743 -0.01115638 -0.01026024 1000
lala 13 0.3 1 second 1 1 273 4 4.72 0.639997720718384 -1 1 1 0 -0.01361522 -0.01377231 -0.01361267 -0.01392204 -0.01412138 1000 -0.01361522 -0.01377231 -0.01361267 -0.01392204 -0.01412138 1000 -0.01477036 -0.0149619 -0.01502339 -0.01518082 -0.01531565 1000 -0.01477036 -0.0149619 -0.01502339 -0.01518082 -0.01531565 1000
lala 19 0.01875 1 second 15 1 274 5 3.66875 0.299998044967651 0 1 1 1 -0.014386 -0.01418136 -0.01417619 -0.0142177 -0.01415941 1000 -0.014386 -0.01418136 -0.01417619 -0.0142177 -0.01415941 1000 -0.01499536 -0.01464591 -0.01381433 -0.0137954 -0.01400323 1000 -0.01499536 -0.01464591 -0.01381433 -0.0137954 -0.01400323 1000
lala 12 0.6 0 first 4 1 275 6 3.96 0.859997510910034 -1 0 -1 1 -0.01344773 -0.01319387 -0.01312635 1000 1000 1000 -0.01344773 -0.01319387 -0.01312635 1000 1000 1000 -0.01971652 -0.01946127 -0.01731179 -0.01669918 -0.01681934 1000 -0.01971652 -0.01946127 -0.01731179 -0.01669918 -0.01681934 1000
lala 16 0.15 0 second 16 1 276 6 3.33 0.499997854232788 0 0 -1 1 -0.01735966 -0.01734463 -0.01665066 -0.01664459 -0.01683213 1000 -0.01735966 -0.01734463 -0.01665066 -0.01664459 -0.01683213 1000 -0.01701462 -0.01691175 -0.01657178 -0.01623587 -0.01619914 1000 -0.01701462 -0.01691175 -0.01657178 -0.01623587 -0.01619914 1000
lala 18 0.075 0 first 6 1 277 4 3.765 0.699997663497925 1 0 -1 1 -0.01563807 -0.01496112 -0.01541061 1000 1000 1000 -0.01563807 -0.01496112 -0.01541061 1000 1000 1000 -0.01678758 -0.01657195 -0.01654591 -0.01711668 -0.0171781 1000 -0.01678758 -0.01657195 -0.01654591 -0.01711668 -0.0171781 1000
lala 13 0.6 1 second 4 1 278 6 4.559999 0.379997968673706 -1 0 1 0 -0.01548706 -0.01619701 -0.01604475 -0.01558666 -0.01549431 1000 -0.01548706 -0.01619701 -0.01604475 -0.01558666 -0.01549431 1000 -0.01793958 -0.01744537 -0.01432509 -0.01139463 -0.008584945 1000 -0.01793958 -0.01744537 -0.01432509 -0.01139463 -0.008584945 1000
lala 17 0.01875 1 second 5 1 279 6 3.986251 0.379997968673706 -1 1 1 1 0.05145555 0.06315788 0.07019435 0.07737868 0.07627743 1000 0.05145555 0.06315788 0.07019435 0.07737868 0.07627743 1000 0.008097505 0.00516577 0.00442409 0.004361683 0.001736253 1000 0.008097505 0.00516577 0.00442409 0.004361683 0.001736253 1000
lala 8 1.2 1 first 7 1 280 4 4.12 0.939997434616089 1 1 1 0 -0.01799073 -0.01566858 -0.01374843 1000 1000 1000 -0.01799073 -0.01566858 -0.01374843 1000 1000 1000 -0.006330569 -0.00611627 -0.007588077 -0.009283426 -0.01152812 1000 -0.006330569 -0.00611627 -0.007588077 -0.009283426 -0.01152812 1000
lala 18 0.6 0 first 11 1 281 6 3.180001 1.63999700546265 1 1 -1 0 -0.01988382 -0.0195943 -0.01955116 1000 1000 1000 -0.01988382 -0.0195943 -0.01955116 1000 1000 1000 -0.0209829 -0.0213655 -0.02158544 -0.02158439 -0.0214142 1000 -0.0209829 -0.0213655 -0.02158544 -0.02158439 -0.0214142 1000
lala 14 0.3 1 second 4 1 282 6 4.259999 0.23999810218811 -1 0 1 1 -0.02301844 -0.02282519 -0.02259862 -0.02312693 -0.02324533 1000 -0.02301844 -0.02282519 -0.02259862 -0.02312693 -0.02324533 1000 -0.02286313 -0.02256313 -0.02249163 -0.02257663 -0.02297356 1000 -0.02286313 -0.02256313 -0.02249163 -0.02257663 -0.02297356 1000
lala 17 0.075 0 first 16 1 283 6 3.405 0.479997873306274 0 0 -1 0 -0.0236285 -0.02366599 -0.02377064 1000 1000 1000 -0.0236285 -0.02366599 -0.02377064 1000 1000 1000 -0.02651835 -0.02649453 -0.02593232 -0.02506677 -0.02225086 1000 -0.02651835 -0.02649453 -0.02593232 -0.02506677 -0.02225086 1000
lala 14 0.3 1 second 13 1 284 4 2.62 0.139998197555542 0 1 1 0 -0.0110809 -0.01088227 -0.0111127 -0.01132491 -0.01141989 1000 -0.0110809 -0.01088227 -0.0111127 -0.01132491 -0.01141989 1000 -0.01180841 -0.01211507 -0.01231769 -0.01155952 -0.0116854 1000 -0.01180841 -0.01211507 -0.01231769 -0.01155952 -0.0116854 1000
lala 19 0.3 1 first 11 1 285 6 3.480001 0.659997701644897 1 1 1 0 -0.0112816 -0.01136994 -0.01120686 1000 1000 1000 -0.0112816 -0.01136994 -0.01120686 1000 1000 1000 -0.01329794 -0.01334911 -0.01332667 -0.01266279 -0.01225206 1000 -0.01329794 -0.01334911 -0.01332667 -0.01266279 -0.01225206 1000
lala 22 0.01875 0 second 2 1 286 5 4.03125 2.99999570846558 -1 0 -1 1 -0.01153098 -0.01174807 -0.0116824 -0.01215841 -0.01261202 1000 -0.01153098 -0.01174807 -0.0116824 -0.01215841 -0.01261202 1000 -0.009145943 -0.009446347 -0.009532276 -0.009117701 -0.008369613 1000 -0.009145943 -0.009446347 -0.009532276 -0.009117701 -0.008369613 1000
lala 9 1.2 0 first 7 1 287 4 2.92 0.119998216629028 1 1 -1 0 -0.00513062 -0.00509127 -0.00478505 1000 1000 1000 -0.00513062 -0.00509127 -0.00478505 1000 1000 1000 -0.005334642 -0.005627503 -0.005413617 -0.005347006 -0.005314365 1000 -0.005334642 -0.005627503 -0.005413617 -0.005347006 -0.005314365 1000
lala 19 0.0375 0 first 6 1 288 4 3.8025 1.23999714851379 1 0 -1 1 -0.006441283 -0.006580271 -0.007638765 1000 1000 1000 -0.006441283 -0.006580271 -0.007638765 1000 1000 1000 -0.005569039 -0.005099115 -0.005310356 -0.005488568 -0.005730892 1000 -0.005569039 -0.005099115 -0.005310356 -0.005488568 -0.005730892 1000
lala 17 0.0375 1 second 0 1 289 4 4.8525 2.47999620437622 -1 0 1 0 -0.008185588 -0.008376701 -0.007832285 -0.006838775 -0.005844452 1000 -0.008185588 -0.008376701 -0.007832285 -0.006838775 -0.005844452 1000 -0.00701036 -0.006423237 -0.005053316 -0.006427504 -0.001369235 1000 -0.00701036 -0.006423237 -0.005053316 -0.006427504 -0.001369235 1000
lala 18 0.075 1 first 0 1 290 4 4.777501 0.39999794960022 -1 0 1 0 -0.00622396 -0.0009465261 -0.001640262 1000 1000 1000 -0.00622396 -0.0009465261 -0.001640262 1000 1000 1000 -0.00517891 -0.00429589 -0.004151724 -0.004523961 -0.002354892 1000 -0.00517891 -0.00429589 -0.004151724 -0.004523961 -0.002354892 1000
lala 19 0.15 1 second 0 1 291 4 4.627501 0.439997911453247 -1 0 1 0 0.01233711 0.01097801 0.01225608 0.01186866 0.01124586 1000 0.01233711 0.01097801 0.01225608 0.01186866 0.01124586 1000 0.01697511 0.01687201 0.01691472 0.01662599 0.01600454 1000 0.01697511 0.01687201 0.01691472 0.01662599 0.01600454 1000
lala 12 0.15 1 first 8 1 292 5 3.75 0.779997587203979 1 0 1 1 0.01420267 0.01387253 0.01364684 1000 1000 1000 0.01420267 0.01387253 0.01364684 1000 1000 1000 0.01257729 0.01245547 0.01292291 0.01302346 0.01265505 1000 0.01257729 0.01245547 0.01292291 0.01302346 0.01265505 1000
lala 15 0.3 1 first 4 1 293 6 3.959999 0.0599982738494873 -1 0 1 0 0.01175495 0.01187108 0.01117934 1000 1000 1000 0.01175495 0.01187108 0.01117934 1000 1000 1000 0.01196757 0.01203481 0.01209412 0.01204545 0.01172216 1000 0.01196757 0.01203481 0.01209412 0.01204545 0.01172216 1000
lala 10 1.2 0 second 14 1 294 5 2.1 1.05999732017517 0 0 -1 0 0.01000255 0.01049958 0.01044249 0.009395699 0.008417406 1000 0.01000255 0.01049958 0.01044249 0.009395699 0.008417406 1000 0.006938003 0.007003497 0.007228648 0.007943514 0.007543382 1000 0.006938003 0.007003497 0.007228648 0.007943514 0.007543382 1000
lala 20 0.0375 0 first 6 1 295 4 3.839999 1.81999683380127 1 0 -1 1 0.005199333 0.004317293 0.002899679 1000 1000 1000 0.005199333 0.004317293 0.002899679 1000 1000 1000 -0.0002005129 -0.0001457334 -0.0007897334 -0.0006843845 -0.0007367481 1000 -0.0002005129 -0.0001457334 -0.0007897334 -0.0006843845 -0.0007367481 1000
lala 20 0.3 1 second 0 1 296 4 4.3275 0.01999831199646 -1 0 1 0 -0.003898362 -0.003352877 -0.003169443 -0.003930603 -0.004531863 1000 -0.003898362 -0.003352877 -0.003169443 -0.003930603 -0.004531863 1000 -0.007382929 -0.007554919 -0.007250826 -0.006614526 -0.005911037 1000 -0.007382929 -0.007554919 -0.007250826 -0.006614526 -0.005911037 1000
lala 13 0.075 1 second 8 1 297 5 3.675 0.319998025894165 1 0 1 0 -0.01072215 -0.01070159 -0.01046437 -0.009985296 -0.009236115 1000 -0.01072215 -0.01070159 -0.01046437 -0.009985296 -0.009236115 1000 -0.009527616 -0.009712032 -0.009613286 -0.008205509 -0.008454297 1000 -0.009527616 -0.009712032 -0.009613286 -0.008205509 -0.008454297 1000
lala 21 0.009375 0 second 10 1 298 6 3.481875 0.01999831199646 1 0 -1 0 -0.01050422 -0.01087901 -0.01132577 -0.01123814 -0.01121808 1000 -0.01050422 -0.01087901 -0.01132577 -0.01123814 -0.01121808 1000 -0.02082753 -0.02318641 -0.02529093 -0.02674038 -0.0253395 1000 -0.02082753 -0.02318641 -0.02529093 -0.02674038 -0.0253395 1000
lala 18 0.075 1 first 16 1 299 6 3.48 1.41999697685242 0 0 1 0 -0.009664552 -0.008821201 -0.005788647 1000 1000 1000 -0.009664552 -0.008821201 -0.005788647 1000 1000 1000 0.002176702 0.002641964 0.002310085 0.002162298 0.001766689 1000 0.002176702 0.002641964 0.002310085 0.002162298 0.001766689 1000
lala 15 0.3 0 first 3 1 300 5 4.85 0.61999773979187 -1 1 -1 0 0.00441034 0.001132095 0.0002740636 -0.001828595 -0.006237802 -0.008034628 0.00441034 0.001132095 0.0002740636 -0.001828595 -0.006237802 -0.008034628 -0.01283176 -0.01363972 -0.01421653 -0.0145932 -0.01448002 1000 -0.01283176 -0.01363972 -0.01421653 -0.0145932 -0.01448002 1000
lala 21 0.0375 1 first 6 1 301 4 3.877499 0.579997777938843 1 0 1 1 -0.02117025 -0.02109642 -0.02258305 1000 1000 1000 -0.02117025 -0.02109642 -0.02258305 1000 1000 1000 0.01244188 0.01212541 0.01210691 0.01188004 0.01230186 1000 0.01244188 0.01212541 0.01210691 0.01188004 0.01230186 1000
lala 15 0.15 0 first 13 1 302 4 2.47 0.01999831199646 0 1 -1 0 0.01357331 0.01385752 0.01388177 1000 1000 1000 0.01357331 0.01385752 0.01388177 1000 1000 1000 0.01516802 0.01512824 0.01511097 0.01528925 0.01588059 1000 0.01516802 0.01512824 0.01511097 0.01528925 0.01588059 1000
lala 22 0.3 0 first 9 1 303 5 4.55 0.899997472763062 1 1 -1 1 0.01669039 0.01672042 0.01699608 1000 1000 1000 0.01669039 0.01672042 0.01699608 1000 1000 1000 0.02026608 0.02025437 0.02053457 0.02094915 0.02093423 1000 0.02026608 0.02025437 0.02053457 0.02094915 0.02093423 1000
lala 16 0.3 0 first 4 1 304 6 3.659999 0.39999794960022 -1 0 -1 0 0.02287472 0.02279533 0.02321701 1000 1000 1000 0.02287472 0.02279533 0.02321701 1000 1000 1000 0.02304169 0.02197669 0.02083358 0.0208246 0.02075275 1000 0.02304169 0.02197669 0.02083358 0.0208246 0.02075275 1000
lala 16 0.15 1 first 3 1 305 5 5 1.11999726295471 -1 1 1 1 0.02183214 0.02216447 0.02280238 1000 1000 1000 0.02183214 0.02216447 0.02280238 1000 1000 1000 0.02453554 0.02475685 0.02501091 0.02545775 0.02573425 1000 0.02453554 0.02475685 0.02501091 0.02545775 0.02573425 1000
lala 17 0.075 1 first 3 1 306 5 4.925 0.299998044967651 -1 1 1 0 0.01726519 0.01812841 0.01826466 1000 1000 1000 0.01726519 0.01812841 0.01826466 1000 1000 1000 0.0186582 0.01879537 0.0188648 0.01921669 0.01889984 1000 0.0186582 0.01879537 0.0188648 0.01921669 0.01889984 1000
lala 20 0.15 0 first 11 1 307 6 3.330001 0.419997930526733 1 1 -1 0 0.01937871 0.0192879 0.01913357 1000 1000 1000 0.01937871 0.0192879 0.01913357 1000 1000 1000 0.01949871 0.01901968 0.01892471 0.01904797 0.01914688 1000 0.01949871 0.01901968 0.01892471 0.01904797 0.01914688 1000
lala 18 0.075 1 second 3 1 308 5 4.85 0.379997968673706 -1 1 1 0 0.02064819 0.02029515 0.01996708 0.01943013 0.01942442 1000 0.02064819 0.02029515 0.01996708 0.01943013 0.01942442 1000 0.0191144 0.01902607 0.01886587 0.0189163 0.01919401 1000 0.0191144 0.01902607 0.01886587 0.0189163 0.01919401 1000
lala 19 0.0375 0 second 16 1 309 6 3.4425 1.29999709129334 0 0 -1 0 0.02040633 0.020761 0.02073613 0.02032706 0.0200268 1000 0.02040633 0.020761 0.02073613 0.02032706 0.0200268 1000 0.01849494 0.01841441 0.01848317 0.01853916 0.01838724 1000 0.01849494 0.01841441 0.01848317 0.01853916 0.01838724 1000
lala 19 0.3 1 second 12 1 310 4 3.24 0.719997644424438 0 0 1 1 0.02043412 0.01927078 0.01861222 0.01824647 0.01864286 1000 0.02043412 0.01927078 0.01861222 0.01824647 0.01864286 1000 0.0198606 0.02007598 0.02036846 0.02052864 0.02091536 1000 0.0198606 0.02007598 0.02036846 0.02052864 0.02091536 1000
lala 22 0.0046875 1 second 10 1 311 6 3.486563 0.479997873306274 1 0 1 0 0.01948885 0.01960071 0.01950072 0.01840052 0.01799394 1000 0.01948885 0.01960071 0.01950072 0.01840052 0.01799394 1000 0.01996707 0.01998231 0.02010771 0.02030288 0.02043194 1000 0.01996707 0.01998231 0.02010771 0.02030288 0.02043194 1000
lala 23 0.01875 1 second 2 1 312 5 4.050001 0.459997892379761 -1 0 1 0 0.0188919 0.01907306 0.01892399 0.01886168 0.01905845 1000 0.0188919 0.01907306 0.01892399 0.01886168 0.01905845 1000 0.01984244 0.01967755 0.01944526 0.01953545 0.01986977 1000 0.01984244 0.01967755 0.01944526 0.01953545 0.01986977 1000
lala 10 0.6 0 second 7 1 313 4 3.52 0.339998006820679 1 1 -1 1 0.01899006 0.0185669 0.01892523 0.01936685 0.01994105 1000 0.01899006 0.0185669 0.01892523 0.01936685 0.01994105 1000 0.02113662 0.02110422 0.02100255 0.02093812 0.0213904 1000 0.02113662 0.02110422 0.02100255 0.02093812 0.0213904 1000
lala 20 0.01875 1 second 16 1 314 6 3.46125 0.739997625350952 0 0 1 0 0.0195796 0.019796 0.02000331 0.01999945 0.01992876 1000 0.0195796 0.019796 0.02000331 0.01999945 0.01992876 1000 0.02000195 0.02046696 0.02008574 0.0198211 0.01992187 1000 0.02000195 0.02046696 0.02008574 0.0198211 0.01992187 1000
lala 16 0.075 0 first 13 1 315 4 2.545 0.979997396469116 0 1 -1 0 0.01938754 0.01900188 0.01954873 1000 1000 1000 0.01938754 0.01900188 0.01954873 1000 1000 1000 0.02100227 0.02120102 0.02151315 0.02238286 0.02245132 1000 0.02100227 0.02120102 0.02151315 0.02238286 0.02245132 1000
lala 11 0.6 0 second 14 1 316 5 2.7 0.379997968673706 0 0 -1 0 0.02216632 0.0220344 0.02188012 0.02205039 0.02170268 1000 0.02216632 0.0220344 0.02188012 0.02205039 0.02170268 1000 0.02154417 0.02141847 0.02151151 0.02177801 0.02143363 1000 0.02154417 0.02141847 0.02151151 0.02177801 0.02143363 1000
lala 23 0.00234375 1 second 10 1 317 6 3.484219 0.599997758865356 1 0 1 0 0.01936208 0.01975645 0.01974683 0.01947781 0.01944476 1000 0.01936208 0.01975645 0.01974683 0.01947781 0.01944476 1000 0.01931294 0.01865133 0.01867268 0.01886514 0.01912347 1000 0.01931294 0.01865133 0.01867268 0.01886514 0.01912347 1000
lala 20 0.01875 1 second 15 1 318 5 3.65 1.07999730110168 0 1 1 0 0.01793506 0.01807776 0.01846174 0.01841397 0.01854148 1000 0.01793506 0.01807776 0.01846174 0.01841397 0.01854148 1000 0.01883249 0.01845425 0.01878723 0.01859841 0.0185342 1000 0.01883249 0.01845425 0.01878723 0.01859841 0.0185342 1000
lala 21 0.075 0 second 11 1 319 6 3.405001 0.779997587203979 1 1 -1 0 0.01633483 0.01635649 0.01612828 0.01621065 0.01635183 1000 0.01633483 0.01635649 0.01612828 0.01621065 0.01635183 1000 0.01637803 0.01649942 0.01649666 0.01644336 0.0155802 1000 0.01637803 0.01649942 0.01649666 0.01644336 0.0155802 1000
lala 24 0.009375 1 second 2 1 320 5 4.040626 1.0999972820282 -1 0 1 0 0.01688924 0.01608443 0.01580805 0.01583694 0.01604408 1000 0.01688924 0.01608443 0.01580805 0.01583694 0.01604408 1000 0.01378058 0.01343064 0.01382736 0.01374201 0.01335208 1000 0.01378058 0.01343064 0.01382736 0.01374201 0.01335208 1000
lala 18 0.009375 0 first 5 1 321 6 3.976876 0.559997797012329 -1 1 -1 0 0.01496617 0.01488522 0.01524471 1000 1000 1000 0.01496617 0.01488522 0.01524471 1000 1000 1000 0.01293695 0.01290774 0.01344302 0.01340304 0.01321359 1000 0.01293695 0.01290774 0.01344302 0.01340304 0.01321359 1000
lala 19 0.0046875 0 first 5 1 322 6 3.981564 0.419997930526733 -1 1 -1 0 0.0136549 0.01314198 0.01320712 1000 1000 1000 0.0136549 0.01314198 0.01320712 1000 1000 1000 0.01192718 0.01183513 0.01209014 0.01159758 0.01135478 1000 0.01192718 0.01183513 0.01209014 0.01159758 0.01135478 1000
