subject PestNr Step_Size_OnTrial Pest_Faster Pest_Interval Condition block trial velH velH_Pest Reaction_Time velH_Subject Start_Above Response_MotionEstimation RightOrLeftxRotations_first0 xRotations_first1 xRotations_first2 xRotations_first3 xRotations_first4 xRotations_first5 yRotations_first0 yRotations_first1 yRotations_first2 yRotations_first3 yRotations_first4 yRotations_first5 xRotations_second0 xRotations_second1 xRotations_second2 xRotations_second3 xRotations_second4 xRotations_second5 yRotations_second0 yRotations_second1 yRotations_second2 yRotations_second3 yRotations_second4 yRotations_second5
lala 1 1.2 1 second 13 1 1 4 5.32 0.439997911453247 0 1 1 1 -0.009590114 -0.009794083 -0.01023521 -0.0101071 -0.009475071 1000 -0.009590114 -0.009794083 -0.01023521 -0.0101071 -0.009475071 1000 -0.008612183 -0.007964619 -0.007683987 -0.007220652 -0.006804262 1000 -0.008612183 -0.007964619 -0.007683987 -0.007220652 -0.006804262 1000
lala 1 1.2 0 first 8 1 2 5 3.3 2.11999654769897 1 0 -1 0 -0.007456593 -0.00777421 -0.007568904 1000 1000 1000 -0.007456593 -0.00777421 -0.007568904 1000 1000 1000 -0.006217844 -0.006185544 -0.00576892 -0.005332652 -0.00561041 1000 -0.006217844 -0.006185544 -0.00576892 -0.005332652 -0.00561041 1000
lala 1 1.2 0 second 6 1 3 4 2.64 1.01999735832214 1 0 -1 0 -0.008124977 -0.007536843 -0.007375714 -0.007002962 -0.007411536 1000 -0.008124977 -0.007536843 -0.007375714 -0.007002962 -0.007411536 1000 -0.008424251 -0.008332434 -0.008361574 -0.008377342 -0.008308423 1000 -0.008424251 -0.008332434 -0.008361574 -0.008377342 -0.008308423 1000
lala 1 1.2 1 first 7 1 4 4 5.32 3.51999521255493 1 1 1 1 -0.009166379 -0.009511301 -0.008816031 1000 1000 1000 -0.009166379 -0.009511301 -0.008816031 1000 1000 1000 -0.0117011 -0.01150974 -0.0117104 -0.01181594 -0.01188929 1000 -0.0117011 -0.01150974 -0.0117104 -0.01181594 -0.01188929 1000
lala 1 1.2 1 second 15 1 5 5 6.65 0.639997720718384 0 1 1 0 -0.01407105 -0.01395227 -0.0139607 -0.01365279 -0.01379089 1000 -0.01407105 -0.01395227 -0.0139607 -0.01365279 -0.01379089 1000 -0.01387998 -0.01381509 -0.01403861 -0.01400415 -0.01403691 1000 -0.01387998 -0.01381509 -0.01403861 -0.01400415 -0.01403691 1000
lala 1 1.2 0 first 14 1 6 5 3.3 0.579997777938843 0 0 -1 1 -0.01432452 -0.01476768 -0.01458281 1000 1000 1000 -0.01432452 -0.01476768 -0.01458281 1000 1000 1000 -0.01419154 -0.01374988 -0.0133083 -0.01270486 -0.0129678 1000 -0.01419154 -0.01374988 -0.0133083 -0.01270486 -0.0129678 1000
lala 1 1.2 0 first 2 1 7 5 3.3 1.11999726295471 -1 0 -1 1 -0.01498323 -0.01542018 -0.01488127 1000 1000 1000 -0.01498323 -0.01542018 -0.01488127 1000 1000 1000 -0.01453294 -0.01491484 -0.0147661 -0.01472385 -0.01497343 1000 -0.01453294 -0.01491484 -0.0147661 -0.01472385 -0.01497343 1000
lala 1 1.2 0 first 0 1 8 4 2.64 0.699997663497925 -1 0 -1 0 -0.0141528 -0.01589894 -0.01644437 1000 1000 1000 -0.0141528 -0.01589894 -0.01644437 1000 1000 1000 -0.01723111 -0.01720862 -0.0171185 -0.01691948 -0.01615235 1000 -0.01723111 -0.01720862 -0.0171185 -0.01691948 -0.01615235 1000
lala 1 1.2 0 first 16 1 9 6 3.96 0.61999773979187 0 0 -1 1 -0.01664297 -0.01665912 -0.01600541 1000 1000 1000 -0.01664297 -0.01665912 -0.01600541 1000 1000 1000 -0.01541461 -0.01519331 -0.01492677 -0.0148949 -0.01476396 1000 -0.01541461 -0.01519331 -0.01492677 -0.0148949 -0.01476396 1000
lala 2 1.2 1 second 16 1 10 6 5.16 1.07999730110168 0 0 1 1 -0.01430673 -0.0141212 -0.01445763 -0.01419863 -0.01425096 1000 -0.01430673 -0.0141212 -0.01445763 -0.01419863 -0.01425096 1000 -0.01467441 -0.01439058 -0.01396307 -0.01292057 -0.01310274 1000 -0.01467441 -0.01439058 -0.01396307 -0.01292057 -0.01310274 1000
lala 1 1.2 0 second 10 1 11 6 3.96 0.979997396469116 1 0 -1 1 -0.01714329 -0.01664386 -0.01680257 -0.01656739 -0.01639964 1000 -0.01714329 -0.01664386 -0.01680257 -0.01656739 -0.01639964 1000 -0.01744396 -0.0173978 -0.01665691 -0.01659524 -0.01678265 1000 -0.01744396 -0.0173978 -0.01665691 -0.01659524 -0.01678265 1000
lala 1 1.2 0 second 4 1 12 6 3.96 0.779997587203979 -1 0 -1 0 -0.01872731 -0.01802523 -0.0182928 -0.01820591 -0.01856364 1000 -0.01872731 -0.01802523 -0.0182928 -0.01820591 -0.01856364 1000 -0.01939115 -0.01933089 -0.01906709 -0.01939062 -0.01935519 1000 -0.01939115 -0.01933089 -0.01906709 -0.01939062 -0.01935519 1000
lala 2 1.2 0 first 0 1 13 4 3.84 0.679997682571411 -1 0 -1 1 -0.01786901 -0.01850039 -0.01815006 1000 1000 1000 -0.01786901 -0.01850039 -0.01815006 1000 1000 1000 -0.01837941 -0.01832088 -0.01747193 -0.01723935 -0.01680627 1000 -0.01837941 -0.01832088 -0.01747193 -0.01723935 -0.01680627 1000
lala 1 1.2 1 second 1 1 14 4 5.32 0.439997911453247 -1 1 1 1 -0.01692491 -0.01658568 -0.01687821 -0.01690653 -0.01695167 1000 -0.01692491 -0.01658568 -0.01687821 -0.01690653 -0.01695167 1000 -0.01700742 -0.01749393 -0.01754939 -0.01769637 -0.01757508 1000 -0.01700742 -0.01749393 -0.01754939 -0.01769637 -0.01757508 1000
lala 3 1.2 0 first 16 1 15 6 3.96 2.17999649047852 0 0 -1 0 -0.0163401 -0.01742497 -0.01756745 1000 1000 1000 -0.0163401 -0.01742497 -0.01756745 1000 1000 1000 -0.01778485 -0.01789976 -0.01776669 -0.01770405 -0.01711244 1000 -0.01778485 -0.01789976 -0.01776669 -0.01770405 -0.01711244 1000
lala 2 1.2 1 second 4 1 16 6 5.16 0.479997873306274 -1 0 1 0 -0.01991476 -0.01981098 -0.01990991 -0.01944256 -0.0197759 1000 -0.01991476 -0.01981098 -0.01990991 -0.01944256 -0.0197759 1000 -0.01973353 -0.0197382 -0.01924459 -0.01894084 -0.01834173 1000 -0.01973353 -0.0197382 -0.01924459 -0.01894084 -0.01834173 1000
lala 2 1.2 0 second 14 1 17 5 4.5 2.61999607086182 0 0 -1 1 -0.01738577 -0.01761234 -0.01780562 -0.01789667 -0.01825807 1000 -0.01738577 -0.01761234 -0.01780562 -0.01789667 -0.01825807 1000 -0.01920001 -0.01889352 -0.01836486 -0.01868458 -0.01868619 1000 -0.01920001 -0.01889352 -0.01836486 -0.01868458 -0.01868619 1000
lala 3 1.2 1 second 14 1 18 5 5.7 0.499997854232788 0 0 1 0 -0.02237143 -0.02232129 -0.02209655 -0.02139478 -0.02177997 1000 -0.02237143 -0.02232129 -0.02209655 -0.02139478 -0.02177997 1000 -0.02055204 -0.02041864 -0.02058592 -0.02046282 -0.02039145 1000 -0.02055204 -0.02041864 -0.02058592 -0.02046282 -0.02039145 1000
lala 1 1.2 1 first 17 1 19 6 7.98 0.799997568130493 0 1 1 0 -0.02045074 -0.0205564 -0.02064123 1000 1000 1000 -0.02045074 -0.0205564 -0.02064123 1000 1000 1000 -0.0206405 -0.02039855 -0.0203667 -0.01957743 -0.01977596 1000 -0.0206405 -0.02039855 -0.0203667 -0.01957743 -0.01977596 1000
lala 2 1.2 0 first 6 1 20 4 3.84 0.819997549057007 1 0 -1 1 -0.02074849 -0.02060837 -0.02054525 1000 1000 1000 -0.02074849 -0.02060837 -0.02054525 1000 1000 1000 -0.0205839 -0.02054304 -0.02061503 -0.0207498 -0.02052864 1000 -0.0205839 -0.02054304 -0.02061503 -0.0207498 -0.02052864 1000
lala 2 1.2 1 second 8 1 21 5 4.5 0.739997625350952 1 0 1 0 -0.02034297 -0.02021959 -0.02045308 -0.02033894 -0.02026836 1000 -0.02034297 -0.02021959 -0.02045308 -0.02033894 -0.02026836 1000 -0.02065867 -0.02088863 -0.0211964 -0.02137236 -0.02126419 1000 -0.02065867 -0.02088863 -0.0211964 -0.02137236 -0.02126419 1000
lala 2 1.2 1 first 13 1 22 4 4.12 0.699997663497925 0 1 1 0 -0.01968574 -0.01996717 -0.01969197 1000 1000 1000 -0.01968574 -0.01996717 -0.01969197 1000 1000 1000 -0.02039898 -0.02010894 -0.01957157 -0.01967072 -0.01984291 1000 -0.02039898 -0.02010894 -0.01957157 -0.01967072 -0.01984291 1000
lala 3 1.2 1 first 0 1 23 4 5.04 0.759997606277466 -1 0 1 0 -0.02031789 -0.02041466 -0.01983902 1000 1000 1000 -0.02031789 -0.02041466 -0.01983902 1000 1000 1000 -0.0193977 -0.01974148 -0.01997486 -0.02003146 -0.01963074 1000 -0.0193977 -0.01974148 -0.01997486 -0.02003146 -0.01963074 1000
lala 1 1.2 1 second 3 1 24 5 6.65 0.659997701644897 -1 1 1 1 -0.0193314 -0.01929479 -0.01890931 -0.01883107 -0.01828021 1000 -0.0193314 -0.01929479 -0.01890931 -0.01883107 -0.01828021 1000 -0.01949217 -0.01991453 -0.02014398 -0.02035847 -0.02051342 1000 -0.01949217 -0.01991453 -0.02014398 -0.02035847 -0.02051342 1000
lala 2 1.2 1 first 3 1 25 5 5.45 0.959997415542603 -1 1 1 1 -0.02095973 -0.02140247 -0.02118105 1000 1000 1000 -0.02095973 -0.02140247 -0.02118105 1000 1000 1000 -0.02039506 -0.02039922 -0.02067195 -0.02062297 -0.02099219 1000 -0.02039506 -0.02039922 -0.02067195 -0.02062297 -0.02099219 1000
lala 2 1.2 0 first 1 1 26 4 4.12 1.13999724388123 -1 1 -1 1 -0.02206555 -0.0222146 -0.02139178 1000 1000 1000 -0.02206555 -0.0222146 -0.02139178 1000 1000 1000 -0.02048226 -0.02076018 -0.02092659 -0.02113664 -0.02112155 1000 -0.02048226 -0.02076018 -0.02092659 -0.02113664 -0.02112155 1000
lala 3 1.2 0 first 4 1 27 6 3.96 0.699997663497925 -1 0 -1 0 -0.02199977 -0.02259542 -0.02223052 1000 1000 1000 -0.02199977 -0.02259542 -0.02223052 1000 1000 1000 -0.02270127 -0.02288375 -0.02295796 -0.02238927 -0.02290687 1000 -0.02270127 -0.02288375 -0.02295796 -0.02238927 -0.02290687 1000
lala 3 1.2 0 second 1 1 28 4 5.32 0.779997587203979 -1 1 -1 1 -0.02274618 -0.02267783 -0.02259654 -0.02211568 -0.0224222 1000 -0.02274618 -0.02267783 -0.02259654 -0.02211568 -0.0224222 1000 -0.02194352 -0.02213292 -0.02236363 -0.02285148 -0.02285382 1000 -0.02194352 -0.02213292 -0.02236363 -0.02285148 -0.02285382 1000
lala 1 1.2 1 first 12 1 29 4 2.64 0.899997472763062 0 0 1 0 -0.02450696 -0.02403929 -0.0237704 1000 1000 1000 -0.02450696 -0.02403929 -0.0237704 1000 1000 1000 -0.022413 -0.02241197 -0.02262045 -0.0229001 -0.0234047 1000 -0.022413 -0.02241197 -0.02262045 -0.0229001 -0.0234047 1000
lala 2 1.2 1 first 15 1 30 5 5.45 1.17999720573425 0 1 1 1 -0.01394245 -0.01375024 -0.01422184 1000 1000 1000 -0.01394245 -0.01375024 -0.01422184 1000 1000 1000 -0.01503417 -0.01537745 -0.0156857 -0.01584991 -0.01615549 1000 -0.01503417 -0.01537745 -0.0156857 -0.01584991 -0.01615549 1000
lala 1 1.2 1 second 5 1 31 6 7.98 0.819997549057007 -1 1 1 1 -0.01680177 -0.01650849 -0.01665339 -0.0169158 -0.01671179 1000 -0.01680177 -0.01650849 -0.01665339 -0.0169158 -0.01671179 1000 -0.01714345 -0.01721078 -0.01732144 -0.01741537 -0.01798985 1000 -0.01714345 -0.01721078 -0.01732144 -0.01741537 -0.01798985 1000
lala 3 1.2 1 second 6 1 32 4 5.04 0.659997701644897 1 0 1 0 -0.019324 -0.01916911 -0.01864929 -0.01879521 -0.01854861 1000 -0.019324 -0.01916911 -0.01864929 -0.01879521 -0.01854861 1000 -0.02065688 -0.02067121 -0.02062535 -0.02028155 -0.02069831 1000 -0.02065688 -0.02067121 -0.02062535 -0.02028155 -0.02069831 1000
lala 4 1.2 0 first 6 1 33 4 3.84 1.01999735832214 1 0 -1 1 -0.02050308 -0.02028966 -0.02046427 1000 1000 1000 -0.02050308 -0.02028966 -0.02046427 1000 1000 1000 -0.02005611 -0.02037836 -0.02057789 -0.02085589 -0.02074238 1000 -0.02005611 -0.02037836 -0.02057789 -0.02085589 -0.02074238 1000
lala 3 1.2 0 second 8 1 34 5 3.3 0.839997529983521 1 0 -1 0 -0.02070998 -0.02086009 -0.02064393 -0.02068567 -0.02027049 1000 -0.02070998 -0.02086009 -0.02064393 -0.02068567 -0.02027049 1000 -0.02211609 -0.02199298 -0.02200916 -0.02192208 -0.02174987 1000 -0.02211609 -0.02199298 -0.02200916 -0.02192208 -0.02174987 1000
lala 3 1.2 0 second 3 1 35 5 4.25 0.679997682571411 -1 1 -1 1 -0.01982807 -0.01983805 -0.01983908 -0.02001478 -0.01983725 1000 -0.01982807 -0.01983805 -0.01983908 -0.02001478 -0.01983725 1000 -0.02150651 -0.02148779 -0.02130888 -0.02160712 -0.02166216 1000 -0.02150651 -0.02148779 -0.02130888 -0.02160712 -0.02166216 1000
lala 4 1.2 1 first 1 1 36 4 6.52 0.639997720718384 -1 1 1 1 -0.02182254 -0.0221545 -0.02123186 1000 1000 1000 -0.02182254 -0.0221545 -0.02123186 1000 1000 1000 -0.02125628 -0.02089188 -0.02067094 -0.02113603 -0.02090497 1000 -0.02125628 -0.02089188 -0.02067094 -0.02113603 -0.02090497 1000
lala 5 1.2 0 second 1 1 37 4 5.32 0.319998025894165 -1 1 -1 1 -0.02168949 -0.02152534 -0.02076919 -0.02084205 -0.02098524 1000 -0.02168949 -0.02152534 -0.02076919 -0.02084205 -0.02098524 1000 -0.02313229 -0.02355183 -0.02354035 -0.02309716 -0.02361791 1000 -0.02313229 -0.02355183 -0.02354035 -0.02309716 -0.02361791 1000
lala 3 1.2 0 first 13 1 38 4 2.92 2.31999635696411 0 1 -1 1 -0.02412554 -0.02463446 -0.02423068 1000 1000 1000 -0.02412554 -0.02463446 -0.02423068 1000 1000 1000 -0.02332263 -0.02278905 -0.02348316 -0.02390466 -0.02365451 1000 -0.02332263 -0.02278905 -0.02348316 -0.02390466 -0.02365451 1000
lala 5 1.2 1 first 6 1 39 4 5.04 0.599997758865356 1 0 1 0 -0.02099248 -0.02149189 -0.0209565 1000 1000 1000 -0.02099248 -0.02149189 -0.0209565 1000 1000 1000 -0.02394628 -0.02378905 -0.02329856 -0.02353062 -0.02356936 1000 -0.02394628 -0.02378905 -0.02329856 -0.02353062 -0.02356936 1000
lala 1 1.2 1 first 9 1 40 5 6.65 0.719997644424438 1 1 1 1 -0.0237117 -0.02388442 -0.02368887 1000 1000 1000 -0.0237117 -0.02388442 -0.02368887 1000 1000 1000 -0.02428768 -0.02414458 -0.02399921 -0.02404261 -0.02416727 1000 -0.02428768 -0.02414458 -0.02399921 -0.02404261 -0.02416727 1000
lala 4 1.2 0 second 4 1 41 6 5.16 1.83999681472778 -1 0 -1 0 -0.02190562 -0.02146433 -0.02129072 -0.02103788 -0.02066087 1000 -0.02190562 -0.02146433 -0.02129072 -0.02103788 -0.02066087 1000 -0.02267334 -0.02297418 -0.02295051 -0.02318496 -0.02315565 1000 -0.02267334 -0.02297418 -0.02295051 -0.02318496 -0.02315565 1000
lala 2 1.2 0 first 9 1 42 5 5.45 0.879997491836548 1 1 -1 1 -0.0231584 -0.02341234 -0.02324153 1000 1000 1000 -0.0231584 -0.02341234 -0.02324153 1000 1000 1000 -0.02361127 -0.02347168 -0.02342212 -0.02300688 -0.0229705 1000 -0.02361127 -0.02347168 -0.02342212 -0.02300688 -0.0229705 1000
lala 2 1.2 1 first 5 1 43 6 6.780001 0.579997777938843 -1 1 1 1 -0.02283424 -0.02303647 -0.02288917 1000 1000 1000 -0.02283424 -0.02303647 -0.02288917 1000 1000 1000 -0.02353714 -0.02354024 -0.0231368 -0.02262918 -0.02252094 1000 -0.02353714 -0.02354024 -0.0231368 -0.02262918 -0.02252094 1000
lala 4 1.2 0 second 8 1 44 5 4.5 0.459997892379761 1 0 -1 0 -0.02078925 -0.02053477 -0.02051029 -0.02057308 -0.02043847 1000 -0.02078925 -0.02053477 -0.02051029 -0.02057308 -0.02043847 1000 -0.02263028 -0.02247866 -0.02299452 -0.02307214 -0.02326732 1000 -0.02263028 -0.02247866 -0.02299452 -0.02307214 -0.02326732 1000
lala 4 1.2 0 first 16 1 45 6 5.16 0.61999773979187 0 0 -1 1 -0.02320235 -0.02260189 -0.02201918 1000 1000 1000 -0.02320235 -0.02260189 -0.02201918 1000 1000 1000 -0.02075933 -0.02069567 -0.02085135 -0.02089161 -0.02093456 1000 -0.02075933 -0.02069567 -0.02085135 -0.02089161 -0.02093456 1000
lala 1 1.2 1 second 11 1 46 6 7.98 0.539997816085815 1 1 1 1 -0.02034721 -0.02045328 -0.02036596 -0.02056327 -0.02045721 1000 -0.02034721 -0.02045328 -0.02036596 -0.02056327 -0.02045721 1000 -0.02113314 -0.02144528 -0.02176895 -0.02168338 -0.02202153 1000 -0.02113314 -0.02144528 -0.02176895 -0.02168338 -0.02202153 1000
lala 2 1.2 1 second 10 1 47 6 5.16 0.479997873306274 1 0 1 0 -0.02136177 -0.021229 -0.02073038 -0.02088866 -0.02075358 1000 -0.02136177 -0.021229 -0.02073038 -0.02088866 -0.02075358 1000 -0.02154471 -0.0218413 -0.02221879 -0.02191038 -0.02238005 1000 -0.02154471 -0.0218413 -0.02221879 -0.02191038 -0.02238005 1000
lala 4 1.2 0 second 0 1 48 4 3.84 0.579997777938843 -1 0 -1 0 -0.02088211 -0.02053485 -0.02058443 -0.02075763 -0.02041344 1000 -0.02088211 -0.02053485 -0.02058443 -0.02075763 -0.02041344 1000 -0.01950593 -0.01980978 -0.02019204 -0.02020645 -0.0204078 1000 -0.01950593 -0.01980978 -0.02019204 -0.02020645 -0.0204078 1000
lala 3 1.2 1 second 9 1 49 5 6.65 0.419997930526733 1 1 1 0 -0.01959952 -0.01922464 -0.01899118 -0.01931959 -0.01914715 1000 -0.01959952 -0.01922464 -0.01899118 -0.01931959 -0.01914715 1000 -0.02072946 -0.02091071 -0.02113426 -0.02107789 -0.02170965 1000 -0.02072946 -0.02091071 -0.02113426 -0.02107789 -0.02170965 1000
lala 4 1.2 0 first 3 1 50 5 5.45 1.03999733924866 -1 1 -1 1 -0.02003767 -0.008827161 -0.003942378 -0.003603809 -0.004323135 -0.004777894 -0.02003767 -0.008827161 -0.003942378 -0.003603809 -0.004323135 -0.004777894 -0.01217927 -0.01265466 -0.01285078 -0.01289748 -0.01285758 1000 -0.01217927 -0.01265466 -0.01285078 -0.01289748 -0.01285758 1000
lala 5 1.2 1 first 16 1 51 6 6.36 0.299998044967651 0 0 1 1 -0.01727242 -0.01790433 -0.01782588 1000 1000 1000 -0.01727242 -0.01790433 -0.01782588 1000 1000 1000 -0.0170338 -0.01679433 -0.01666293 -0.01642223 -0.01682159 1000 -0.0170338 -0.01679433 -0.01666293 -0.01642223 -0.01682159 1000
lala 5 1.2 1 first 8 1 52 5 5.7 0.579997777938843 1 0 1 0 -0.01777345 -0.01802837 -0.01820195 1000 1000 1000 -0.01777345 -0.01802837 -0.01820195 1000 1000 1000 -0.0201357 -0.02002864 -0.01947219 -0.01982485 -0.0198905 1000 -0.0201357 -0.02002864 -0.01947219 -0.01982485 -0.0198905 1000
lala 3 1.2 0 first 5 1 53 6 5.580001 0.579997777938843 -1 1 -1 1 -0.02099981 -0.0208174 -0.02090322 1000 1000 1000 -0.02099981 -0.0208174 -0.02090322 1000 1000 1000 -0.02122656 -0.02127742 -0.02169853 -0.02178891 -0.02160107 1000 -0.02122656 -0.02127742 -0.02169853 -0.02178891 -0.02160107 1000
lala 2 1.2 1 first 11 1 54 6 6.780001 0.39999794960022 1 1 1 0 -0.02175752 -0.02208182 -0.02176831 1000 1000 1000 -0.02175752 -0.02208182 -0.02176831 1000 1000 1000 -0.02284191 -0.02280665 -0.02209495 -0.02219302 -0.02236775 1000 -0.02284191 -0.02280665 -0.02209495 -0.02219302 -0.02236775 1000
lala 4 1.2 1 second 9 1 55 5 5.45 0.579997777938843 1 1 1 0 -0.02389061 -0.02366394 -0.02333401 -0.02348734 -0.02328749 1000 -0.02389061 -0.02366394 -0.02333401 -0.02348734 -0.02328749 1000 -0.02320432 -0.02283848 -0.02362299 -0.0238291 -0.02364891 1000 -0.02320432 -0.02283848 -0.02362299 -0.0238291 -0.02364891 1000
lala 5 1.2 0 first 9 1 56 5 4.25 0.319998025894165 1 1 -1 0 -0.02354611 -0.02370154 -0.023436 1000 1000 1000 -0.02354611 -0.02370154 -0.023436 1000 1000 1000 -0.02248837 -0.0225768 -0.02305536 -0.02335432 -0.02345526 1000 -0.02248837 -0.0225768 -0.02305536 -0.02335432 -0.02345526 1000
lala 6 1.2 1 second 9 1 57 5 5.45 0.359997987747192 1 1 1 1 -0.02427214 -0.02395919 -0.02322373 -0.0233622 -0.0239799 1000 -0.02427214 -0.02395919 -0.02322373 -0.0233622 -0.0239799 1000 -0.02307249 -0.02320206 -0.02313655 -0.0231268 -0.02300894 1000 -0.02307249 -0.02320206 -0.02313655 -0.0231268 -0.02300894 1000
lala 2 1.2 0 second 12 1 58 4 1.44 0.819997549057007 0 0 -1 1 -0.02408353 -0.02423263 -0.02460837 -0.02422734 -0.02436514 1000 -0.02408353 -0.02423263 -0.02460837 -0.02422734 -0.02436514 1000 -0.02394698 -0.02365507 -0.02330162 -0.02363493 -0.02350988 1000 -0.02394698 -0.02365507 -0.02330162 -0.02363493 -0.02350988 1000
lala 6 1.2 1 second 16 1 59 6 5.16 0.379997968673706 0 0 1 1 -0.021025 -0.01616534 -0.01258225 -0.009889561 -0.007386098 1000 -0.021025 -0.01616534 -0.01258225 -0.009889561 -0.007386098 1000 -0.009480353 -0.009572016 -0.009545202 -0.009880692 -0.01054857 1000 -0.009480353 -0.009572016 -0.009545202 -0.009880692 -0.01054857 1000
lala 7 1.2 0 first 9 1 60 5 4.25 0.559997797012329 1 1 -1 1 -0.01304897 -0.01330236 -0.01331429 1000 1000 1000 -0.01304897 -0.01330236 -0.01331429 1000 1000 1000 -0.01597934 -0.01622219 -0.01603354 -0.01600029 -0.01608522 1000 -0.01597934 -0.01622219 -0.01603354 -0.01600029 -0.01608522 1000
lala 6 1.2 0 first 1 1 61 4 6.52 1.79999685287476 -1 1 -1 0 -0.01725092 -0.01779312 -0.01775959 1000 1000 1000 -0.01725092 -0.01779312 -0.01775959 1000 1000 1000 -0.01701025 -0.0168749 -0.01665958 -0.01639176 -0.01686241 1000 -0.01701025 -0.0168749 -0.01665958 -0.01639176 -0.01686241 1000
lala 3 1.2 1 second 11 1 62 6 5.580001 1.19999718666077 1 1 1 1 -0.01995789 -0.01955147 -0.01969469 -0.01966842 -0.01964912 1000 -0.01995789 -0.01955147 -0.01969469 -0.01966842 -0.01964912 1000 -0.01985256 -0.01973472 -0.01954228 -0.01897537 -0.0191997 1000 -0.01985256 -0.01973472 -0.01954228 -0.01897537 -0.0191997 1000
lala 2 1.2 0 first 7 1 63 4 4.12 0.299998044967651 1 1 -1 0 -0.02205201 -0.02177575 -0.02109185 1000 1000 1000 -0.02205201 -0.02177575 -0.02109185 1000 1000 1000 -0.01983147 -0.02026552 -0.02015455 -0.02039371 -0.02018108 1000 -0.01983147 -0.02026552 -0.02015455 -0.02039371 -0.02018108 1000
lala 2 1.2 1 first 17 1 64 6 6.780001 0.439997911453247 0 1 1 0 -0.02194413 -0.02170527 -0.02215484 1000 1000 1000 -0.02194413 -0.02170527 -0.02215484 1000 1000 1000 -0.02214628 -0.02236863 -0.02269774 -0.02260653 -0.0223777 1000 -0.02214628 -0.02236863 -0.02269774 -0.02260653 -0.0223777 1000
lala 4 1.2 0 first 11 1 65 6 4.380001 0.559997797012329 1 1 -1 1 -0.02206829 -0.02229596 -0.02250853 1000 1000 1000 -0.02206829 -0.02229596 -0.02250853 1000 1000 1000 -0.02399743 -0.02367957 -0.02339439 -0.02299223 -0.02353632 1000 -0.02399743 -0.02367957 -0.02339439 -0.02299223 -0.02353632 1000
lala 6 1.2 0 first 6 1 66 4 3.84 0.859997510910034 1 0 -1 0 -0.0228324 -0.0227485 -0.0222274 1000 1000 1000 -0.0228324 -0.0227485 -0.0222274 1000 1000 1000 -0.02351648 -0.02378112 -0.02402705 -0.0241326 -0.02424664 1000 -0.02351648 -0.02378112 -0.02402705 -0.0241326 -0.02424664 1000
lala 7 1.2 1 second 6 1 67 4 5.04 0.579997777938843 1 0 1 0 -0.02403215 -0.02372549 -0.02343372 -0.02322188 -0.02321027 1000 -0.02403215 -0.02372549 -0.02343372 -0.02322188 -0.02321027 1000 -0.02384866 -0.02434536 -0.02439002 -0.02418614 -0.02409857 1000 -0.02384866 -0.02434536 -0.02439002 -0.02418614 -0.02409857 1000
lala 8 1.2 0 first 9 1 68 5 5.45 0.539997816085815 1 1 -1 0 -0.02412844 -0.02460715 -0.02452395 1000 1000 1000 -0.02412844 -0.02460715 -0.02452395 1000 1000 1000 -0.02312398 -0.02346675 -0.02382995 -0.02422707 -0.02401434 1000 -0.02312398 -0.02346675 -0.02382995 -0.02422707 -0.02401434 1000
lala 2 1.2 0 first 2 1 69 5 4.5 0.859997510910034 -1 0 -1 1 -0.02498016 -0.02521189 -0.02466093 1000 1000 1000 -0.02498016 -0.02521189 -0.02466093 1000 1000 1000 -0.02143625 -0.02138906 -0.02103861 -0.02165356 -0.02166035 1000 -0.02143625 -0.02138906 -0.02103861 -0.02165356 -0.02166035 1000
lala 4 1.2 1 first 13 1 70 4 4.12 0.499997854232788 0 1 1 0 -0.02150095 -0.021507 -0.02119802 1000 1000 1000 -0.02150095 -0.021507 -0.02119802 1000 1000 1000 -0.02014619 -0.02012056 -0.01980228 -0.020561 -0.0209144 1000 -0.02014619 -0.02012056 -0.01980228 -0.020561 -0.0209144 1000
lala 5 1.2 0 first 13 1 71 4 2.92 5.27999353408813 0 1 -1 1 -0.02160133 -0.02178561 -0.02122918 1000 1000 1000 -0.02160133 -0.02178561 -0.02122918 1000 1000 1000 -0.01901099 -0.01918808 -0.01901134 -0.01909863 -0.0190484 1000 -0.01901099 -0.01918808 -0.01901134 -0.01909863 -0.0190484 1000
lala 9 1.2 1 first 9 1 72 5 6.65 0.499997854232788 1 1 1 0 -0.02062035 -0.02205208 -0.02210611 1000 1000 1000 -0.02062035 -0.02205208 -0.02210611 1000 1000 1000 -0.01988189 -0.01978399 -0.01953414 -0.01948447 -0.01916922 1000 -0.01988189 -0.01978399 -0.01953414 -0.01948447 -0.01916922 1000
lala 3 1.2 0 first 12 1 73 4 2.64 0.539997816085815 0 0 -1 1 -0.02051033 -0.02057571 -0.02041293 1000 1000 1000 -0.02051033 -0.02057571 -0.02041293 1000 1000 1000 -0.01994292 -0.01942651 -0.01981317 -0.01990491 -0.01996556 1000 -0.01994292 -0.01942651 -0.01981317 -0.01990491 -0.01996556 1000
lala 8 1.2 0 second 6 1 74 4 3.84 0.479997873306274 1 0 -1 1 -0.02066038 -0.02095654 -0.02118659 -0.02080971 -0.02121652 1000 -0.02066038 -0.02095654 -0.02118659 -0.02080971 -0.02121652 1000 -0.02152898 -0.0213517 -0.02110917 -0.02093218 -0.02039453 1000 -0.02152898 -0.0213517 -0.02110917 -0.02093218 -0.02039453 1000
lala 5 1.2 0 first 3 1 75 5 6.65 0.559997797012329 -1 1 -1 1 -0.02090007 -0.02097093 -0.02071486 1000 1000 1000 -0.02090007 -0.02097093 -0.02071486 1000 1000 1000 -0.02256545 -0.02231035 -0.02201424 -0.02259222 -0.0226282 1000 -0.02256545 -0.02231035 -0.02201424 -0.02259222 -0.0226282 1000
lala 6 1.2 1 second 3 1 76 5 7.849999 0.419997930526733 -1 1 1 0 -0.02187213 -0.02170961 -0.02145292 -0.02105221 -0.02151929 1000 -0.02187213 -0.02170961 -0.02145292 -0.02105221 -0.02151929 1000 -0.02364792 -0.02375822 -0.02371894 -0.02359168 -0.02315504 1000 -0.02364792 -0.02375822 -0.02371894 -0.02359168 -0.02315504 1000
lala 5 1.2 1 second 4 1 77 6 6.36 0.319998025894165 -1 0 1 1 -0.02319104 -0.02285044 -0.02349274 -0.02346295 -0.02344122 1000 -0.02319104 -0.02285044 -0.02349274 -0.02346295 -0.02344122 1000 -0.02381602 -0.02389526 -0.02360616 -0.02387065 -0.02455131 1000 -0.02381602 -0.02389526 -0.02360616 -0.02387065 -0.02455131 1000
lala 5 1.2 1 second 11 1 78 6 5.580001 0.379997968673706 1 1 1 0 -0.02456374 -0.02490433 -0.02461314 -0.02448268 -0.02431126 1000 -0.02456374 -0.02490433 -0.02461314 -0.02448268 -0.02431126 1000 -0.02321037 -0.02280105 -0.02282473 -0.02299013 -0.02291053 1000 -0.02321037 -0.02280105 -0.02282473 -0.02299013 -0.02291053 1000
lala 4 1.2 0 second 12 1 79 4 3.84 1.43999695777893 0 0 -1 1 -0.02347734 -0.02313733 -0.02331416 -0.02343352 -0.02340166 1000 -0.02347734 -0.02313733 -0.02331416 -0.02343352 -0.02340166 1000 -0.02288889 -0.02270129 -0.02218161 -0.02232684 -0.02200166 1000 -0.02288889 -0.02270129 -0.02218161 -0.02232684 -0.02200166 1000
lala 7 1.2 0 first 3 1 80 5 6.65 1.21999716758728 -1 1 -1 1 -0.02344302 -0.02339813 -0.02300173 1000 1000 1000 -0.02344302 -0.02339813 -0.02300173 1000 1000 1000 -0.02309198 -0.02283906 -0.02287056 -0.02247375 -0.02241775 1000 -0.02309198 -0.02283906 -0.02287056 -0.02247375 -0.02241775 1000
lala 9 1.2 1 second 6 1 81 4 5.04 0.419997930526733 1 0 1 0 -0.02403102 -0.02335754 -0.02276144 -0.02244906 -0.02279264 1000 -0.02403102 -0.02335754 -0.02276144 -0.02244906 -0.02279264 1000 -0.02175825 -0.02165808 -0.02143776 -0.02124452 -0.02102282 1000 -0.02175825 -0.02165808 -0.02143776 -0.02124452 -0.02102282 1000
lala 6 1.2 0 first 11 1 82 6 4.380001 0.39999794960022 1 1 -1 0 -0.02314053 -0.02338871 -0.02356568 1000 1000 1000 -0.02314053 -0.02338871 -0.02356568 1000 1000 1000 -0.02471948 -0.02424843 -0.02343748 -0.02377363 -0.02406413 1000 -0.02471948 -0.02424843 -0.02343748 -0.02377363 -0.02406413 1000
lala 3 1.2 1 first 7 1 83 4 5.32 0.579997777938843 1 1 1 1 -0.02458718 -0.02459181 -0.02397208 1000 1000 1000 -0.02458718 -0.02459181 -0.02397208 1000 1000 1000 -0.0233144 -0.0229377 -0.02289762 -0.02335931 -0.02295459 1000 -0.0233144 -0.0229377 -0.02289762 -0.02335931 -0.02295459 1000
lala 10 0.6 0 first 6 1 84 4 4.44 0.799997568130493 1 0 -1 0 -0.0210553 -0.02139613 -0.02215018 1000 1000 1000 -0.0210553 -0.02139613 -0.02215018 1000 1000 1000 -0.001370771 -0.009654364 -0.01869431 -0.006640276 0.01136515 1000 -0.001370771 -0.009654364 -0.01869431 -0.006640276 0.01136515 1000
lala 11 0.3 0 first 6 1 85 4 4.74 0.499997854232788 1 0 -1 1 0.007701793 -0.001319864 -0.003680348 1000 1000 1000 0.007701793 -0.001319864 -0.003680348 1000 1000 1000 -0.01724196 -0.01876882 -0.01908022 -0.0190692 -0.01893214 1000 -0.01724196 -0.01876882 -0.01908022 -0.0190692 -0.01893214 1000
lala 5 1.2 1 first 12 1 86 4 5.04 0.459997892379761 0 0 1 0 -0.02868093 -0.03194458 -0.03263743 1000 1000 1000 -0.02868093 -0.03194458 -0.03263743 1000 1000 1000 -0.002763725 -0.002842294 -0.001427133 -0.00178288 -0.003725191 1000 -0.002763725 -0.002842294 -0.001427133 -0.00178288 -0.003725191 1000
lala 6 1.2 0 first 4 1 87 6 5.16 0.459997892379761 -1 0 -1 1 -0.005699385 -0.006767422 -0.005551358 1000 1000 1000 -0.005699385 -0.006767422 -0.005551358 1000 1000 1000 -0.005235789 -0.004793136 -0.004874372 -0.005556928 -0.005025079 1000 -0.005235789 -0.004793136 -0.004874372 -0.005556928 -0.005025079 1000
lala 10 0.6 1 first 9 1 88 5 6.05 0.439997911453247 1 1 1 1 -0.006997566 -0.007062482 -0.006551123 1000 1000 1000 -0.006997566 -0.007062482 -0.006551123 1000 1000 1000 -0.01020597 -0.01013806 -0.009950221 -0.009649612 -0.01004388 1000 -0.01020597 -0.01013806 -0.009950221 -0.009649612 -0.01004388 1000
lala 3 1.2 0 second 2 1 89 5 5.7 0.479997873306274 -1 0 -1 0 -0.01045186 -0.01038133 -0.01085318 -0.01110991 -0.01185326 1000 -0.01045186 -0.01038133 -0.01085318 -0.01110991 -0.01185326 1000 -0.01375643 -0.01380433 -0.01393066 -0.01429901 -0.01445394 1000 -0.01375643 -0.01380433 -0.01393066 -0.01429901 -0.01445394 1000
lala 6 1.2 1 first 8 1 90 5 4.5 0.459997892379761 1 0 1 0 -0.01680098 -0.01590802 -0.01482882 1000 1000 1000 -0.01680098 -0.01590802 -0.01482882 1000 1000 1000 -0.01631371 -0.01630282 -0.01605769 -0.0160959 -0.0159571 1000 -0.01631371 -0.01630282 -0.01605769 -0.0160959 -0.0159571 1000
lala 4 1.2 0 first 7 1 91 4 4.12 0.499997854232788 1 1 -1 1 -0.01589731 -0.01575819 -0.01615468 1000 1000 1000 -0.01589731 -0.01575819 -0.01615468 1000 1000 1000 -0.01684092 -0.0163689 -0.01615137 -0.0155361 -0.01596704 1000 -0.01684092 -0.0163689 -0.01615137 -0.0155361 -0.01596704 1000
lala 7 1.2 0 first 8 1 92 5 3.3 0.419997930526733 1 0 -1 0 -0.01542598 -0.01517547 -0.01511811 1000 1000 1000 -0.01542598 -0.01517547 -0.01511811 1000 1000 1000 -0.01637288 -0.01669987 -0.01711535 -0.01683804 -0.01721442 1000 -0.01637288 -0.01669987 -0.01711535 -0.01683804 -0.01721442 1000
lala 11 0.6 1 first 9 1 93 5 5.45 0.439997911453247 1 1 1 1 -0.01633416 -0.01622246 -0.01562567 1000 1000 1000 -0.01633416 -0.01622246 -0.01562567 1000 1000 1000 -0.01713795 -0.01752512 -0.01743246 -0.01731291 -0.01787376 1000 -0.01713795 -0.01752512 -0.01743246 -0.01731291 -0.01787376 1000
lala 3 1.2 0 second 10 1 94 6 3.96 0.899997472763062 1 0 -1 1 -0.01773999 -0.01753102 -0.01762737 -0.01788073 -0.01781433 1000 -0.01773999 -0.01753102 -0.01762737 -0.01788073 -0.01781433 1000 -0.01967014 -0.01950144 -0.0200415 -0.01989556 -0.01977979 1000 -0.01967014 -0.01950144 -0.0200415 -0.01989556 -0.01977979 1000
lala 7 1.2 1 first 1 1 95 4 7.719999 0.739997625350952 -1 1 1 1 -0.01986165 -0.01990129 -0.01981117 1000 1000 1000 -0.01986165 -0.01990129 -0.01981117 1000 1000 1000 -0.02133234 -0.02159078 -0.02144406 -0.02124588 -0.02110709 1000 -0.02133234 -0.02159078 -0.02144406 -0.02124588 -0.02110709 1000
lala 4 1.2 0 first 14 1 96 5 4.5 2.25999641418457 0 0 -1 0 -0.02055253 -0.02122585 -0.02077097 1000 1000 1000 -0.02055253 -0.02122585 -0.02077097 1000 1000 1000 -0.02028684 -0.02063354 -0.0207467 -0.02135505 -0.02129823 1000 -0.02028684 -0.02063354 -0.0207467 -0.02135505 -0.02129823 1000
lala 7 1.2 0 first 16 1 97 6 3.96 0.639997720718384 0 0 -1 0 -0.01851592 -0.01819499 -0.018162 1000 1000 1000 -0.01851592 -0.01819499 -0.018162 1000 1000 1000 -0.02162036 -0.02123277 -0.02021518 -0.01977141 -0.01960024 1000 -0.02162036 -0.02123277 -0.02021518 -0.01977141 -0.01960024 1000
lala 7 1.2 1 first 4 1 98 6 6.36 1.05999732017517 -1 0 1 0 -0.02052683 -0.02051518 -0.02011093 1000 1000 1000 -0.02052683 -0.02051518 -0.02011093 1000 1000 1000 -0.02271823 -0.02301344 -0.02338183 -0.02362582 -0.02375391 1000 -0.02271823 -0.02301344 -0.02338183 -0.02362582 -0.02375391 1000
lala 8 1.2 1 second 1 1 99 4 6.52 0.739997625350952 -1 1 1 0 -0.02342347 -0.02349327 -0.02332385 -0.02379104 -0.02364002 1000 -0.02342347 -0.02349327 -0.02332385 -0.02379104 -0.02364002 1000 -0.02467267 -0.02538078 -0.02587752 -0.02587681 -0.02572394 1000 -0.02467267 -0.02538078 -0.02587752 -0.02587681 -0.02572394 1000
lala 9 1.2 0 first 1 1 100 4 5.32 0.579997777938843 -1 1 -1 1 -0.01836205 -0.01885591 -0.01881118 -0.01851322 -0.01803405 -0.01790885 -0.01836205 -0.01885591 -0.01881118 -0.01851322 -0.01803405 -0.01790885 -0.01931123 -0.0185237 -0.01847607 -0.01838696 -0.01854758 1000 -0.01931123 -0.0185237 -0.01847607 -0.01838696 -0.01854758 1000
lala 5 1.2 0 second 14 1 101 5 5.7 0.639997720718384 0 0 -1 1 -0.0186032 -0.01865775 -0.0188014 -0.01846273 -0.01886085 1000 -0.0186032 -0.01865775 -0.0188014 -0.01846273 -0.01886085 1000 -0.02000619 -0.01983684 -0.01946237 -0.01977063 -0.01950432 1000 -0.02000619 -0.01983684 -0.01946237 -0.01977063 -0.01950432 1000
lala 6 1.2 1 first 12 1 102 4 3.84 0.659997701644897 0 0 1 1 -0.02010373 -0.01976817 -0.01981295 1000 1000 1000 -0.02010373 -0.01976817 -0.01981295 1000 1000 1000 -0.020566 -0.02022713 -0.02044001 -0.02081764 -0.02110615 1000 -0.020566 -0.02022713 -0.02044001 -0.02081764 -0.02110615 1000
lala 4 1.2 1 second 2 1 103 5 6.9 0.519997835159302 -1 0 1 0 -0.01975606 -0.01929422 -0.01946317 -0.01913946 -0.01926536 1000 -0.01975606 -0.01929422 -0.01946317 -0.01913946 -0.01926536 1000 -0.01957072 -0.01987056 -0.02006921 -0.02027766 -0.02053292 1000 -0.01957072 -0.01987056 -0.02006921 -0.02027766 -0.02053292 1000
lala 8 1.2 0 second 4 1 104 6 5.16 0.799997568130493 -1 0 -1 0 -0.01989715 -0.01978308 -0.0198294 -0.02001963 -0.02024801 1000 -0.01989715 -0.01978308 -0.0198294 -0.02001963 -0.02024801 1000 -0.02029199 -0.0202167 -0.02042367 -0.02066961 -0.02095447 1000 -0.02029199 -0.0202167 -0.02042367 -0.02066961 -0.02095447 1000
lala 3 1.2 0 first 15 1 105 5 4.25 0.439997911453247 0 1 -1 1 -0.02404919 -0.02380323 -0.02300064 1000 1000 1000 -0.02404919 -0.02380323 -0.02300064 1000 1000 1000 -0.02386303 -0.02377859 -0.02380942 -0.0238549 -0.02394483 1000 -0.02386303 -0.02377859 -0.02380942 -0.0238549 -0.02394483 1000
lala 5 1.2 0 second 0 1 106 4 5.04 1.01999735832214 -1 0 -1 1 -0.02515786 -0.02488074 -0.02443093 -0.0242311 -0.02379942 1000 -0.02515786 -0.02488074 -0.02443093 -0.0242311 -0.02379942 1000 -0.02508442 -0.02519971 -0.0251945 -0.02492578 -0.02522345 1000 -0.02508442 -0.02519971 -0.0251945 -0.02492578 -0.02522345 1000
lala 6 1.2 1 first 13 1 107 4 4.12 0.39999794960022 0 1 1 1 -0.02503814 -0.02467486 -0.02437258 1000 1000 1000 -0.02503814 -0.02467486 -0.02437258 1000 1000 1000 -0.02486864 -0.02457206 -0.02433964 -0.02421029 -0.02384239 1000 -0.02486864 -0.02457206 -0.02433964 -0.02421029 -0.02384239 1000
lala 10 0.6 1 second 1 1 108 4 5.92 0.739997625350952 -1 1 1 0 -0.02368742 -0.02369167 -0.02422233 -0.02443669 -0.02438809 1000 -0.02368742 -0.02369167 -0.02422233 -0.02443669 -0.02438809 1000 -0.02459977 -0.02393006 -0.02351308 -0.02362448 -0.02371997 1000 -0.02459977 -0.02393006 -0.02351308 -0.02362448 -0.02371997 1000
lala 4 1.2 1 second 15 1 109 5 5.45 0.719997644424438 0 1 1 1 -0.02244972 -0.02174443 -0.02207144 -0.02236085 -0.02246154 1000 -0.02244972 -0.02174443 -0.02207144 -0.02236085 -0.02246154 1000 -0.02373373 -0.02360263 -0.02329127 -0.02343635 -0.02373095 1000 -0.02373373 -0.02360263 -0.02329127 -0.02343635 -0.02373095 1000
lala 12 0.3 0 first 6 1 110 4 5.04 0.499997854232788 1 0 -1 0 -0.0226145 -0.022803 -0.02274691 1000 1000 1000 -0.0226145 -0.022803 -0.02274691 1000 1000 1000 -0.02363973 -0.02363062 -0.02321279 -0.02341923 -0.02310371 1000 -0.02363973 -0.02363062 -0.02321279 -0.02341923 -0.02310371 1000
lala 3 1.2 1 second 17 1 111 6 5.580001 0.739997625350952 0 1 1 0 -0.02276589 -0.02291206 -0.02286403 -0.02306513 -0.02299846 1000 -0.02276589 -0.02291206 -0.02286403 -0.02306513 -0.02299846 1000 -0.02390925 -0.02390889 -0.02445225 -0.0247785 -0.02518593 1000 -0.02390925 -0.02390889 -0.02445225 -0.0247785 -0.02518593 1000
lala 9 1.2 0 first 4 1 112 6 6.36 0.859997510910034 -1 0 -1 1 -0.02483403 -0.02472292 -0.02394603 1000 1000 1000 -0.02483403 -0.02472292 -0.02394603 1000 1000 1000 -0.02251725 -0.02209402 -0.02233938 -0.02269167 -0.02274403 1000 -0.02251725 -0.02209402 -0.02233938 -0.02269167 -0.02274403 1000
lala 5 1.2 0 second 15 1 113 5 4.25 0.579997777938843 0 1 -1 0 -0.02359703 -0.02325302 -0.02307848 -0.02287344 -0.02237199 1000 -0.02359703 -0.02325302 -0.02307848 -0.02287344 -0.02237199 1000 -0.02167441 -0.02146636 -0.02167261 -0.02167322 -0.0217199 1000 -0.02167441 -0.02146636 -0.02167261 -0.02167322 -0.0217199 1000
lala 8 1.2 1 second 3 1 114 5 7.849999 0.499997854232788 -1 1 1 0 -0.02294089 -0.02298847 -0.02239602 -0.02194767 -0.02224425 1000 -0.02294089 -0.02298847 -0.02239602 -0.02194767 -0.02224425 1000 -0.02269458 -0.02270391 -0.02251018 -0.02269187 -0.02261875 1000 -0.02269458 -0.02270391 -0.02251018 -0.02269187 -0.02261875 1000
lala 10 1.2 1 second 4 1 115 6 7.559999 0.559997797012329 -1 0 1 0 -0.02157371 -0.02127475 -0.02125158 -0.02135785 -0.02159546 1000 -0.02157371 -0.02127475 -0.02125158 -0.02135785 -0.02159546 1000 -0.02262971 -0.02278481 -0.02241858 -0.02237141 -0.02248894 1000 -0.02262971 -0.02278481 -0.02241858 -0.02237141 -0.02248894 1000
lala 11 0.6 0 first 4 1 116 6 6.96 0.639997720718384 -1 0 -1 1 -0.02151222 -0.02156204 -0.02095419 1000 1000 1000 -0.02151222 -0.02156204 -0.02095419 1000 1000 1000 -0.01954295 -0.0195621 -0.01966558 -0.02018884 -0.02040311 1000 -0.01954295 -0.0195621 -0.01966558 -0.02018884 -0.02040311 1000
lala 8 1.2 0 second 16 1 117 6 5.16 0.339998006820679 0 0 -1 1 -0.0213596 -0.02093119 -0.02110996 -0.02118628 -0.02125024 1000 -0.0213596 -0.02093119 -0.02110996 -0.02118628 -0.02125024 1000 -0.02095447 -0.0209182 -0.02040868 -0.02041914 -0.02040009 1000 -0.02095447 -0.0209182 -0.02040868 -0.02041914 -0.02040009 1000
lala 6 1.2 0 first 0 1 118 4 6.24 0.479997873306274 -1 0 -1 1 -0.02174424 -0.02151483 -0.02176012 1000 1000 1000 -0.02174424 -0.02151483 -0.02176012 1000 1000 1000 -0.02112172 -0.02097575 -0.0207049 -0.02061047 -0.0207739 1000 -0.02112172 -0.02097575 -0.0207049 -0.02061047 -0.0207739 1000
lala 5 1.2 0 second 2 1 119 5 5.7 0.519997835159302 -1 0 -1 0 -0.02057704 -0.02066641 -0.0214304 -0.02126424 -0.02161105 1000 -0.02057704 -0.02066641 -0.0214304 -0.02126424 -0.02161105 1000 -0.02201744 -0.02178252 -0.02131243 -0.02134167 -0.02119161 1000 -0.02201744 -0.02178252 -0.02131243 -0.02134167 -0.02119161 1000
lala 12 0.3 1 second 4 1 120 6 7.26 0.299998044967651 -1 0 1 1 -0.01912414 -0.01890342 -0.01877695 -0.01888978 -0.01878337 1000 -0.01912414 -0.01890342 -0.01877695 -0.01888978 -0.01878337 1000 -0.02053551 -0.02041202 -0.02079651 -0.02103445 -0.02115521 1000 -0.02053551 -0.02041202 -0.02079651 -0.02103445 -0.02115521 1000
lala 7 1.2 0 second 13 1 121 4 2.92 0.819997549057007 0 1 -1 0 -0.01955225 -0.01945789 -0.0194223 -0.0195379 -0.01935056 1000 -0.01955225 -0.01945789 -0.0194223 -0.0195379 -0.01935056 1000 -0.01929064 -0.01955956 -0.02035595 -0.02053634 -0.02064047 1000 -0.01929064 -0.01955956 -0.02035595 -0.02053634 -0.02064047 1000
lala 4 1.2 0 first 10 1 122 6 5.16 0.299998044967651 1 0 -1 0 -0.02071179 -0.02064076 -0.02003787 1000 1000 1000 -0.02071179 -0.02064076 -0.02003787 1000 1000 1000 -0.02046032 -0.02052689 -0.02124994 -0.0214863 -0.02155013 1000 -0.02046032 -0.02052689 -0.02124994 -0.0214863 -0.02155013 1000
lala 5 1.2 1 first 7 1 123 4 5.32 0.39999794960022 1 1 1 1 -0.02152158 -0.02127163 -0.02076052 1000 1000 1000 -0.02152158 -0.02127163 -0.02076052 1000 1000 1000 -0.02002024 -0.02004622 -0.0203442 -0.0205912 -0.02113891 1000 -0.02002024 -0.02004622 -0.0203442 -0.0205912 -0.02113891 1000
lala 11 0.3 0 first 1 1 124 4 5.619999 0.419997930526733 -1 1 -1 1 -0.02237968 -0.02234519 -0.02238959 1000 1000 1000 -0.02237968 -0.02234519 -0.02238959 1000 1000 1000 -0.02032234 -0.01993732 -0.01981622 -0.01904066 -0.01935309 1000 -0.02032234 -0.01993732 -0.01981622 -0.01904066 -0.01935309 1000
lala 7 1.2 1 first 11 1 125 6 5.580001 0.379997968673706 1 1 1 0 -0.02201105 -0.02179547 -0.02133489 1000 1000 1000 -0.02201105 -0.02179547 -0.02133489 1000 1000 1000 -0.02007634 -0.02026554 -0.02003851 -0.02009245 -0.01968271 1000 -0.02007634 -0.02026554 -0.02003851 -0.02009245 -0.01968271 1000
lala 4 1.2 1 second 5 1 126 6 6.780001 0.479997873306274 -1 1 1 1 -0.0209357 -0.02091899 -0.02117533 -0.02093891 -0.02138461 1000 -0.0209357 -0.02091899 -0.02117533 -0.02093891 -0.02138461 1000 -0.02065421 -0.02058734 -0.02024354 -0.02014673 -0.02001488 1000 -0.02065421 -0.02058734 -0.02024354 -0.02014673 -0.02001488 1000
lala 7 1.2 0 second 12 1 127 4 2.64 0.479997873306274 0 0 -1 0 -0.01965163 -0.019164 -0.01943802 -0.01954248 -0.0196776 1000 -0.01965163 -0.019164 -0.01943802 -0.01954248 -0.0196776 1000 -0.02184632 -0.02216319 -0.02198893 -0.02214842 -0.0222685 1000 -0.02184632 -0.02216319 -0.02198893 -0.02214842 -0.0222685 1000
lala 8 1.2 1 second 12 1 128 4 3.84 0.319998025894165 0 0 1 1 -0.02180246 -0.02161987 -0.02133248 -0.02100164 -0.02099592 1000 -0.02180246 -0.02161987 -0.02133248 -0.02100164 -0.02099592 1000 -0.02049336 -0.02071322 -0.02088658 -0.0213332 -0.02157715 1000 -0.02049336 -0.02071322 -0.02088658 -0.0213332 -0.02157715 1000
lala 9 1.2 1 second 3 1 129 5 6.65 0.359997987747192 -1 1 1 0 -0.0218329 -0.02126627 -0.02075723 -0.02101965 -0.02058569 1000 -0.0218329 -0.02126627 -0.02075723 -0.02101965 -0.02058569 1000 -0.0204222 -0.02036302 -0.02047244 -0.02027295 -0.02016268 1000 -0.0204222 -0.02036302 -0.02047244 -0.02027295 -0.02016268 1000
lala 9 1.2 0 second 12 1 130 4 2.64 0.39999794960022 0 0 -1 1 -0.02158718 -0.02168135 -0.0219933 -0.02178892 -0.02208268 1000 -0.02158718 -0.02168135 -0.0219933 -0.02178892 -0.02208268 1000 -0.02147134 -0.02134665 -0.0209699 -0.0212329 -0.02121221 1000 -0.02147134 -0.02134665 -0.0209699 -0.0212329 -0.02121221 1000
lala 4 1.2 0 second 17 1 131 6 4.380001 0.359997987747192 0 1 -1 0 -0.0201479 -0.0203063 -0.02100576 -0.02122308 -0.02155789 1000 -0.0201479 -0.0203063 -0.02100576 -0.02122308 -0.02155789 1000 -0.02168917 -0.02166131 -0.02131532 -0.02155233 -0.02159021 1000 -0.02168917 -0.02166131 -0.02131532 -0.02155233 -0.02159021 1000
lala 10 0.6 1 first 12 1 132 4 3.24 0.319998025894165 0 0 1 0 -0.02122097 -0.02059967 -0.02043724 1000 1000 1000 -0.02122097 -0.02059967 -0.02043724 1000 1000 1000 -0.02146707 -0.02107735 -0.0214997 -0.02161873 -0.02173716 1000 -0.02146707 -0.02107735 -0.0214997 -0.02161873 -0.02173716 1000
lala 5 1.2 0 second 17 1 133 6 5.580001 0.439997911453247 0 1 -1 1 -0.02059075 -0.02029312 -0.02025272 -0.01993149 -0.0198466 1000 -0.02059075 -0.02029312 -0.02025272 -0.01993149 -0.0198466 1000 -0.01918527 -0.01907801 -0.01916238 -0.01946474 -0.01975123 1000 -0.01918527 -0.01907801 -0.01916238 -0.01946474 -0.01975123 1000
lala 6 1.2 1 second 17 1 134 6 6.780001 0.519997835159302 0 1 1 1 -0.01944768 -0.01952495 -0.01925055 -0.01915919 -0.01928022 1000 -0.01944768 -0.01952495 -0.01925055 -0.01915919 -0.01928022 1000 -0.01853616 -0.01826793 -0.01796355 -0.01809668 -0.01756608 1000 -0.01853616 -0.01826793 -0.01796355 -0.01809668 -0.01756608 1000
lala 8 1.2 0 first 8 1 135 5 4.5 0.719997644424438 1 0 -1 1 -0.02015212 -0.02054086 -0.02038835 1000 1000 1000 -0.02015212 -0.02054086 -0.02038835 1000 1000 1000 -0.01825238 -0.01825351 -0.01810315 -0.01825506 -0.01820856 1000 -0.01825238 -0.01825351 -0.01810315 -0.01825506 -0.01820856 1000
lala 6 1.2 1 first 15 1 136 5 5.45 0.559997797012329 0 1 1 0 -0.02016221 -0.02056455 -0.02073874 1000 1000 1000 -0.02016221 -0.02056455 -0.02073874 1000 1000 1000 -0.0203289 -0.01988635 -0.01949846 -0.01931436 -0.01949357 1000 -0.0203289 -0.01988635 -0.01949846 -0.01931436 -0.01949357 1000
lala 12 0.15 1 second 1 1 137 4 5.77 1.73999691009521 -1 1 1 1 -0.01945317 -0.01995344 -0.0202358 -0.02021973 -0.02045947 1000 -0.01945317 -0.01995344 -0.0202358 -0.02021973 -0.02045947 1000 -0.02185067 -0.02172758 -0.02153867 -0.02140087 -0.0207845 1000 -0.02185067 -0.02172758 -0.02153867 -0.02140087 -0.0207845 1000
lala 7 1.2 1 second 17 1 138 6 5.580001 0.439997911453247 0 1 1 0 -0.02005734 -0.01958394 -0.01962011 -0.01950748 -0.01987152 1000 -0.02005734 -0.01958394 -0.01962011 -0.01950748 -0.01987152 1000 -0.02048796 -0.02037332 -0.020045 -0.01992616 -0.01954751 1000 -0.02048796 -0.02037332 -0.020045 -0.01992616 -0.01954751 1000
lala 9 1.2 1 second 16 1 139 6 6.36 0.39999794960022 0 0 1 1 -0.01877189 -0.01839862 -0.0183394 -0.0183653 -0.018682 1000 -0.01877189 -0.01839862 -0.0183394 -0.0183653 -0.018682 1000 -0.02064878 -0.0209274 -0.02121056 -0.02153183 -0.02141383 1000 -0.02064878 -0.0209274 -0.02121056 -0.02153183 -0.02141383 1000
lala 5 1.2 0 first 5 1 140 6 5.580001 0.439997911453247 -1 1 -1 0 -0.01949643 -0.01936718 -0.01878344 1000 1000 1000 -0.01949643 -0.01936718 -0.01878344 1000 1000 1000 -0.01907669 -0.01974455 -0.02012368 -0.0203815 -0.02045222 1000 -0.01907669 -0.01974455 -0.02012368 -0.0203815 -0.02045222 1000
lala 12 0.6 1 second 9 1 141 5 4.85 0.379997968673706 1 1 1 0 -0.02185692 -0.02138988 -0.02140989 -0.0209705 -0.02126098 1000 -0.02185692 -0.02138988 -0.02140989 -0.0209705 -0.02126098 1000 -0.02207578 -0.02204817 -0.0219475 -0.02188422 -0.0223001 1000 -0.02207578 -0.02204817 -0.0219475 -0.02188422 -0.0223001 1000
lala 9 1.2 1 second 8 1 142 5 5.7 0.539997816085815 1 0 1 0 -0.02581398 -0.02636705 -0.0262956 -0.02654075 -0.02635833 1000 -0.02581398 -0.02636705 -0.0262956 -0.02654075 -0.02635833 1000 -0.02644643 -0.02566649 -0.02550644 -0.02525601 -0.02483431 1000 -0.02644643 -0.02566649 -0.02550644 -0.02525601 -0.02483431 1000
lala 10 1.2 1 second 3 1 143 5 5.45 0.539997816085815 -1 1 1 0 -0.02202139 -0.02215347 -0.02252254 -0.02228699 -0.02229896 1000 -0.02202139 -0.02215347 -0.02252254 -0.02228699 -0.02229896 1000 -0.02309383 -0.02304999 -0.02313134 -0.02293348 -0.02269696 1000 -0.02309383 -0.02304999 -0.02313134 -0.02293348 -0.02269696 1000
lala 5 1.2 1 second 10 1 144 6 6.36 0.939997434616089 1 0 1 1 -0.02210136 -0.02166722 -0.02194618 -0.02183066 -0.02205239 1000 -0.02210136 -0.02166722 -0.02194618 -0.02183066 -0.02205239 1000 -0.02272079 -0.02281337 -0.02266799 -0.02252479 -0.02301862 1000 -0.02272079 -0.02281337 -0.02266799 -0.02252479 -0.02301862 1000
lala 6 1.2 0 first 2 1 145 5 6.9 0.61999773979187 -1 0 -1 0 -0.02240204 -0.02236092 -0.02219728 1000 1000 1000 -0.02240204 -0.02236092 -0.02219728 1000 1000 1000 -0.02206801 -0.02223962 -0.02241926 -0.02237024 -0.02265553 1000 -0.02206801 -0.02223962 -0.02241926 -0.02237024 -0.02265553 1000
lala 11 2.4 0 second 3 1 146 5 3.05 0.479997873306274 -1 1 -1 0 -0.02312818 -0.0232592 -0.02316429 -0.02304007 -0.02255372 1000 -0.02312818 -0.0232592 -0.02316429 -0.02304007 -0.02255372 1000 -0.0223593 -0.02252574 -0.02273141 -0.02300635 -0.02321635 1000 -0.0223593 -0.02252574 -0.02273141 -0.02300635 -0.02321635 1000
lala 8 1.2 1 first 11 1 147 6 4.380001 0.499997854232788 1 1 1 1 -0.02443275 -0.02430978 -0.02427231 1000 1000 1000 -0.02443275 -0.02430978 -0.02427231 1000 1000 1000 -0.0228378 -0.02293241 -0.02298298 -0.02320651 -0.0232232 1000 -0.0228378 -0.02293241 -0.02298298 -0.02320651 -0.0232232 1000
lala 13 0.15 1 first 4 1 148 6 7.11 0.559997797012329 -1 0 1 0 -0.02529459 -0.02543065 -0.0256182 1000 1000 1000 -0.02529459 -0.02543065 -0.0256182 1000 1000 1000 -0.02403058 -0.02352185 -0.02337864 -0.02316632 -0.02316665 1000 -0.02403058 -0.02352185 -0.02337864 -0.02316632 -0.02316665 1000
lala 10 0.6 0 second 8 1 149 5 5.1 0.779997587203979 1 0 -1 1 -0.02554111 -0.02550382 -0.0250927 -0.02513945 -0.02506313 1000 -0.02554111 -0.02550382 -0.0250927 -0.02513945 -0.02506313 1000 -0.02456195 -0.02440977 -0.02426044 -0.02409915 -0.02363822 1000 -0.02456195 -0.02440977 -0.02426044 -0.02409915 -0.02363822 1000
lala 13 0.3 1 second 6 1 150 4 5.340001 0.39999794960022 1 0 1 1 -0.02268685 -0.02267862 -0.02279774 -0.02264662 -0.02311989 1000 -0.02268685 -0.02267862 -0.02279774 -0.02264662 -0.02311989 1000 -0.0238385 -0.02363954 -0.02350587 -0.02338991 -0.02340294 1000 -0.0238385 -0.02363954 -0.02350587 -0.02338991 -0.02340294 1000
lala 6 1.2 1 second 5 1 151 6 6.780001 0.199998140335083 -1 1 1 0 -0.0227063 -0.02266038 -0.0227578 -0.02272122 -0.02274736 1000 -0.0227063 -0.02266038 -0.0227578 -0.02272122 -0.02274736 1000 -0.02423728 -0.0246466 -0.02460239 -0.02491195 -0.02509878 1000 -0.02423728 -0.0246466 -0.02460239 -0.02491195 -0.02509878 1000
lala 11 0.3 1 second 8 1 152 5 5.4 0.299998044967651 1 0 1 0 -0.02401495 -0.02365601 -0.02379587 -0.02379103 -0.0237179 1000 -0.02401495 -0.02365601 -0.02379587 -0.02379103 -0.0237179 1000 -0.02349594 -0.02341112 -0.02355418 -0.02359826 -0.02401393 1000 -0.02349594 -0.02341112 -0.02355418 -0.02359826 -0.02401393 1000
lala 8 1.2 0 second 17 1 153 6 4.380001 0.839997529983521 0 1 -1 1 -0.02375356 -0.02201469 -0.02050346 -0.02006123 -0.0198572 1000 -0.02375356 -0.02201469 -0.02050346 -0.02006123 -0.0198572 1000 -0.02049672 -0.02043559 -0.02030938 -0.02009843 -0.02027638 1000 -0.02049672 -0.02043559 -0.02030938 -0.02009843 -0.02027638 1000
lala 7 1.2 0 first 5 1 154 6 5.580001 0.339998006820679 -1 1 -1 1 -0.0224996 -0.02222131 -0.02222435 1000 1000 1000 -0.0224996 -0.02222131 -0.02222435 1000 1000 1000 -0.02132337 -0.02076097 -0.02079693 -0.02060024 -0.02082273 1000 -0.02132337 -0.02076097 -0.02079693 -0.02060024 -0.02082273 1000
lala 13 1.2 1 first 9 1 155 5 3.65 0.339998006820679 1 1 1 1 -0.02168724 -0.02165243 -0.02127221 1000 1000 1000 -0.02168724 -0.02165243 -0.02127221 1000 1000 1000 -0.02171409 -0.02186784 -0.02163941 -0.02165928 -0.02159137 1000 -0.02171409 -0.02186784 -0.02163941 -0.02165928 -0.02159137 1000
lala 12 1.2 0 first 3 1 156 5 4.25 0.299998044967651 -1 1 -1 0 -0.02094627 -0.02045335 -0.02053371 1000 1000 1000 -0.02094627 -0.02045335 -0.02053371 1000 1000 1000 -0.02189689 -0.02184635 -0.02143632 -0.02127283 -0.02084904 1000 -0.02189689 -0.02184635 -0.02143632 -0.02127283 -0.02084904 1000
lala 14 2.4 0 second 9 1 157 5 1.65 0.419997930526733 1 1 -1 1 -0.01860622 -0.01855255 -0.01843728 -0.01837517 -0.0186715 1000 -0.01860622 -0.01855255 -0.01843728 -0.01837517 -0.0186715 1000 -0.02054621 -0.0206297 -0.02064789 -0.02078413 -0.02078633 1000 -0.02054621 -0.0206297 -0.02064789 -0.02078413 -0.02078633 1000
lala 8 1.2 1 second 5 1 158 6 6.780001 0.459997892379761 -1 1 1 0 -0.01967231 -0.01916532 -0.01896533 -0.0190333 -0.01858773 1000 -0.01967231 -0.01916532 -0.01896533 -0.0190333 -0.01858773 1000 -0.01870792 -0.01895463 -0.0193966 -0.01972677 -0.02009487 1000 -0.01870792 -0.01895463 -0.0193966 -0.01972677 -0.02009487 1000
lala 15 1.2 0 first 9 1 159 5 2.85 0.379997968673706 1 1 -1 1 -0.02103494 -0.02074616 -0.02076373 1000 1000 1000 -0.02103494 -0.02074616 -0.02076373 1000 1000 1000 -0.01916046 -0.01907691 -0.01894384 -0.01872632 -0.01904003 1000 -0.01916046 -0.01907691 -0.01894384 -0.01872632 -0.01904003 1000
lala 8 1.2 0 first 13 1 160 4 4.12 0.859997510910034 0 1 -1 1 -0.0211127 -0.02105963 -0.02125786 1000 1000 1000 -0.0211127 -0.02105963 -0.02125786 1000 1000 1000 -0.01931703 -0.01882921 -0.01884236 -0.01895164 -0.01891408 1000 -0.01931703 -0.01882921 -0.01884236 -0.01895164 -0.01891408 1000
lala 14 0.15 1 first 4 1 161 6 6.96 0.699997663497925 -1 0 1 0 -0.02136701 -0.02150391 -0.02133691 1000 1000 1000 -0.02136701 -0.02150391 -0.02133691 1000 1000 1000 -0.02040917 -0.02022454 -0.02033663 -0.0203022 -0.02019597 1000 -0.02040917 -0.02022454 -0.02033663 -0.0203022 -0.02019597 1000
lala 15 0.15 1 first 4 1 162 6 6.809999 0.699997663497925 -1 0 1 0 -0.02029898 -0.02046026 -0.0204788 1000 1000 1000 -0.02029898 -0.02046026 -0.0204788 1000 1000 1000 -0.02001137 -0.01916617 -0.01916196 -0.01892364 -0.01923998 1000 -0.02001137 -0.01916617 -0.01916196 -0.01892364 -0.01923998 1000
lala 10 0.6 1 first 16 1 163 6 5.76 0.559997797012329 0 0 1 0 -0.01910372 -0.01877422 -0.01911094 1000 1000 1000 -0.01910372 -0.01877422 -0.01911094 1000 1000 1000 -0.0218245 -0.02162697 -0.02134345 -0.02122171 -0.02137765 1000 -0.0218245 -0.02162697 -0.02134345 -0.02122171 -0.02137765 1000
lala 6 1.2 0 first 10 1 164 6 5.16 0.599997758865356 1 0 -1 1 -0.01997479 -0.01970765 -0.01921293 1000 1000 1000 -0.01997479 -0.01970765 -0.01921293 1000 1000 1000 -0.02058766 -0.02077122 -0.02066416 -0.02108494 -0.0216712 1000 -0.02058766 -0.02077122 -0.02066416 -0.02108494 -0.0216712 1000
lala 13 0.075 1 first 1 1 165 4 5.695 0.479997873306274 -1 1 1 1 -0.02157254 -0.02133206 -0.02128634 1000 1000 1000 -0.02157254 -0.02133206 -0.02128634 1000 1000 1000 -0.02071996 -0.02114502 -0.02146356 -0.02148155 -0.02119228 1000 -0.02071996 -0.02114502 -0.02146356 -0.02148155 -0.02119228 1000
lala 11 0.6 1 first 16 1 166 6 5.16 1.07999730110168 0 0 1 0 -0.02293608 -0.02250904 -0.02184285 1000 1000 1000 -0.02293608 -0.02250904 -0.02184285 1000 1000 1000 -0.02112176 -0.02146462 -0.02122167 -0.0217654 -0.02203185 1000 -0.02112176 -0.02146462 -0.02122167 -0.0217654 -0.02203185 1000
lala 7 1.2 1 second 10 1 167 6 6.36 0.439997911453247 1 0 1 1 -0.02223789 -0.02205051 -0.0221591 -0.02190221 -0.02203912 1000 -0.02223789 -0.02205051 -0.0221591 -0.02190221 -0.02203912 1000 -0.02128149 -0.02146658 -0.02196918 -0.02212155 -0.02254325 1000 -0.02128149 -0.02146658 -0.02196918 -0.02212155 -0.02254325 1000
lala 7 1.2 1 second 0 1 168 4 7.44 0.419997930526733 -1 0 1 0 -0.02544116 -0.02509266 -0.02517985 -0.02472295 -0.02480881 1000 -0.02544116 -0.02509266 -0.02517985 -0.02472295 -0.02480881 1000 -0.0245827 -0.02434734 -0.02384897 -0.02376146 -0.02365041 1000 -0.0245827 -0.02434734 -0.02384897 -0.02376146 -0.02365041 1000
lala 7 1.2 1 second 2 1 169 5 8.099999 0.459997892379761 -1 0 1 0 -0.02447515 -0.0242775 -0.02464123 -0.02455187 -0.02473798 1000 -0.02447515 -0.0242775 -0.02464123 -0.02455187 -0.02473798 1000 -0.02493808 -0.02512684 -0.02472424 -0.02470569 -0.02457123 1000 -0.02493808 -0.02512684 -0.02472424 -0.02470569 -0.02457123 1000
lala 12 0.15 0 first 8 1 170 5 5.25 0.479997873306274 1 0 -1 0 -0.02445349 -0.02428798 -0.0239203 1000 1000 1000 -0.02445349 -0.02428798 -0.0239203 1000 1000 1000 -0.02458178 -0.02483317 -0.02462726 -0.02476719 -0.02471894 1000 -0.02458178 -0.02483317 -0.02462726 -0.02476719 -0.02471894 1000
lala 9 1.2 1 second 13 1 171 4 5.32 0.579997777938843 0 1 1 0 -0.02120835 -0.01872462 -0.01778677 -0.01673083 -0.01564537 1000 -0.02120835 -0.01872462 -0.01778677 -0.01673083 -0.01564537 1000 -0.01489429 -0.01544267 -0.0154885 -0.0156459 -0.01573255 1000 -0.01489429 -0.01544267 -0.0154885 -0.0156459 -0.01573255 1000
lala 12 0.6 0 second 16 1 172 6 4.56 0.539997816085815 0 0 -1 0 -0.01604566 -0.01598505 -0.01584672 -0.01592112 -0.01575319 1000 -0.01604566 -0.01598505 -0.01584672 -0.01592112 -0.01575319 1000 -0.01649134 -0.01666071 -0.01717537 -0.01760799 -0.01793426 1000 -0.01649134 -0.01666071 -0.01717537 -0.01760799 -0.01793426 1000
lala 13 1.2 0 first 3 1 173 5 5.45 0.439997911453247 -1 1 -1 1 -0.01853958 -0.01876589 -0.01869309 1000 1000 1000 -0.01853958 -0.01876589 -0.01869309 1000 1000 1000 -0.01803729 -0.01816543 -0.01830109 -0.01893074 -0.01915343 1000 -0.01803729 -0.01816543 -0.01830109 -0.01893074 -0.01915343 1000
lala 14 0.15 0 second 6 1 174 4 5.190001 0.39999794960022 1 0 -1 1 -0.01941902 -0.01908404 -0.01905889 -0.01888325 -0.01870964 1000 -0.01941902 -0.01908404 -0.01905889 -0.01888325 -0.01870964 1000 -0.01784837 -0.01843936 -0.01858891 -0.01881911 -0.01911941 1000 -0.01784837 -0.01843936 -0.01858891 -0.01881911 -0.01911941 1000
lala 16 0.3 0 first 4 1 175 6 6.509999 0.439997911453247 -1 0 -1 1 -0.02008748 -0.01974248 -0.01971453 1000 1000 1000 -0.02008748 -0.01974248 -0.01971453 1000 1000 1000 -0.01779804 -0.01757705 -0.01757668 -0.01785929 -0.01835741 1000 -0.01779804 -0.01757705 -0.01757668 -0.01785929 -0.01835741 1000
lala 17 0.15 1 first 4 1 176 6 6.659999 0.519997835159302 -1 0 1 0 -0.02002703 -0.02038603 -0.02062212 1000 1000 1000 -0.02002703 -0.02038603 -0.02062212 1000 1000 1000 -0.02041009 -0.02033154 -0.01984129 -0.0197954 -0.01997062 1000 -0.02041009 -0.02033154 -0.01984129 -0.0197954 -0.01997062 1000
lala 6 1.2 0 first 7 1 177 4 4.12 0.479997873306274 1 1 -1 0 -0.02021878 -0.02027789 -0.01989027 1000 1000 1000 -0.02021878 -0.02027789 -0.01989027 1000 1000 1000 -0.01646156 -0.01601109 -0.01604508 -0.01621878 -0.01664132 1000 -0.01646156 -0.01601109 -0.01604508 -0.01621878 -0.01664132 1000
lala 16 1.2 0 first 9 1 178 5 4.05 0.579997777938843 1 1 -1 1 -0.01623159 -0.01597792 -0.01600512 1000 1000 1000 -0.01623159 -0.01597792 -0.01600512 1000 1000 1000 -0.01795368 -0.01792949 -0.0175575 -0.01735855 -0.0173462 1000 -0.01795368 -0.01792949 -0.0175575 -0.01735855 -0.0173462 1000
lala 15 0.075 1 first 6 1 179 4 5.265 0.459997892379761 1 0 1 1 -0.01765951 -0.01710139 -0.01671097 1000 1000 1000 -0.01765951 -0.01710139 -0.01671097 1000 1000 1000 -0.01825392 -0.01873376 -0.01892675 -0.01903659 -0.0190012 1000 -0.01825392 -0.01873376 -0.01892675 -0.01903659 -0.0190012 1000
lala 7 1.2 1 first 7 1 180 4 5.32 0.39999794960022 1 1 1 0 -0.01841679 -0.01851364 -0.01826577 1000 1000 1000 -0.01841679 -0.01851364 -0.01826577 1000 1000 1000 -0.01641064 -0.01657742 -0.01666057 -0.01744115 -0.01757337 1000 -0.01641064 -0.01657742 -0.01666057 -0.01744115 -0.01757337 1000
lala 17 1.2 1 first 9 1 181 5 5.25 1.0999972820282 1 1 1 1 -0.01880933 -0.01901199 -0.01870595 1000 1000 1000 -0.01880933 -0.01901199 -0.01870595 1000 1000 1000 -0.01583542 -0.01553463 -0.015905 -0.01574612 -0.01561504 1000 -0.01583542 -0.01553463 -0.015905 -0.01574612 -0.01561504 1000
lala 14 0.075 0 first 1 1 182 4 5.62 0.499997854232788 -1 1 -1 0 -0.01843848 -0.01821497 -0.01808862 1000 1000 1000 -0.01843848 -0.01821497 -0.01808862 1000 1000 1000 -0.01573592 -0.0156803 -0.01567275 -0.01595903 -0.01633577 1000 -0.01573592 -0.0156803 -0.01567275 -0.01595903 -0.01633577 1000
lala 15 0.0375 1 second 1 1 183 4 5.6575 0.339998006820679 -1 1 1 0 -0.01845083 -0.01825858 -0.01816171 -0.01781901 -0.01797612 1000 -0.01845083 -0.01825858 -0.01816171 -0.01781901 -0.01797612 1000 -0.01661466 -0.01640027 -0.01568227 -0.01558879 -0.01518369 1000 -0.01661466 -0.01640027 -0.01568227 -0.01558879 -0.01518369 1000
lala 13 0.075 1 second 8 1 184 5 5.325 0.459997892379761 1 0 1 1 -0.01718522 -0.01715956 -0.01705568 -0.01743931 -0.01761128 1000 -0.01718522 -0.01715956 -0.01705568 -0.01743931 -0.01761128 1000 -0.01686024 -0.01654108 -0.01669833 -0.01615712 -0.01620648 1000 -0.01686024 -0.01654108 -0.01669833 -0.01615712 -0.01620648 1000
lala 14 0.0375 1 first 8 1 185 5 5.2875 0.459997892379761 1 0 1 0 -0.01520503 -0.01489235 -0.01473971 1000 1000 1000 -0.01520503 -0.01489235 -0.01473971 1000 1000 1000 -0.01684085 -0.01655115 -0.01653008 -0.01666386 -0.01669708 1000 -0.01684085 -0.01655115 -0.01653008 -0.01666386 -0.01669708 1000
lala 8 1.2 1 second 0 1 186 4 6.24 0.579997777938843 -1 0 1 1 -0.01583523 -0.01544797 -0.01489792 -0.01486969 -0.01423116 1000 -0.01583523 -0.01544797 -0.01489792 -0.01486969 -0.01423116 1000 -0.01676779 -0.01686733 -0.01699585 -0.01648415 -0.01656056 1000 -0.01676779 -0.01686733 -0.01699585 -0.01648415 -0.01656056 1000
lala 10 0.6 0 second 13 1 187 4 4.72 0.479997873306274 0 1 -1 1 -0.01567606 -0.01569058 -0.01564232 -0.0156485 -0.01544914 1000 -0.01567606 -0.01569058 -0.01564232 -0.0156485 -0.01544914 1000 -0.01480645 -0.01437931 -0.01475832 -0.01502964 -0.01535275 1000 -0.01480645 -0.01437931 -0.01475832 -0.01502964 -0.01535275 1000
lala 9 1.2 0 second 11 1 188 6 3.180001 0.539997816085815 1 1 -1 1 -0.01771832 -0.01723121 -0.01724399 -0.01676398 -0.0168364 1000 -0.01771832 -0.01723121 -0.01724399 -0.01676398 -0.0168364 1000 -0.01621143 -0.01641252 -0.01637675 -0.0161425 -0.01620194 1000 -0.01621143 -0.01641252 -0.01637675 -0.0161425 -0.01620194 1000
lala 6 1.2 1 second 14 1 189 5 6.9 0.539997816085815 0 0 1 0 -0.01722467 -0.01753759 -0.01776272 -0.01784284 -0.01795352 1000 -0.01722467 -0.01753759 -0.01776272 -0.01784284 -0.01795352 1000 -0.0167992 -0.01695137 -0.01689016 -0.01713924 -0.01705667 1000 -0.0167992 -0.01695137 -0.01689016 -0.01713924 -0.01705667 1000
lala 8 1.2 1 second 2 1 190 5 6.9 0.479997873306274 -1 0 1 0 -0.0138351 -0.01389206 -0.01382611 -0.01432659 -0.01507972 1000 -0.0138351 -0.01389206 -0.01382611 -0.01432659 -0.01507972 1000 -0.01636867 -0.01659373 -0.01686037 -0.01683261 -0.0162807 1000 -0.01636867 -0.01659373 -0.01686037 -0.01683261 -0.0162807 1000
lala 11 0.3 0 first 12 1 191 4 2.94 0.439997911453247 0 0 -1 0 -0.01486815 -0.01477519 -0.01512374 1000 1000 1000 -0.01486815 -0.01477519 -0.01512374 1000 1000 1000 -0.01674065 -0.01685198 -0.0170203 -0.01684757 -0.01729696 1000 -0.01674065 -0.01685198 -0.0170203 -0.01684757 -0.01729696 1000
lala 11 0.3 1 second 13 1 192 4 5.02 0.379997968673706 0 1 1 1 -0.01714486 -0.01707332 -0.01696859 -0.01665696 -0.01647775 1000 -0.01714486 -0.01707332 -0.01696859 -0.01665696 -0.01647775 1000 -0.01507975 -0.01522361 -0.01531844 -0.01553291 -0.01573768 1000 -0.01507975 -0.01522361 -0.01531844 -0.01553291 -0.01573768 1000
lala 13 0.3 0 first 16 1 193 6 4.86 0.699997663497925 0 0 -1 1 -0.0169946 -0.01680497 -0.01721769 1000 1000 1000 -0.0169946 -0.01680497 -0.01721769 1000 1000 1000 -0.01512756 -0.01536167 -0.01535242 -0.01510679 -0.01483759 1000 -0.01512756 -0.01536167 -0.01535242 -0.01510679 -0.01483759 1000
lala 9 1.2 1 second 5 1 194 6 5.580001 0.599997758865356 -1 1 1 1 -0.01454008 -0.01403864 -0.01402909 -0.01386505 -0.01301699 1000 -0.01454008 -0.01403864 -0.01402909 -0.01386505 -0.01301699 1000 0.004893883 0.006274586 0.007128204 0.007901355 0.008353578 1000 0.004893883 0.006274586 0.007128204 0.007901355 0.008353578 1000
lala 8 1.2 1 first 10 1 195 6 5.16 0.479997873306274 1 0 1 0 0.009168934 0.00902296 0.009006731 1000 1000 1000 0.009168934 0.00902296 0.009006731 1000 1000 1000 0.007795183 0.007764101 0.007976236 0.007965701 0.007656248 1000 0.007795183 0.007764101 0.007976236 0.007965701 0.007656248 1000
lala 9 1.2 1 second 17 1 196 6 5.580001 0.39999794960022 0 1 1 0 0.004386184 0.003896294 0.003933351 0.003867511 0.004039402 1000 0.004386184 0.003896294 0.003933351 0.003867511 0.004039402 1000 0.002957206 0.003282096 0.002979568 0.002800875 0.002561571 1000 0.002957206 0.003282096 0.002979568 0.002800875 0.002561571 1000
lala 9 1.2 1 second 2 1 197 5 5.7 0.319998025894165 -1 0 1 1 0.002122866 0.00161205 0.001626275 0.00151589 0.001983383 1000 0.002122866 0.00161205 0.001626275 0.00151589 0.001983383 1000 8.247075E-05 -0.0005389642 -0.001244485 -0.001299962 -0.001258501 1000 8.247075E-05 -0.0005389642 -0.001244485 -0.001299962 -0.001258501 1000
lala 9 1.2 0 second 10 1 198 6 3.96 0.23999810218811 1 0 -1 1 -0.003158662 -0.002800409 -0.002799709 -0.002714185 -0.00310795 1000 -0.003158662 -0.002800409 -0.002799709 -0.002714185 -0.00310795 1000 -0.005146247 -0.005114968 -0.004509832 -0.004340521 -0.003733747 1000 -0.005146247 -0.005114968 -0.004509832 -0.004340521 -0.003733747 1000
lala 12 0.15 0 second 12 1 199 4 3.09 0.359997987747192 0 0 -1 1 -0.005562531 -0.005413339 -0.00525327 -0.005525469 -0.005902376 1000 -0.005562531 -0.005413339 -0.00525327 -0.005525469 -0.005902376 1000 -0.005593512 -0.005252072 -0.00478372 -0.005316864 -0.005513062 1000 -0.005593512 -0.005252072 -0.00478372 -0.005316864 -0.005513062 1000
lala 18 0.6 0 second 9 1 200 5 4.65 0.379997968673706 1 1 -1 1 -0.005895903 -0.005179524 -0.004763346 -0.004364244 -0.004552155 1000 -0.005895903 -0.005179524 -0.004763346 -0.004364244 -0.004552155 1000 -0.00643036 -0.006529122 -0.006309744 -0.006264789 -0.006349945 1000 -0.00643036 -0.006529122 -0.006309744 -0.006264789 -0.006349945 1000
lala 15 0.0375 1 first 8 1 201 5 5.25 0.839997529983521 1 0 1 1 -0.007545494 -0.007640004 -0.007060995 1000 1000 1000 -0.007545494 -0.007640004 -0.007060995 1000 1000 1000 -0.007066082 -0.007449523 -0.007954606 -0.008422349 -0.008519952 1000 -0.007066082 -0.007449523 -0.007954606 -0.008422349 -0.008519952 1000
lala 14 0.3 1 second 16 1 202 6 5.16 0.39999794960022 0 0 1 1 -0.009384976 -0.009512155 -0.009728116 -0.00994001 -0.009929822 1000 -0.009384976 -0.009512155 -0.009728116 -0.00994001 -0.009929822 1000 -0.009345034 -0.009946354 -0.01009956 -0.01041664 -0.01029615 1000 -0.009345034 -0.009946354 -0.01009956 -0.01041664 -0.01029615 1000
lala 10 0.6 1 second 17 1 203 6 4.980001 0.599997758865356 0 1 1 1 -0.01138958 -0.01115892 -0.01099216 -0.01051284 -0.01042126 1000 -0.01138958 -0.01115892 -0.01099216 -0.01051284 -0.01042126 1000 -0.009446458 -0.009600726 -0.009599754 -0.009326528 -0.008975875 1000 -0.009446458 -0.009600726 -0.009599754 -0.009326528 -0.008975875 1000
lala 10 0.6 0 second 11 1 204 6 3.780001 0.719997644424438 1 1 -1 0 -0.01068765 -0.01042553 -0.01093125 -0.01134916 -0.01165325 1000 -0.01068765 -0.01042553 -0.01093125 -0.01134916 -0.01165325 1000 -0.01061503 -0.01083083 -0.01071762 -0.01093142 -0.01098873 1000 -0.01061503 -0.01083083 -0.01071762 -0.01093142 -0.01098873 1000
lala 7 1.2 1 second 14 1 205 5 5.7 0.499997854232788 0 0 1 0 -0.01093008 -0.01075375 -0.0107981 -0.01122001 -0.0117893 1000 -0.01093008 -0.01075375 -0.0107981 -0.01122001 -0.0117893 1000 -0.0123397 -0.0120402 -0.01133877 -0.01110396 -0.0106284 1000 -0.0123397 -0.0120402 -0.01133877 -0.01110396 -0.0106284 1000
lala 18 0.075 0 first 4 1 206 6 6.585 0.419997930526733 -1 0 -1 1 -0.009554935 -0.009490071 -0.009298799 1000 1000 1000 -0.009554935 -0.009490071 -0.009298799 1000 1000 1000 -0.01127186 -0.01110726 -0.01114799 -0.01136955 -0.01202028 1000 -0.01127186 -0.01110726 -0.01114799 -0.01136955 -0.01202028 1000
lala 16 0.0375 1 second 6 1 207 4 5.2275 1.23999714851379 1 0 1 0 -0.01047297 -0.01044655 -0.009992475 -0.009684318 -0.00919423 1000 -0.01047297 -0.01044655 -0.009992475 -0.009684318 -0.00919423 1000 -0.007062186 -0.007706316 -0.008077589 -0.008518049 -0.009021656 1000 -0.007062186 -0.007706316 -0.008077589 -0.008518049 -0.009021656 1000
lala 17 0.0375 0 second 6 1 208 4 5.190001 0.99999737739563 1 0 -1 0 -0.009111864 -0.009247674 -0.008595742 -0.008760446 -0.008988338 1000 -0.009111864 -0.009247674 -0.008595742 -0.008760446 -0.008988338 1000 -0.009453142 -0.009887557 -0.01003145 -0.01066856 -0.01055753 1000 -0.009453142 -0.009887557 -0.01003145 -0.01066856 -0.01055753 1000
lala 16 0.0375 1 first 8 1 209 5 5.2125 0.459997892379761 1 0 1 1 -0.01036258 -0.01071979 -0.01089107 1000 1000 1000 -0.01036258 -0.01071979 -0.01089107 1000 1000 1000 -0.009566417 -0.009708588 -0.009814214 -0.01069889 -0.01115852 1000 -0.009566417 -0.009708588 -0.009814214 -0.01069889 -0.01115852 1000
lala 10 1.2 1 first 5 1 210 6 4.380001 1.0999972820282 -1 1 1 0 -0.01378352 -0.01391713 -0.01377765 1000 1000 1000 -0.01378352 -0.01391713 -0.01377765 1000 1000 1000 -0.01166735 -0.01122309 -0.01111342 -0.01106921 -0.01096755 1000 -0.01166735 -0.01122309 -0.01111342 -0.01106921 -0.01096755 1000
lala 14 1.2 1 first 3 1 211 5 6.65 0.379997968673706 -1 1 1 0 -0.01121447 -0.01168104 -0.01185917 1000 1000 1000 -0.01121447 -0.01168104 -0.01185917 1000 1000 1000 -0.01144644 -0.01122156 -0.01087466 -0.01099382 -0.01081963 1000 -0.01144644 -0.01122156 -0.01087466 -0.01099382 -0.01081963 1000
lala 8 1.2 0 second 14 1 212 5 4.5 1.05999732017517 0 0 -1 0 -0.01325308 -0.01372997 -0.01381308 -0.01332217 -0.01300891 1000 -0.01325308 -0.01372997 -0.01381308 -0.01332217 -0.01300891 1000 -0.01095327 -0.01012891 -0.009703666 -0.0096823 -0.01005481 1000 -0.01095327 -0.01012891 -0.009703666 -0.0096823 -0.01005481 1000
lala 19 0.0375 1 second 4 1 213 6 6.622499 0.319998025894165 -1 0 1 0 -0.01270943 -0.01345164 -0.01385622 -0.01373953 -0.01388985 1000 -0.01270943 -0.01345164 -0.01385622 -0.01373953 -0.01388985 1000 -0.01492956 -0.01511689 -0.01526325 -0.01510105 -0.01455719 1000 -0.01492956 -0.01511689 -0.01526325 -0.01510105 -0.01455719 1000
lala 17 0.075 1 second 8 1 214 5 5.1375 0.379997968673706 1 0 1 1 -0.01381034 -0.01363799 -0.01318444 -0.0132786 -0.01277651 1000 -0.01381034 -0.01363799 -0.01318444 -0.0132786 -0.01277651 1000 -0.01663417 -0.01610397 -0.01565227 -0.01519087 -0.01528641 1000 -0.01663417 -0.01610397 -0.01565227 -0.01519087 -0.01528641 1000
lala 15 0.15 0 second 16 1 215 6 5.01 0.339998006820679 0 0 -1 1 -0.01527121 -0.0150523 -0.01487397 -0.01474029 -0.0145131 1000 -0.01527121 -0.0150523 -0.01487397 -0.01474029 -0.0145131 1000 -0.01272704 -0.0125896 -0.01267376 -0.01301825 -0.01254529 1000 -0.01272704 -0.0125896 -0.01267376 -0.01301825 -0.01254529 1000
lala 20 0.01875 1 second 4 1 216 6 6.603749 0.39999794960022 -1 0 1 0 -0.01478245 -0.01437963 -0.01397819 -0.01436994 -0.01456275 1000 -0.01478245 -0.01437963 -0.01397819 -0.01436994 -0.01456275 1000 -0.01300648 -0.01285539 -0.01272976 -0.01276221 -0.01245569 1000 -0.01300648 -0.01285539 -0.01272976 -0.01276221 -0.01245569 1000
lala 21 0.01875 1 second 4 1 217 6 6.584999 0.419997930526733 -1 0 1 0 -0.01611379 -0.01569416 -0.01583993 -0.0160393 -0.01612358 1000 -0.01611379 -0.01569416 -0.01583993 -0.0160393 -0.01612358 1000 -0.01517167 -0.01443399 -0.0144999 -0.01447037 -0.01457028 1000 -0.01517167 -0.01443399 -0.0144999 -0.01447037 -0.01457028 1000
lala 11 0.6 0 first 11 1 218 6 4.380001 0.39999794960022 1 1 -1 0 -0.0158772 -0.01604899 -0.01636493 1000 1000 1000 -0.0158772 -0.01604899 -0.01636493 1000 1000 1000 -0.01596801 -0.01564906 -0.01595591 -0.01621928 -0.01637863 1000 -0.01596801 -0.01564906 -0.01595591 -0.01621928 -0.01637863 1000
lala 11 2.4 0 second 5 1 219 6 1.980001 0.379997968673706 -1 1 -1 0 -0.01519205 -0.01518614 -0.01516848 -0.0153167 -0.01569981 1000 -0.01519205 -0.01518614 -0.01516848 -0.0153167 -0.01569981 1000 -0.0177112 -0.01815272 -0.01822731 -0.01825775 -0.01794947 1000 -0.0177112 -0.01815272 -0.01822731 -0.01825775 -0.01794947 1000
lala 7 1.2 0 second 15 1 220 5 4.25 0.379997968673706 0 1 -1 0 -0.0172103 -0.01677821 -0.01703331 -0.01690104 -0.01701674 1000 -0.0172103 -0.01677821 -0.01703331 -0.01690104 -0.01701674 1000 -0.0171434 -0.01763932 -0.01773486 -0.01750867 -0.01745509 1000 -0.0171434 -0.01763932 -0.01773486 -0.01750867 -0.01745509 1000
lala 18 0.01875 0 second 6 1 221 4 5.208751 0.599997758865356 1 0 -1 1 -0.01686338 -0.01639665 -0.01581037 -0.01602084 -0.01589337 1000 -0.01686338 -0.01639665 -0.01581037 -0.01602084 -0.01589337 1000 -0.01438488 -0.01387369 -0.01348777 -0.0131239 -0.01306666 1000 -0.01438488 -0.01387369 -0.01348777 -0.0131239 -0.01306666 1000
lala 12 0.6 0 first 11 1 222 6 4.980001 0.679997682571411 1 1 -1 0 -0.01698764 -0.01726811 -0.01694414 1000 1000 1000 -0.01698764 -0.01726811 -0.01694414 1000 1000 1000 -0.01640148 -0.01548157 -0.01439683 -0.01481012 -0.01520955 1000 -0.01640148 -0.01548157 -0.01439683 -0.01481012 -0.01520955 1000
lala 12 0.15 1 second 13 1 223 4 4.87 0.39999794960022 0 1 1 0 -0.01722378 -0.01719594 -0.01763556 -0.0176137 -0.01755676 1000 -0.01722378 -0.01719594 -0.01763556 -0.0176137 -0.01755676 1000 -0.01700905 -0.01698965 -0.01662466 -0.016991 -0.0172106 1000 -0.01700905 -0.01698965 -0.01662466 -0.016991 -0.0172106 1000
lala 11 0.6 0 second 17 1 224 6 4.380001 0.539997816085815 0 1 -1 0 -0.01681421 -0.0166715 -0.01651732 -0.01634101 -0.01599446 1000 -0.01681421 -0.0166715 -0.01651732 -0.01634101 -0.01599446 1000 -0.01838066 -0.01812278 -0.01804685 -0.01807821 -0.01815938 1000 -0.01838066 -0.01812278 -0.01804685 -0.01807821 -0.01815938 1000
lala 9 1.2 1 first 14 1 225 5 5.7 0.479997873306274 0 0 1 0 -0.01546787 -0.01396423 -0.01361688 1000 1000 1000 -0.01546787 -0.01396423 -0.01361688 1000 1000 1000 -0.01521762 -0.01572666 -0.01647153 -0.01648804 -0.01561841 1000 -0.01521762 -0.01572666 -0.01647153 -0.01648804 -0.01561841 1000
lala 12 1.2 0 second 5 1 226 6 3.180001 0.379997968673706 -1 1 -1 0 -0.01130328 -0.01074716 -0.01048658 -0.01011915 -0.01026246 1000 -0.01130328 -0.01074716 -0.01048658 -0.01011915 -0.01026246 1000 -0.01070109 -0.01155008 -0.01195564 -0.01254921 -0.01305636 1000 -0.01070109 -0.01155008 -0.01195564 -0.01254921 -0.01305636 1000
lala 22 0.01875 1 first 4 1 227 6 6.566249 0.339998006820679 -1 0 1 1 -0.01346002 -0.01370796 -0.01380519 1000 1000 1000 -0.01346002 -0.01370796 -0.01380519 1000 1000 1000 -0.01239961 -0.0121515 -0.011887 -0.01189034 -0.01188113 1000 -0.01239961 -0.0121515 -0.011887 -0.01189034 -0.01188113 1000
lala 12 0.3 0 second 17 1 228 6 4.680001 1.63999700546265 0 1 -1 1 -0.01382039 -0.01389577 -0.01388772 -0.01396471 -0.01385228 1000 -0.01382039 -0.01389577 -0.01388772 -0.01396471 -0.01385228 1000 -0.01189405 -0.01150952 -0.01151072 -0.01119001 -0.01106289 1000 -0.01189405 -0.01150952 -0.01151072 -0.01119001 -0.01106289 1000
lala 16 0.075 1 second 16 1 229 6 5.085 0.519997835159302 0 0 1 1 -0.01088265 -0.01072919 -0.01093947 -0.01113937 -0.01109882 1000 -0.01088265 -0.01072919 -0.01093947 -0.01113937 -0.01109882 1000 -0.01108722 -0.01112576 -0.01110089 -0.01143379 -0.01148213 1000 -0.01108722 -0.01112576 -0.01110089 -0.01143379 -0.01148213 1000
lala 18 0.15 1 first 8 1 230 5 4.9875 2.21999645233154 1 0 1 0 -0.008842992 -0.008571891 -0.008134047 1000 1000 1000 -0.008842992 -0.008571891 -0.008134047 1000 1000 1000 -0.009131406 -0.009096636 -0.008934791 -0.008762582 -0.008773059 1000 -0.009131406 -0.009096636 -0.008934791 -0.008762582 -0.008773059 1000
lala 13 1.2 1 first 11 1 231 6 6.180001 0.199998140335083 1 1 1 0 -0.008537664 -0.008698888 -0.008323875 1000 1000 1000 -0.008537664 -0.008698888 -0.008323875 1000 1000 1000 -0.007796824 -0.007932336 -0.007832406 -0.007706654 -0.007397864 1000 -0.007796824 -0.007932336 -0.007832406 -0.007706654 -0.007397864 1000
lala 19 0.3 0 second 9 1 232 5 4.95 0.379997968673706 1 1 -1 1 -0.00606819 -0.006141462 -0.006500934 -0.006952656 -0.007500638 1000 -0.00606819 -0.006141462 -0.006500934 -0.006952656 -0.007500638 1000 -0.008302513 -0.00855484 -0.008713641 -0.008878697 -0.008576002 1000 -0.008302513 -0.00855484 -0.008713641 -0.008878697 -0.008576002 1000
lala 13 0.15 1 first 13 1 233 4 4.72 0.299998044967651 0 1 1 1 -0.007250933 -0.007315331 -0.007268727 1000 1000 1000 -0.007250933 -0.007315331 -0.007268727 1000 1000 1000 -0.007415972 -0.007855468 -0.007853957 -0.007991347 -0.007888045 1000 -0.007415972 -0.007855468 -0.007853957 -0.007991347 -0.007888045 1000
lala 15 0.6 0 first 3 1 234 5 6.05 0.579997777938843 -1 1 -1 0 -0.00902102 -0.008668039 -0.008386045 1000 1000 1000 -0.00902102 -0.008668039 -0.008386045 1000 1000 1000 -0.006021336 -0.005612101 -0.005718641 -0.005531141 -0.005693144 1000 -0.006021336 -0.005612101 -0.005718641 -0.005531141 -0.005693144 1000
lala 8 1.2 1 first 7 1 235 4 4.12 0.719997644424438 1 1 1 0 -0.007849229 -0.008119176 -0.008285187 1000 1000 1000 -0.007849229 -0.008119176 -0.008285187 1000 1000 1000 -0.006361436 -0.006570506 -0.006381631 -0.006013345 -0.005498573 1000 -0.006361436 -0.006570506 -0.006381631 -0.006013345 -0.005498573 1000
lala 16 0.3 1 second 3 1 236 5 6.35 0.479997873306274 -1 1 1 0 -0.008934144 -0.009475869 -0.009583305 -0.009693339 -0.009261323 1000 -0.008934144 -0.009475869 -0.009583305 -0.009693339 -0.009261323 1000 -0.008446038 -0.008299528 -0.008610866 -0.008552838 -0.008438918 1000 -0.008446038 -0.008299528 -0.008610866 -0.008552838 -0.008438918 1000
lala 16 0.01875 1 second 1 1 237 4 5.63875 0.359997987747192 -1 1 1 1 -0.008695683 -0.009126472 -0.009165415 -0.00955243 -0.009668882 1000 -0.008695683 -0.009126472 -0.009165415 -0.00955243 -0.009668882 1000 -0.01228388 -0.01294253 -0.01290836 -0.012534 -0.01209903 1000 -0.01228388 -0.01294253 -0.01290836 -0.012534 -0.01209903 1000
lala 17 0.15 1 first 3 1 238 5 6.2 1.49999690055847 -1 1 1 0 -0.009467456 -0.009007585 -0.008931646 1000 1000 1000 -0.009467456 -0.009007585 -0.008931646 1000 1000 1000 -0.01173617 -0.01203645 -0.01202677 -0.01212828 -0.01214982 1000 -0.01173617 -0.01203645 -0.01202677 -0.01212828 -0.01214982 1000
lala 13 0.15 0 second 12 1 239 4 3.24 0.879997491836548 0 0 -1 0 -0.008734425 -0.007798208 -0.007801386 -0.008071377 -0.007969982 1000 -0.008734425 -0.007798208 -0.007801386 -0.008071377 -0.007969982 1000 -0.01117674 -0.01134862 -0.01088428 -0.01117914 -0.01174363 1000 -0.01117674 -0.01134862 -0.01088428 -0.01117914 -0.01174363 1000
lala 19 0.3 0 first 8 1 240 5 4.6875 0.539997816085815 1 0 -1 1 -0.01112237 -0.01082967 -0.01047621 1000 1000 1000 -0.01112237 -0.01082967 -0.01047621 1000 1000 1000 -0.01319325 -0.01297667 -0.01284598 -0.0122516 -0.01278823 1000 -0.01319325 -0.01297667 -0.01284598 -0.0122516 -0.01278823 1000
lala 9 1.2 1 second 0 1 241 4 5.04 0.959997415542603 -1 0 1 0 -0.01111019 -0.01100788 -0.01089136 -0.0103373 -0.009799585 1000 -0.01111019 -0.01100788 -0.01089136 -0.0103373 -0.009799585 1000 -0.008765715 -0.009158292 -0.0095583 -0.01014872 -0.01034659 1000 -0.008765715 -0.009158292 -0.0095583 -0.01014872 -0.01034659 1000
lala 13 0.3 0 first 17 1 242 6 4.980001 0.419997930526733 0 1 -1 0 -0.009190648 -0.008507259 -0.008077232 1000 1000 1000 -0.009190648 -0.008507259 -0.008077232 1000 1000 1000 -0.008614177 -0.009070342 -0.009310856 -0.009694049 -0.009979054 1000 -0.008614177 -0.009070342 -0.009310856 -0.009694049 -0.009979054 1000
lala 17 0.01875 0 first 1 1 243 4 5.619999 0.599997758865356 -1 1 -1 1 -0.01143621 -0.01111907 -0.01086314 1000 1000 1000 -0.01143621 -0.01111907 -0.01086314 1000 1000 1000 -0.007032316 -0.00667443 -0.006140216 -0.00612003 -0.006168325 1000 -0.007032316 -0.00667443 -0.006140216 -0.00612003 -0.006168325 1000
lala 8 1.2 1 second 15 1 244 5 5.45 0.439997911453247 0 1 1 1 -0.008749783 -0.009067249 -0.009080721 -0.008766498 -0.008760261 1000 -0.008749783 -0.009067249 -0.009080721 -0.008766498 -0.008760261 1000 -0.008288275 -0.008351629 -0.008274942 -0.008407379 -0.008029019 1000 -0.008288275 -0.008351629 -0.008274942 -0.008407379 -0.008029019 1000
lala 13 1.2 1 second 5 1 245 6 4.380001 0.279998064041138 -1 1 1 0 -0.009640658 -0.009789711 -0.009574829 -0.009908356 -0.01017486 1000 -0.009640658 -0.009789711 -0.009574829 -0.009908356 -0.01017486 1000 -0.01045961 -0.009692506 -0.009329394 -0.008950472 -0.009156717 1000 -0.01045961 -0.009692506 -0.009329394 -0.008950472 -0.009156717 1000
lala 14 0.3 1 second 17 1 246 6 5.280002 0.219998121261597 0 1 1 1 -0.008574673 -0.008719447 -0.00878778 -0.008723815 -0.008381192 1000 -0.008574673 -0.008719447 -0.00878778 -0.008723815 -0.008381192 1000 -0.009519334 -0.009550828 -0.01056543 -0.01061312 -0.01035441 1000 -0.009519334 -0.009550828 -0.01056543 -0.01061312 -0.01035441 1000
lala 18 0.15 1 second 3 1 247 5 6.05 0.319998025894165 -1 1 1 1 -0.009327414 -0.009043022 -0.008811936 -0.00879109 -0.009154367 1000 -0.009327414 -0.009043022 -0.008811936 -0.00879109 -0.009154367 1000 -0.01103709 -0.01090515 -0.01123774 -0.01158594 -0.01181552 1000 -0.01103709 -0.01090515 -0.01123774 -0.01158594 -0.01181552 1000
lala 19 0.15 1 second 3 1 248 5 5.9 0.319998025894165 -1 1 1 0 -0.006697727 -0.005715006 -0.005497752 -0.005811269 -0.006566197 1000 -0.006697727 -0.005715006 -0.005497752 -0.005811269 -0.006566197 1000 -0.005851752 -0.005701024 -0.005851599 -0.005894809 -0.006271434 1000 -0.005851752 -0.005701024 -0.005851599 -0.005894809 -0.006271434 1000
lala 14 0.6 0 first 5 1 249 6 3.780001 0.559997797012329 -1 1 -1 0 -0.006499651 -0.006124882 -0.00572582 1000 1000 1000 -0.006499651 -0.006124882 -0.00572582 1000 1000 1000 -0.00571838 -0.005980738 -0.006509325 -0.006502357 -0.006562875 1000 -0.00571838 -0.005980738 -0.006509325 -0.006502357 -0.006562875 1000
lala 14 0.6 0 first 11 1 250 6 5.580001 0.319998025894165 1 1 -1 0 -0.007869185 -0.007748562 -0.007482543 -0.007317712 -0.00710187 -0.007162272 -0.007869185 -0.007748562 -0.007482543 -0.007317712 -0.00710187 -0.007162272 -0.005961528 -0.006126198 -0.006086613 -0.006294657 -0.006620453 1000 -0.005961528 -0.006126198 -0.006086613 -0.006294657 -0.006620453 1000
lala 15 0.3 0 first 5 1 251 6 4.080001 0.559997797012329 -1 1 -1 1 -0.008379655 -0.00818954 -0.008404135 1000 1000 1000 -0.008379655 -0.00818954 -0.008404135 1000 1000 1000 -0.007421337 -0.007371758 -0.00717614 -0.0068281 -0.006788625 1000 -0.007421337 -0.007371758 -0.00717614 -0.0068281 -0.006788625 1000
lala 10 2.4 0 second 0 1 252 4 2.64 0.299998044967651 -1 0 -1 0 -0.007153368 -0.006654189 -0.006845044 -0.007421735 -0.008005247 1000 -0.007153368 -0.006654189 -0.006845044 -0.007421735 -0.008005247 1000 -0.008685378 -0.008295438 -0.008398426 -0.008158537 -0.008577135 1000 -0.008685378 -0.008295438 -0.008398426 -0.008158537 -0.008577135 1000
lala 16 0.3 0 first 5 1 253 6 4.380002 0.319998025894165 -1 1 -1 1 -0.007564737 -0.00792158 -0.007978098 1000 1000 1000 -0.007564737 -0.00792158 -0.007978098 1000 1000 1000 -0.007831221 -0.007619797 -0.007779684 -0.00814872 -0.008288593 1000 -0.007831221 -0.007619797 -0.007779684 -0.00814872 -0.008288593 1000
lala 10 0.6 0 first 10 1 254 6 4.56 0.23999810218811 1 0 -1 0 -0.007095431 -0.006652655 -0.006157183 1000 1000 1000 -0.007095431 -0.006652655 -0.006157183 1000 1000 1000 -0.00594918 -0.006338063 -0.006622629 -0.006767898 -0.007241582 1000 -0.00594918 -0.006338063 -0.006622629 -0.006767898 -0.007241582 1000
lala 20 0.3 0 first 3 1 255 5 5.599999 0.339998006820679 -1 1 -1 0 -0.007611123 -0.007266657 -0.007130384 1000 1000 1000 -0.007611123 -0.007266657 -0.007130384 1000 1000 1000 -0.00718727 -0.007190631 -0.007527205 -0.007440771 -0.007635684 1000 -0.00718727 -0.007190631 -0.007527205 -0.007440771 -0.007635684 1000
lala 23 0.0375 1 second 4 1 256 6 6.528749 0.319998025894165 -1 0 1 1 -0.007633946 -0.007526521 -0.007462411 -0.007174311 -0.00720439 1000 -0.007633946 -0.007526521 -0.007462411 -0.007174311 -0.00720439 1000 -0.006404198 -0.006919387 -0.007108867 -0.007322863 -0.007473833 1000 -0.006404198 -0.006919387 -0.007108867 -0.007322863 -0.007473833 1000
lala 10 0.6 0 second 14 1 257 5 5.1 0.379997968673706 0 0 -1 0 -0.008537856 -0.008615162 -0.008435669 -0.008467093 -0.008677202 1000 -0.008537856 -0.008615162 -0.008435669 -0.008467093 -0.008677202 1000 -0.008956041 -0.009054339 -0.009089964 -0.008901943 -0.008707998 1000 -0.008956041 -0.009054339 -0.009089964 -0.008901943 -0.008707998 1000
lala 24 0.075 0 first 4 1 258 6 6.453749 0.159998178482056 -1 0 -1 0 -0.008899848 -0.00851969 -0.008529975 1000 1000 1000 -0.008899848 -0.00851969 -0.008529975 1000 1000 1000 -0.00845406 -0.00840087 -0.008018906 -0.008018585 -0.007997838 1000 -0.00845406 -0.00840087 -0.008018906 -0.008018585 -0.007997838 1000
lala 18 0.009375 1 first 1 1 259 4 5.629375 0.299998044967651 -1 1 1 1 -0.00660782 -0.006656926 -0.006513053 1000 1000 1000 -0.00660782 -0.006656926 -0.006513053 1000 1000 1000 -0.007554387 -0.007394074 -0.007509398 -0.008368555 -0.008884282 1000 -0.007554387 -0.007394074 -0.007509398 -0.008368555 -0.008884282 1000
lala 17 0.3 0 second 5 1 260 6 4.680002 0.23999810218811 -1 1 -1 1 -0.007306128 -0.00697858 -0.006507002 -0.006231437 -0.005861954 1000 -0.007306128 -0.00697858 -0.006507002 -0.006231437 -0.005861954 1000 -0.007468567 -0.007496089 -0.00781055 -0.00783517 -0.007708278 1000 -0.007468567 -0.007496089 -0.00781055 -0.00783517 -0.007708278 1000
lala 10 2.4 0 first 2 1 261 5 3.3 0.219998121261597 -1 0 -1 1 -0.007904628 -0.007277795 -0.007324665 1000 1000 1000 -0.007904628 -0.007277795 -0.007324665 1000 1000 1000 -0.006063855 -0.006227717 -0.006644836 -0.006696601 -0.007131612 1000 -0.006063855 -0.006227717 -0.006644836 -0.006696601 -0.007131612 1000
lala 25 0.0375 1 second 4 1 262 6 6.491249 0.259998083114624 -1 0 1 0 -0.008644062 -0.008546825 -0.008547223 -0.008402163 -0.008332483 1000 -0.008644062 -0.008546825 -0.008547223 -0.008402163 -0.008332483 1000 -0.007909213 -0.008251551 -0.008371446 -0.00841395 -0.008140693 1000 -0.007909213 -0.008251551 -0.008371446 -0.00841395 -0.008140693 1000
lala 17 0.0375 0 second 16 1 263 6 5.0475 3.83999490737915 0 0 -1 1 -0.00940495 -0.009399299 -0.009117259 -0.00865529 -0.008199464 1000 -0.00940495 -0.009399299 -0.009117259 -0.00865529 -0.008199464 1000 -0.008854259 -0.008788607 -0.008473502 -0.008043513 -0.007854539 1000 -0.008854259 -0.008788607 -0.008473502 -0.008043513 -0.007854539 1000
lala 19 0.01875 1 second 6 1 264 4 5.227501 1.23999714851379 1 0 1 0 -0.009561873 -0.009169594 -0.00913869 -0.009187215 -0.009257559 1000 -0.009561873 -0.009169594 -0.00913869 -0.009187215 -0.009257559 1000 -0.01046679 -0.01062222 -0.01011378 -0.01035383 -0.01068891 1000 -0.01046679 -0.01062222 -0.01011378 -0.01035383 -0.01068891 1000
lala 21 0.15 0 second 3 1 265 5 5.75 0.279998064041138 -1 1 -1 0 -0.008965177 -0.008923584 -0.008649007 -0.008827688 -0.008839017 1000 -0.008965177 -0.008923584 -0.008649007 -0.008827688 -0.008839017 1000 -0.01134079 -0.01115861 -0.01099423 -0.01072699 -0.01080762 1000 -0.01134079 -0.01115861 -0.01099423 -0.01072699 -0.01080762 1000
lala 18 0.6 0 first 5 1 266 6 5.280002 0.379997968673706 -1 1 -1 0 -0.01123569 -0.01130482 -0.01090015 1000 1000 1000 -0.01123569 -0.01130482 -0.01090015 1000 1000 1000 -0.01069743 -0.01068695 -0.0106298 -0.01098191 -0.01091477 1000 -0.01069743 -0.01068695 -0.0106298 -0.01098191 -0.01091477 1000
lala 9 1.2 0 second 7 1 267 4 2.92 2.11999654769897 1 1 -1 1 -0.01233273 -0.01188623 -0.01192509 -0.01216356 -0.01245047 1000 -0.01233273 -0.01188623 -0.01192509 -0.01216356 -0.01245047 1000 -0.01181151 -0.01137595 -0.01137939 -0.01160342 -0.01210071 1000 -0.01181151 -0.01137595 -0.01137939 -0.01160342 -0.01210071 1000
lala 20 0.009375 1 first 6 1 268 4 5.218126 0.499997854232788 1 0 1 0 -0.01568209 -0.01577433 -0.01564295 1000 1000 1000 -0.01568209 -0.01577433 -0.01564295 1000 1000 1000 -0.0172375 -0.01697892 -0.01662941 -0.01687151 -0.01726296 1000 -0.0172375 -0.01697892 -0.01662941 -0.01687151 -0.01726296 1000
lala 11 0.6 1 second 10 1 269 6 5.16 0.359997987747192 1 0 1 1 -0.01680767 -0.01682456 -0.01660487 -0.01633336 -0.01614076 1000 -0.01680767 -0.01682456 -0.01660487 -0.01633336 -0.01614076 1000 -0.01488092 -0.01519477 -0.01568694 -0.01661358 -0.01674786 1000 -0.01488092 -0.01519477 -0.01568694 -0.01661358 -0.01674786 1000
lala 11 1.2 0 first 2 1 270 5 4.5 1.13999724388123 -1 0 -1 0 -0.01812499 -0.01825031 -0.01871323 1000 1000 1000 -0.01812499 -0.01825031 -0.01871323 1000 1000 1000 -0.01750774 -0.01716415 -0.01696863 -0.01656596 -0.01670858 1000 -0.01750774 -0.01716415 -0.01696863 -0.01656596 -0.01670858 1000
lala 14 0.15 0 first 13 1 271 4 4.57 0.839997529983521 0 1 -1 1 -0.01661067 -0.01672127 -0.01634602 1000 1000 1000 -0.01661067 -0.01672127 -0.01634602 1000 1000 1000 -0.01563749 -0.01514383 -0.01537323 -0.01514346 -0.01538279 1000 -0.01563749 -0.01514383 -0.01537323 -0.01514346 -0.01538279 1000
lala 19 1.2 0 first 5 1 272 6 6.480001 0.259998083114624 -1 1 -1 0 -0.01426529 -0.01477708 -0.01503316 1000 1000 1000 -0.01426529 -0.01477708 -0.01503316 1000 1000 1000 -0.01647771 -0.01652028 -0.01600672 -0.01579139 -0.01585047 1000 -0.01647771 -0.01652028 -0.01600672 -0.01579139 -0.01585047 1000
lala 20 2.4 1 second 5 1 273 6 8.880001 0.339998006820679 -1 1 1 0 -0.01388753 -0.01350604 -0.01350993 -0.01355166 -0.0136612 1000 -0.01388753 -0.01350604 -0.01350993 -0.01355166 -0.0136612 1000 -0.01655241 -0.01673889 -0.01643409 -0.01590163 -0.01618575 1000 -0.01655241 -0.01673889 -0.01643409 -0.01590163 -0.01618575 1000
lala 11 1.2 0 first 0 1 274 4 3.84 0.319998025894165 -1 0 -1 1 -0.01600865 -0.01611748 -0.01624768 1000 1000 1000 -0.01600865 -0.01611748 -0.01624768 1000 1000 1000 -0.01554483 -0.01607778 -0.0163514 -0.01676625 -0.01674165 1000 -0.01554483 -0.01607778 -0.0163514 -0.01676625 -0.01674165 1000
lala 12 1.2 1 first 0 1 275 4 5.04 0.259998083114624 -1 0 1 0 -0.01883773 -0.01888283 -0.01883028 1000 1000 1000 -0.01883773 -0.01888283 -0.01883028 1000 1000 1000 -0.0160134 -0.01587494 -0.01595328 -0.01574851 -0.01579073 1000 -0.0160134 -0.01587494 -0.01595328 -0.01574851 -0.01579073 1000
lala 20 0.3 1 first 9 1 276 5 5.25 0.539997816085815 1 1 1 0 -0.01855802 -0.01872718 -0.01886242 1000 1000 1000 -0.01855802 -0.01872718 -0.01886242 1000 1000 1000 -0.01838486 -0.01756045 -0.01755469 -0.01733213 -0.01778523 1000 -0.01838486 -0.01756045 -0.01755469 -0.01733213 -0.01778523 1000
lala 21 0.15 1 first 9 1 277 5 5.1 0.379997968673706 1 1 1 1 -0.01773026 -0.01759866 -0.01741509 1000 1000 1000 -0.01773026 -0.01759866 -0.01741509 1000 1000 1000 -0.01873439 -0.01975293 -0.02019271 -0.02005656 -0.01927584 1000 -0.01873439 -0.01975293 -0.02019271 -0.02005656 -0.01927584 1000
lala 10 0.6 1 first 7 1 278 4 3.52 0.799997568130493 1 1 1 1 -0.01502867 -0.01484228 -0.01425255 1000 1000 1000 -0.01502867 -0.01484228 -0.01425255 1000 1000 1000 -0.01170985 -0.01179971 -0.01136281 -0.01080847 -0.01011278 1000 -0.01170985 -0.01179971 -0.01136281 -0.01080847 -0.01011278 1000
lala 21 0.009375 1 first 6 1 279 4 5.208751 0.23999810218811 1 0 1 0 -0.01290798 -0.0127555 -0.01308371 1000 1000 1000 -0.01290798 -0.0127555 -0.01308371 1000 1000 1000 -0.01133511 -0.01162317 -0.01246691 -0.01279429 -0.01308645 1000 -0.01133511 -0.01162317 -0.01246691 -0.01279429 -0.01308645 1000
lala 11 0.3 1 second 7 1 280 4 3.22 1.3999969959259 1 1 1 1 -0.01325894 -0.01284499 -0.0124763 -0.01178922 -0.0116807 1000 -0.01325894 -0.01284499 -0.0124763 -0.01178922 -0.0116807 1000 -0.01178406 -0.01164846 -0.01090037 -0.01045001 -0.01068138 1000 -0.01178406 -0.01164846 -0.01090037 -0.01045001 -0.01068138 1000
lala 26 0.01875 1 second 4 1 281 6 6.472499 0.339998006820679 -1 0 1 0 -0.01173635 -0.01154077 -0.01102329 -0.01034044 -0.01053128 1000 -0.01173635 -0.01154077 -0.01102329 -0.01034044 -0.01053128 1000 -0.008326438 -0.008657913 -0.008757925 -0.00888449 -0.008556962 1000 -0.008326438 -0.008657913 -0.008757925 -0.00888449 -0.008556962 1000
lala 9 1.2 0 first 15 1 282 5 4.25 0.079998254776001 0 1 -1 0 -0.008470993 -0.008213826 -0.0088752 1000 1000 1000 -0.008470993 -0.008213826 -0.0088752 1000 1000 1000 -0.01023414 -0.01038409 -0.01010089 -0.009657006 -0.009668045 1000 -0.01023414 -0.01038409 -0.01010089 -0.009657006 -0.009668045 1000
lala 22 0.15 0 first 9 1 283 5 4.95 0.259998083114624 1 1 -1 1 -0.008652695 -0.008330736 -0.007782932 1000 1000 1000 -0.008652695 -0.008330736 -0.007782932 1000 1000 1000 -0.007948142 -0.007880668 -0.008416189 -0.008628486 -0.008453473 1000 -0.007948142 -0.007880668 -0.008416189 -0.008628486 -0.008453473 1000
lala 15 0.075 1 first 13 1 284 4 4.645 0.499997854232788 0 1 1 1 -0.008939093 -0.00822547 -0.008500158 1000 1000 1000 -0.008939093 -0.00822547 -0.008500158 1000 1000 1000 -0.00659102 -0.006660905 -0.006842391 -0.007422423 -0.007768011 1000 -0.00659102 -0.006660905 -0.006842391 -0.007422423 -0.007768011 1000
lala 16 0.0375 0 first 13 1 285 4 4.6075 0.519997835159302 0 1 -1 0 -0.009497387 -0.009435311 -0.009786228 1000 1000 1000 -0.009497387 -0.009435311 -0.009786228 1000 1000 1000 -0.007483305 -0.007357016 -0.006974429 -0.006337908 -0.005577225 1000 -0.007483305 -0.007357016 -0.006974429 -0.006337908 -0.005577225 1000
lala 17 0.01875 1 second 13 1 286 4 4.62625 0.339998006820679 0 1 1 0 -0.008500032 -0.008646519 -0.009033521 -0.009483999 -0.00962129 1000 -0.008500032 -0.008646519 -0.009033521 -0.009483999 -0.00962129 1000 -0.01028993 -0.009538893 -0.009107274 -0.008984413 -0.009109188 1000 -0.01028993 -0.009538893 -0.009107274 -0.008984413 -0.009109188 1000
lala 11 0.3 1 second 14 1 287 5 5.4 0.359997987747192 0 0 1 1 -0.007344645 -0.007712357 -0.007998789 -0.008438564 -0.008602237 1000 -0.007344645 -0.007712357 -0.007998789 -0.008438564 -0.008602237 1000 -0.009956966 -0.01031653 -0.01084371 -0.01080189 -0.01071432 1000 -0.009956966 -0.01031653 -0.01084371 -0.01080189 -0.01071432 1000
lala 21 1.2 1 first 5 1 288 6 7.680001 0.439997911453247 -1 1 1 0 -0.01020581 -0.0098484 -0.009897558 1000 1000 1000 -0.01020581 -0.0098484 -0.009897558 1000 1000 1000 -0.00793433 -0.008097135 -0.008714271 -0.008833486 -0.008841723 1000 -0.00793433 -0.008097135 -0.008714271 -0.008833486 -0.008841723 1000
lala 23 0.075 0 first 9 1 289 5 5.025 2.41999626159668 1 1 -1 1 -0.0103113 -0.01044539 -0.01036075 1000 1000 1000 -0.0103113 -0.01044539 -0.01036075 1000 1000 1000 -0.007466841 -0.00716262 -0.007309048 -0.007405349 -0.008275604 1000 -0.007466841 -0.00716262 -0.007309048 -0.007405349 -0.008275604 1000
lala 12 0.3 1 first 7 1 290 4 2.92 1.61999702453613 1 1 1 1 -0.006940732 -0.006515612 -0.006113724 1000 1000 1000 -0.006940732 -0.006515612 -0.006113724 1000 1000 1000 -0.007092741 -0.007399129 -0.007563652 -0.00774242 -0.007769568 1000 -0.007092741 -0.007399129 -0.007563652 -0.00774242 -0.007769568 1000
lala 22 1.2 0 second 5 1 291 6 6.480001 1.43999695777893 -1 1 -1 1 -0.006655827 -0.006442263 -0.006223609 -0.005985106 -0.005871315 1000 -0.006655827 -0.006442263 -0.006223609 -0.005985106 -0.005871315 1000 -0.007234172 -0.007124507 -0.006805856 -0.006623522 -0.006251364 1000 -0.007234172 -0.007124507 -0.006805856 -0.006623522 -0.006251364 1000
lala 13 0.6 0 first 0 1 292 4 4.44 0.499997854232788 -1 0 -1 1 -0.005239244 -0.005390829 -0.005775652 1000 1000 1000 -0.005239244 -0.005390829 -0.005775652 1000 1000 1000 -0.007167183 -0.006571594 -0.006651158 -0.006684829 -0.00674495 1000 -0.007167183 -0.006571594 -0.006651158 -0.006684829 -0.00674495 1000
lala 10 0.6 1 second 15 1 293 5 4.85 0.359997987747192 0 1 1 1 -0.004383189 -0.004588149 -0.00533413 -0.005757355 -0.006523611 1000 -0.004383189 -0.004588149 -0.00533413 -0.005757355 -0.006523611 1000 -0.008240499 -0.008466558 -0.008203322 -0.008128852 -0.00739076 1000 -0.008240499 -0.008466558 -0.008203322 -0.008128852 -0.00739076 1000
lala 14 0.3 0 second 0 1 294 4 4.74 0.359997987747192 -1 0 -1 1 -0.005167898 -0.004721959 -0.003476927 -0.003153345 -0.002516193 1000 -0.005167898 -0.004721959 -0.003476927 -0.003153345 -0.002516193 1000 -0.004326525 -0.004422935 -0.004659046 -0.004415093 -0.004875473 1000 -0.004326525 -0.004422935 -0.004659046 -0.004415093 -0.004875473 1000
lala 15 0.3 1 first 0 1 295 4 5.04 0.439997911453247 -1 0 1 0 -0.005604222 -0.005354693 -0.004708958 1000 1000 1000 -0.005604222 -0.005354693 -0.004708958 1000 1000 1000 -0.00404443 -0.003845896 -0.004634888 -0.004750561 -0.005252221 1000 -0.00404443 -0.003845896 -0.004634888 -0.004750561 -0.005252221 1000
lala 15 0.15 1 first 17 1 296 6 5.130002 0.39999794960022 0 1 1 0 -0.007270849 -0.006755915 -0.007050025 1000 1000 1000 -0.007270849 -0.006755915 -0.007050025 1000 1000 1000 -0.003777982 -0.003821237 -0.004305334 -0.004194438 -0.004712544 1000 -0.003777982 -0.003821237 -0.004305334 -0.004194438 -0.004712544 1000
lala 18 0.009375 1 second 13 1 297 4 4.616875 0.539997816085815 0 1 1 1 -0.007206431 -0.006983582 -0.006776193 -0.006198833 -0.005686367 1000 -0.007206431 -0.006983582 -0.006776193 -0.006198833 -0.005686367 1000 -0.00363304 -0.00361364 -0.003657099 -0.003276955 -0.003183378 1000 -0.00363304 -0.00361364 -0.003657099 -0.003276955 -0.003183378 1000
lala 14 0.15 1 second 12 1 298 4 3.39 2.93999576568604 0 0 1 1 -0.004721157 -0.004493978 -0.00477611 -0.004979657 -0.005524057 1000 -0.004721157 -0.004493978 -0.00477611 -0.004979657 -0.005524057 1000 -0.003226971 -0.003382532 -0.003070199 -0.002977724 -0.003181618 1000 -0.003226971 -0.003382532 -0.003070199 -0.002977724 -0.003181618 1000
lala 15 0.3 1 second 11 1 299 6 5.880002 0.379997968673706 1 1 1 1 0.002588127 0.002443547 0.002538541 0.002795902 0.002572198 1000 0.002588127 0.002443547 0.002538541 0.002795902 0.002572198 1000 0.002041549 0.002311649 0.002399437 0.002353394 0.002236633 1000 0.002041549 0.002311649 0.002399437 0.002353394 0.002236633 1000
lala 19 0.0046875 1 first 1 1 300 4 5.624687 0.339998006820679 -1 1 1 1 -0.003663338 0.001465182 0.003539042 0.008328212 0.01119077 0.01295263 -0.003663338 0.001465182 0.003539042 0.008328212 0.01119077 0.01295263 0.007362624 0.008181603 0.009270884 0.009798715 0.009041985 1000 0.007362624 0.008181603 0.009270884 0.009798715 0.009041985 1000
lala 27 0.01875 1 second 4 1 301 6 6.453749 0.23999810218811 -1 0 1 1 0.006456103 0.005669165 0.005365612 0.005936038 0.005292895 1000 0.006456103 0.005669165 0.005365612 0.005936038 0.005292895 1000 0.002228171 0.002263021 0.002214946 0.001064305 6.549289E-06 1000 0.002228171 0.002263021 0.002214946 0.001064305 6.549289E-06 1000
lala 22 0.009375 0 first 6 1 302 4 5.199376 0.299998044967651 1 0 -1 0 0.001837381 0.001930429 0.002542953 1000 1000 1000 0.001837381 0.001930429 0.002542953 1000 1000 1000 -0.00619555 -0.005852075 -0.007360397 -0.008287079 -0.00794322 1000 -0.00619555 -0.005852075 -0.007360397 -0.008287079 -0.00794322 1000
lala 12 1.2 0 second 2 1 303 5 5.7 0.0599982738494873 -1 0 -1 0 -0.01086253 -0.01099303 -0.01062908 -0.010648 -0.01010561 1000 -0.01086253 -0.01099303 -0.01062908 -0.010648 -0.01010561 1000 -0.008980573 -0.008737481 -0.008059098 -0.008056285 -0.008106406 1000 -0.008980573 -0.008737481 -0.008059098 -0.008056285 -0.008106406 1000
lala 19 0.009375 1 first 13 1 304 4 4.6075 0.279998064041138 0 1 1 0 -0.009422841 -0.008994377 -0.008420284 1000 1000 1000 -0.009422841 -0.008994377 -0.008420284 1000 1000 1000 -0.008419645 -0.008147837 -0.007624259 -0.00790933 -0.007779381 1000 -0.008419645 -0.008147837 -0.007624259 -0.00790933 -0.007779381 1000
lala 12 0.3 0 first 10 1 305 6 4.86 0.179998159408569 1 0 -1 1 -0.006221967 -0.006402429 -0.006413629 1000 1000 1000 -0.006221967 -0.006402429 -0.006413629 1000 1000 1000 -0.006724065 -0.006470172 -0.006911485 -0.007679455 -0.007927118 1000 -0.006724065 -0.006470172 -0.006911485 -0.007679455 -0.007927118 1000
lala 23 0.6 0 second 5 1 306 6 7.080001 0.159998178482056 -1 1 -1 1 -0.007246437 -0.007157076 -0.007517545 -0.007459729 -0.007133501 1000 -0.007246437 -0.007157076 -0.007517545 -0.007459729 -0.007133501 1000 -0.009455302 -0.00901979 -0.008972257 -0.008947552 -0.008781916 1000 -0.009455302 -0.00901979 -0.008972257 -0.008947552 -0.008781916 1000
lala 18 0.01875 1 second 16 1 307 6 5.06625 0.359997987747192 0 0 1 0 -0.008361647 -0.008659883 -0.009012682 -0.008862968 -0.008853916 1000 -0.008361647 -0.008659883 -0.009012682 -0.008862968 -0.008853916 1000 -0.008706551 -0.008503554 -0.008362102 -0.008707704 -0.009102541 1000 -0.008706551 -0.008503554 -0.008362102 -0.008707704 -0.009102541 1000
lala 11 0.3 1 second 15 1 308 5 4.55 0.319998025894165 0 1 1 0 -0.008540092 -0.008577037 -0.008323637 -0.008135937 -0.008222344 1000 -0.008540092 -0.008577037 -0.008323637 -0.008135937 -0.008222344 1000 -0.007652421 -0.007692047 -0.008265905 -0.008094688 -0.007707758 1000 -0.007652421 -0.007692047 -0.008265905 -0.008094688 -0.007707758 1000
lala 24 0.6 0 first 5 1 309 6 7.680001 0.359997987747192 -1 1 -1 0 -0.008409468 -0.008885316 -0.008003787 1000 1000 1000 -0.008409468 -0.008885316 -0.008003787 1000 1000 1000 -0.007648467 -0.00759979 -0.007072444 -0.006423817 -0.006329041 1000 -0.007648467 -0.00759979 -0.007072444 -0.006423817 -0.006329041 1000
lala 20 0.009375 1 first 13 1 310 4 4.598125 0.359997987747192 0 1 1 1 -0.00732539 -0.007652059 -0.007819463 1000 1000 1000 -0.00732539 -0.007652059 -0.007819463 1000 1000 1000 -0.006218501 -0.006899574 -0.006978516 -0.00680043 -0.006583575 1000 -0.006218501 -0.006899574 -0.006978516 -0.00680043 -0.006583575 1000
lala 16 0.15 0 second 17 1 311 6 4.980001 0.559997797012329 0 1 -1 1 -0.006460342 -0.006081326 -0.006274055 -0.006035819 -0.006191877 1000 -0.006460342 -0.006081326 -0.006274055 -0.006035819 -0.006191877 1000 -0.006364909 -0.005986053 -0.005650848 -0.005165444 -0.004989006 1000 -0.006364909 -0.005986053 -0.005650848 -0.005165444 -0.004989006 1000
lala 17 0.075 0 first 17 1 312 6 5.055001 0.779997587203979 0 1 -1 0 -0.005043469 -0.005361231 -0.005518892 1000 1000 1000 -0.005043469 -0.005361231 -0.005518892 1000 1000 1000 -0.009335958 -0.008684753 -0.008822116 -0.008621046 -0.008479633 1000 -0.009335958 -0.008684753 -0.008822116 -0.008621046 -0.008479633 1000
lala 16 0.15 1 second 11 1 313 6 5.730001 0.379997968673706 1 1 1 0 0.0004242895 0.007106713 0.01768185 0.02174219 0.0224437 1000 0.0004242895 0.007106713 0.01768185 0.02174219 0.0224437 1000 0.004092851 0.003242706 0.003902128 0.005303449 0.006122707 1000 0.004092851 0.003242706 0.003902128 0.005303449 0.006122707 1000
lala 17 0.15 1 second 11 1 314 6 5.580001 0.299998044967651 1 1 1 1 0.006670137 0.01012242 0.009274256 0.008982828 0.01125856 1000 0.006670137 0.01012242 0.009274256 0.008982828 0.01125856 1000 0.006641437 0.006736006 0.006454249 0.005890199 0.00512575 1000 0.006641437 0.006736006 0.006454249 0.005890199 0.00512575 1000
lala 16 0.15 1 second 0 1 315 4 4.89 0.339998006820679 -1 0 1 0 0.0153545 -0.001356956 -0.001289667 -0.002992671 -0.003391785 1000 0.0153545 -0.001356956 -0.001289667 -0.002992671 -0.003391785 1000 -0.004970354 -0.003220655 -0.003440029 -0.005651352 -0.00730456 1000 -0.004970354 -0.003220655 -0.003440029 -0.005651352 -0.00730456 1000
lala 13 0.15 0 first 10 1 316 6 5.01 0.719997644424438 1 0 -1 1 -0.002592438 -0.00227208 -0.0008598026 1000 1000 1000 -0.002592438 -0.00227208 -0.0008598026 1000 1000 1000 0.0002649717 0.0006676678 0.0007522719 0.0002065879 -5.652051E-06 1000 0.0002649717 0.0006676678 0.0007522719 0.0002065879 -5.652051E-06 1000
lala 21 0.01875 1 second 13 1 317 4 4.579374 0.99999737739563 0 1 1 0 -0.001836555 -0.001634157 -0.001964811 -0.001789858 -0.001736727 1000 -0.001836555 -0.001634157 -0.001964811 -0.001789858 -0.001736727 1000 -0.00217323 -0.002174839 -0.001778345 -0.002314826 -0.002284257 1000 -0.00217323 -0.002174839 -0.001778345 -0.002314826 -0.002284257 1000
lala 23 0.0046875 1 first 6 1 318 4 5.204063 0.39999794960022 1 0 1 0 -0.003475568 -0.003125229 -0.002766286 1000 1000 1000 -0.003475568 -0.003125229 -0.002766286 1000 1000 1000 -0.005762815 -0.004969897 -0.004868306 -0.005267119 -0.005134034 1000 -0.005762815 -0.004969897 -0.004868306 -0.005267119 -0.005134034 1000
