subject PestNr Step_Size_OnTrial Pest_Faster Pest_Interval Condition block trial velH velH_Pest Reaction_Time velH_Subject Start_Above Response_MotionEstimation RightOrLeftxRotations_first0 xRotations_first1 xRotations_first2 xRotations_first3 xRotations_first4 xRotations_first5 yRotations_first0 yRotations_first1 yRotations_first2 yRotations_first3 yRotations_first4 yRotations_first5 xRotations_second0 xRotations_second1 xRotations_second2 xRotations_second3 xRotations_second4 xRotations_second5 yRotations_second0 yRotations_second1 yRotations_second2 yRotations_second3 yRotations_second4 yRotations_second5
lala 1 1.2 1 first 9 1 1 5 6.65 0.499997854232788 1 1 1 0 -0.01431474 -0.004369088 -0.0001982572 0.002564584 0.002728476 0.0004741609 -0.01431474 -0.004369088 -0.0001982572 0.002564584 0.002728476 0.0004741609 -0.01496265 -0.01451508 -0.014306 -0.01467574 -0.0150271 1000 -0.01496265 -0.01451508 -0.014306 -0.01467574 -0.0150271 1000
lala 1 1.2 1 first 7 1 2 4 5.32 0.159998178482056 1 1 1 0 -0.01568292 -0.01577654 -0.01567581 1000 1000 1000 -0.01568292 -0.01577654 -0.01567581 1000 1000 1000 -0.01977419 -0.02001151 -0.02024561 -0.02022708 -0.02006911 1000 -0.01977419 -0.02001151 -0.02024561 -0.02022708 -0.02006911 1000
lala 1 1.2 0 first 8 1 3 5 3.3 0.01999831199646 1 0 -1 0 -0.02059185 -0.02021178 -0.01875597 1000 1000 1000 -0.02059185 -0.02021178 -0.01875597 1000 1000 1000 -0.02374396 -0.02361732 -0.02295104 -0.02254589 -0.02185182 1000 -0.02374396 -0.02361732 -0.02295104 -0.02254589 -0.02185182 1000
lala 1 1.2 0 second 5 1 4 6 7.98 0.439997911453247 -1 1 -1 1 -0.02263566 -0.02152734 -0.02081359 -0.02062316 -0.02065702 1000 -0.02263566 -0.02152734 -0.02081359 -0.02062316 -0.02065702 1000 -0.02128751 -0.02142467 -0.02150591 -0.02165251 -0.02185609 1000 -0.02128751 -0.02142467 -0.02150591 -0.02165251 -0.02185609 1000
lala 1 1.2 0 first 1 1 5 4 5.32 0.419997930526733 -1 1 -1 1 -0.02205493 -0.02190699 -0.02178404 1000 1000 1000 -0.02205493 -0.02190699 -0.02178404 1000 1000 1000 -0.02271979 -0.02255022 -0.02220301 -0.02188252 -0.02131402 1000 -0.02271979 -0.02255022 -0.02220301 -0.02188252 -0.02131402 1000
lala 1 1.2 1 first 15 1 6 5 6.65 0.079998254776001 0 1 1 0 -0.01891125 -0.01787385 -0.01723149 1000 1000 1000 -0.01891125 -0.01787385 -0.01723149 1000 1000 1000 -0.01791223 -0.01852015 -0.01921455 -0.01955302 -0.01975718 1000 -0.01791223 -0.01852015 -0.01921455 -0.01955302 -0.01975718 1000
lala 1 1.2 0 first 16 1 7 6 3.96 0.579997777938843 0 0 -1 0 -0.01888414 -0.01859883 -0.01824593 1000 1000 1000 -0.01888414 -0.01859883 -0.01824593 1000 1000 1000 -0.01795597 -0.01771282 -0.01701008 -0.01700673 -0.01696439 1000 -0.01795597 -0.01771282 -0.01701008 -0.01700673 -0.01696439 1000
lala 2 1.2 1 first 15 1 8 5 5.45 0.23999810218811 0 1 1 0 -0.01825251 -0.01851643 -0.01898598 1000 1000 1000 -0.01825251 -0.01851643 -0.01898598 1000 1000 1000 -0.01974307 -0.01941851 -0.01890918 -0.01771489 -0.01689337 1000 -0.01974307 -0.01941851 -0.01890918 -0.01771489 -0.01689337 1000
lala 2 1.2 0 second 16 1 9 6 5.16 0.759997606277466 0 0 -1 1 -0.01910822 -0.018018 -0.01657928 -0.01580964 -0.01580665 1000 -0.01910822 -0.018018 -0.01657928 -0.01580964 -0.01580665 1000 -0.01745379 -0.01763299 -0.01815755 -0.0186838 -0.01943659 1000 -0.01745379 -0.01763299 -0.01815755 -0.0186838 -0.01943659 1000
lala 1 1.2 1 first 17 1 10 6 7.98 0.599997758865356 0 1 1 0 -0.02080174 -0.02112615 -0.02142882 1000 1000 1000 -0.02080174 -0.02112615 -0.02142882 1000 1000 1000 -0.01781157 -0.01827457 -0.01890321 -0.01905317 -0.01945257 1000 -0.01781157 -0.01827457 -0.01890321 -0.01905317 -0.01945257 1000
lala 1 1.2 1 first 13 1 11 4 5.32 0.499997854232788 0 1 1 0 -0.01950471 -0.02015078 -0.02083685 1000 1000 1000 -0.01950471 -0.02015078 -0.02083685 1000 1000 1000 -0.01787669 -0.01767698 -0.01763321 -0.01814589 -0.01842001 1000 -0.01787669 -0.01767698 -0.01763321 -0.01814589 -0.01842001 1000
lala 2 1.2 1 second 17 1 12 6 6.780001 0.339998006820679 0 1 1 1 -0.01980483 -0.0193437 -0.01939852 -0.01955318 -0.0197294 1000 -0.01980483 -0.0193437 -0.01939852 -0.01955318 -0.0197294 1000 -0.02022783 -0.02007117 -0.01953129 -0.01967037 -0.02008212 1000 -0.02022783 -0.02007117 -0.01953129 -0.01967037 -0.02008212 1000
lala 1 1.2 1 second 11 1 13 6 7.98 0.339998006820679 1 1 1 0 -0.02056071 -0.02028471 -0.01936337 -0.01885506 -0.01888403 1000 -0.02056071 -0.02028471 -0.01936337 -0.01885506 -0.01888403 1000 -0.02084676 -0.02112034 -0.02088769 -0.02055155 -0.02011955 1000 -0.02084676 -0.02112034 -0.02088769 -0.02055155 -0.02011955 1000
lala 2 1.2 1 second 7 1 14 4 4.12 0.879997491836548 1 1 1 1 -0.01988072 -0.02016377 -0.02043959 -0.02035938 -0.02024551 1000 -0.01988072 -0.02016377 -0.02043959 -0.02035938 -0.02024551 1000 -0.02021253 -0.02010297 -0.02046621 -0.02056059 -0.02122324 1000 -0.02021253 -0.02010297 -0.02046621 -0.02056059 -0.02122324 1000
lala 1 1.2 0 first 12 1 15 4 2.64 0.01999831199646 0 0 -1 1 -0.02035739 -0.02043851 -0.02110803 1000 1000 1000 -0.02035739 -0.02043851 -0.02110803 1000 1000 1000 -0.01678517 -0.01584634 -0.01606521 -0.01573545 -0.01568439 1000 -0.01678517 -0.01584634 -0.01606521 -0.01573545 -0.01568439 1000
lala 1 1.2 0 second 6 1 16 4 2.64 0.259998083114624 1 0 -1 1 -0.01639769 -0.01656578 -0.01852731 -0.01877431 -0.01848861 1000 -0.01639769 -0.01656578 -0.01852731 -0.01877431 -0.01848861 1000 -0.01877378 -0.01898574 -0.01875514 -0.019417 -0.01988044 1000 -0.01877378 -0.01898574 -0.01875514 -0.019417 -0.01988044 1000
lala 2 1.2 0 first 8 1 17 5 4.5 0.479997873306274 1 0 -1 0 -0.02204041 -0.02273084 -0.02283675 1000 1000 1000 -0.02204041 -0.02273084 -0.02283675 1000 1000 1000 -0.02076356 -0.02188074 -0.02294574 -0.02264268 -0.02241102 1000 -0.02076356 -0.02188074 -0.02294574 -0.02264268 -0.02241102 1000
lala 2 1.2 1 first 1 1 18 4 6.52 0.639997720718384 -1 1 1 1 -0.02174046 -0.02175153 -0.02092041 1000 1000 1000 -0.02174046 -0.02175153 -0.02092041 1000 1000 1000 -0.02531065 -0.02483299 -0.02321016 -0.01987301 -0.01626853 1000 -0.02531065 -0.02483299 -0.02321016 -0.01987301 -0.01626853 1000
lala 3 1.2 0 first 17 1 19 6 5.580001 0.61999773979187 0 1 -1 1 -0.01528976 -0.01479365 -0.01409796 1000 1000 1000 -0.01528976 -0.01479365 -0.01409796 1000 1000 1000 -0.01362647 -0.01330585 -0.01364938 -0.01365562 -0.01434017 1000 -0.01362647 -0.01330585 -0.01364938 -0.01365562 -0.01434017 1000
lala 1 1.2 0 first 4 1 20 6 3.96 0.39999794960022 -1 0 -1 1 -0.01449011 -0.01487262 -0.01552603 1000 1000 1000 -0.01449011 -0.01487262 -0.01552603 1000 1000 1000 -0.01502228 -0.01532451 -0.01523591 -0.01548504 -0.01564473 1000 -0.01502228 -0.01532451 -0.01523591 -0.01548504 -0.01564473 1000
lala 1 1.2 1 second 10 1 21 6 3.96 0.179998159408569 1 0 1 0 -0.01581543 -0.01582039 -0.01594403 -0.01617998 -0.01679556 1000 -0.01581543 -0.01582039 -0.01594403 -0.01617998 -0.01679556 1000 -0.01658285 -0.01652654 -0.01564812 -0.01497444 -0.01485091 1000 -0.01658285 -0.01652654 -0.01564812 -0.01497444 -0.01485091 1000
lala 2 1.2 1 second 11 1 22 6 6.780001 0.339998006820679 1 1 1 1 -0.01857003 -0.01886392 -0.01887988 -0.01868648 -0.01887375 1000 -0.01857003 -0.01886392 -0.01887988 -0.01868648 -0.01887375 1000 -0.01803265 -0.01878805 -0.01957811 -0.01985125 -0.01959371 1000 -0.01803265 -0.01878805 -0.01957811 -0.01985125 -0.01959371 1000
lala 1 1.2 0 second 2 1 23 5 3.3 1.33999705314636 -1 0 -1 1 -0.01639896 -0.01708507 -0.01764303 -0.01818181 -0.01818609 1000 -0.01639896 -0.01708507 -0.01764303 -0.01818181 -0.01818609 1000 -0.02069536 -0.02150103 -0.02212017 -0.02233953 -0.02164917 1000 -0.02069536 -0.02150103 -0.02212017 -0.02233953 -0.02164917 1000
lala 1 1.2 0 second 0 1 24 4 2.64 0.319998025894165 -1 0 -1 1 -0.02358444 -0.02367609 -0.02369902 -0.02251438 -0.02103736 1000 -0.02358444 -0.02367609 -0.02369902 -0.02251438 -0.02103736 1000 -0.01807769 -0.01835867 -0.01909643 -0.02014962 -0.0207951 1000 -0.01807769 -0.01835867 -0.01909643 -0.02014962 -0.0207951 1000
lala 3 1.2 0 first 8 1 25 5 5.7 5.85999917984009 1 0 -1 1 -0.0193297 -0.01859428 -0.01795267 1000 1000 1000 -0.0193297 -0.01859428 -0.01795267 1000 1000 1000 -0.0198569 -0.01980171 -0.01922581 -0.01868931 -0.01891782 1000 -0.0198569 -0.01980171 -0.01922581 -0.01868931 -0.01891782 1000
lala 2 1.2 0 first 13 1 26 4 4.12 0.579997777938843 0 1 -1 0 -0.02004109 -0.02035202 -0.02034346 1000 1000 1000 -0.02004109 -0.02035202 -0.02034346 1000 1000 1000 -0.02190953 -0.02131235 -0.02030009 -0.01980331 -0.01944128 1000 -0.02190953 -0.02131235 -0.02030009 -0.01980331 -0.01944128 1000
lala 2 1.2 0 first 2 1 27 5 4.5 0.259998083114624 -1 0 -1 0 -0.01841039 -0.01819612 -0.01778332 1000 1000 1000 -0.01841039 -0.01819612 -0.01778332 1000 1000 1000 -0.0206937 -0.02073195 -0.01999376 -0.0193312 -0.01903017 1000 -0.0206937 -0.02073195 -0.01999376 -0.0193312 -0.01903017 1000
lala 2 1.2 1 first 9 1 28 5 5.45 0.259998083114624 1 1 1 0 -0.01766113 -0.01734586 -0.01779991 1000 1000 1000 -0.01766113 -0.01734586 -0.01779991 1000 1000 1000 -0.01728607 -0.01720436 -0.01706148 -0.01672551 -0.01697501 1000 -0.01728607 -0.01720436 -0.01706148 -0.01672551 -0.01697501 1000
lala 2 1.2 0 first 12 1 29 4 3.84 0.419997930526733 0 0 -1 0 -0.01642 -0.01639782 -0.01607224 1000 1000 1000 -0.01642 -0.01639782 -0.01607224 1000 1000 1000 -0.021998 -0.0192156 -0.01301933 -0.005466606 -0.003033787 1000 -0.021998 -0.0192156 -0.01301933 -0.005466606 -0.003033787 1000
lala 3 1.2 1 second 12 1 30 4 5.04 0.299998044967651 0 0 1 1 -0.02310655 -0.01995426 -0.01739069 -0.01620563 -0.01570249 1000 -0.02310655 -0.01995426 -0.01739069 -0.01620563 -0.01570249 1000 -0.01474287 -0.01423338 -0.01343079 -0.01318447 -0.01257958 1000 -0.01474287 -0.01423338 -0.01343079 -0.01318447 -0.01257958 1000
lala 3 1.2 1 first 11 1 31 6 5.580001 0.699997663497925 1 1 1 1 -0.009531978 -0.009131409 -0.008278729 1000 1000 1000 -0.009531978 -0.009131409 -0.008278729 1000 1000 1000 -0.007077142 -0.006408056 -0.006045105 -0.006630053 -0.006764462 1000 -0.007077142 -0.006408056 -0.006045105 -0.006630053 -0.006764462 1000
lala 1 1.2 0 first 14 1 32 5 3.3 0.119998216629028 0 0 -1 1 -0.008126728 -0.008696348 -0.009674207 1000 1000 1000 -0.008126728 -0.008696348 -0.009674207 1000 1000 1000 -0.008659108 -0.008187521 -0.007796971 -0.007774354 -0.008643904 1000 -0.008659108 -0.008187521 -0.007796971 -0.007774354 -0.008643904 1000
lala 2 1.2 1 second 14 1 33 5 4.5 0.179998159408569 0 0 1 1 -0.01305517 -0.01278351 -0.01296857 -0.01345439 -0.01433936 1000 -0.01305517 -0.01278351 -0.01296857 -0.01345439 -0.01433936 1000 -0.01502646 -0.01543513 -0.01517469 -0.01473253 -0.01381419 1000 -0.01502646 -0.01543513 -0.01517469 -0.01473253 -0.01381419 1000
lala 4 1.2 1 first 17 1 34 6 6.780001 1.69999694824219 0 1 1 0 -0.01410429 -0.01431814 -0.01490389 1000 1000 1000 -0.01410429 -0.01431814 -0.01490389 1000 1000 1000 -0.01568249 -0.01559903 -0.01610112 -0.0167923 -0.01680748 1000 -0.01568249 -0.01559903 -0.01610112 -0.0167923 -0.01680748 1000
lala 2 1.2 1 second 5 1 35 6 9.18 0.379997968673706 -1 1 1 0 -0.01905781 -0.01837939 -0.01799117 -0.01811625 -0.01853665 1000 -0.01905781 -0.01837939 -0.01799117 -0.01811625 -0.01853665 1000 -0.01665258 -0.01667644 -0.01705517 -0.01739671 -0.01741474 1000 -0.01665258 -0.01667644 -0.01705517 -0.01739671 -0.01741474 1000
lala 2 1.2 0 second 4 1 36 6 5.16 0.39999794960022 -1 0 -1 0 -0.01910308 -0.01911515 -0.01915953 -0.01910085 -0.01831041 1000 -0.01910308 -0.01911515 -0.01915953 -0.01910085 -0.01831041 1000 -0.01930175 -0.01925999 -0.01963395 -0.01964968 -0.01972598 1000 -0.01930175 -0.01925999 -0.01963395 -0.01964968 -0.01972598 1000
lala 3 1.2 0 second 14 1 37 5 3.3 0.519997835159302 0 0 -1 1 -0.01886871 -0.01908365 -0.01966262 -0.01960237 -0.01957624 1000 -0.01886871 -0.01908365 -0.01966262 -0.01960237 -0.01957624 1000 -0.01801108 -0.01831865 -0.01925299 -0.01952028 -0.01949128 1000 -0.01801108 -0.01831865 -0.01925299 -0.01952028 -0.01949128 1000
lala 1 1.2 1 first 3 1 38 5 6.65 0.259998083114624 -1 1 1 1 -0.01829967 -0.01784151 -0.01795949 1000 1000 1000 -0.01829967 -0.01784151 -0.01795949 1000 1000 1000 -0.0161547 -0.0164686 -0.01701788 -0.01689805 -0.01642164 1000 -0.0161547 -0.0164686 -0.01701788 -0.01689805 -0.01642164 1000
lala 2 1.2 0 second 0 1 39 4 3.84 0.679997682571411 -1 0 -1 1 -0.01379816 -0.01348493 -0.01366761 -0.0144526 -0.01534297 1000 -0.01379816 -0.01348493 -0.01366761 -0.0144526 -0.01534297 1000 -0.01469512 -0.01518237 -0.01617101 -0.01621158 -0.01617503 1000 -0.01469512 -0.01518237 -0.01617101 -0.01621158 -0.01617503 1000
lala 3 1.2 0 first 2 1 40 5 5.7 0.319998025894165 -1 0 -1 0 -0.01576889 -0.01574449 -0.01533299 1000 1000 1000 -0.01576889 -0.01574449 -0.01533299 1000 1000 1000 -0.01584516 -0.01579092 -0.01596396 -0.01651843 -0.01730273 1000 -0.01584516 -0.01579092 -0.01596396 -0.01651843 -0.01730273 1000
lala 3 1.2 1 first 13 1 41 4 5.32 0.119998216629028 0 1 1 0 -0.01504087 -0.01502167 -0.01402078 1000 1000 1000 -0.01504087 -0.01502167 -0.01402078 1000 1000 1000 -0.0158952 -0.0165389 -0.01693196 -0.01724611 -0.01707182 1000 -0.0158952 -0.0165389 -0.01693196 -0.01724611 -0.01707182 1000
lala 4 1.2 1 second 2 1 42 5 6.9 0.699997663497925 -1 0 1 1 -0.01559218 -0.01491639 -0.01471686 -0.01450687 -0.01524118 1000 -0.01559218 -0.01491639 -0.01471686 -0.01450687 -0.01524118 1000 -0.01584699 -0.01592335 -0.01566732 -0.01579487 -0.01583644 1000 -0.01584699 -0.01592335 -0.01566732 -0.01579487 -0.01583644 1000
lala 4 1.2 1 first 12 1 43 4 3.84 0.359997987747192 0 0 1 1 -0.01641657 -0.01705783 -0.01689196 1000 1000 1000 -0.01641657 -0.01705783 -0.01689196 1000 1000 1000 -0.01651222 -0.01732954 -0.01728597 -0.01637863 -0.01636335 1000 -0.01651222 -0.01732954 -0.01728597 -0.01637863 -0.01636335 1000
lala 3 1.2 0 first 15 1 44 5 4.25 0.279998064041138 0 1 -1 1 -0.01711987 -0.01754752 -0.01879401 1000 1000 1000 -0.01711987 -0.01754752 -0.01879401 1000 1000 1000 -0.0159502 -0.01616768 -0.01689029 -0.01681429 -0.01661108 1000 -0.0159502 -0.01616768 -0.01689029 -0.01681429 -0.01661108 1000
lala 3 1.2 1 second 1 1 45 4 5.320001 0.359997987747192 -1 1 1 1 -0.01360056 -0.01513112 -0.01667099 -0.01721235 -0.01815533 1000 -0.01360056 -0.01513112 -0.01667099 -0.01721235 -0.01815533 1000 -0.01862221 -0.01861187 -0.01970058 -0.02042709 -0.01996168 1000 -0.01862221 -0.01861187 -0.01970058 -0.02042709 -0.01996168 1000
lala 5 1.2 0 first 17 1 46 6 5.580001 0.439997911453247 0 1 -1 1 -0.01753614 -0.0176145 -0.01738804 1000 1000 1000 -0.01753614 -0.0176145 -0.01738804 1000 1000 1000 -0.01942785 -0.01992692 -0.01979113 -0.01881757 -0.01798555 1000 -0.01942785 -0.01992692 -0.01979113 -0.01881757 -0.01798555 1000
lala 4 1.2 0 second 11 1 47 6 4.380001 0.479997873306274 1 1 -1 0 -0.01624927 -0.01602306 -0.01618259 -0.01699535 -0.01759134 1000 -0.01624927 -0.01602306 -0.01618259 -0.01699535 -0.01759134 1000 -0.01745239 -0.01709741 -0.01758497 -0.0177876 -0.01869733 1000 -0.01745239 -0.01709741 -0.01758497 -0.0177876 -0.01869733 1000
lala 4 1.2 1 second 8 1 48 5 6.9 0.479997873306274 1 0 1 1 -0.01947876 -0.01909865 -0.01899697 -0.01869836 -0.01904366 1000 -0.01947876 -0.01909865 -0.01899697 -0.01869836 -0.01904366 1000 -0.02050167 -0.02041576 -0.02030782 -0.01948793 -0.01874781 1000 -0.02050167 -0.02041576 -0.02030782 -0.01948793 -0.01874781 1000
lala 5 1.2 0 second 2 1 49 5 5.7 0.379997968673706 -1 0 -1 0 -0.01666674 -0.01644823 -0.01632016 -0.01668248 -0.01723789 1000 -0.01666674 -0.01644823 -0.01632016 -0.01668248 -0.01723789 1000 -0.01899234 -0.02049481 -0.02076058 -0.02084936 -0.02042066 1000 -0.01899234 -0.02049481 -0.02076058 -0.02084936 -0.02042066 1000
lala 5 1.2 1 second 8 1 50 5 5.7 0.279998064041138 1 0 1 0 -0.004292676 -0.004602527 -0.006015025 -0.006521604 -0.005436561 1000 -0.004292676 -0.004602527 -0.006015025 -0.006521604 -0.005436561 1000 -0.01325597 -0.01367306 -0.01436153 -0.01544018 -0.0162259 1000 -0.01325597 -0.01367306 -0.01436153 -0.01544018 -0.0162259 1000
lala 5 1.2 0 first 12 1 51 4 2.64 0.159998178482056 0 0 -1 0 -0.01950137 -0.01941226 -0.02124603 1000 1000 1000 -0.01950137 -0.01941226 -0.02124603 1000 1000 1000 -0.02272386 -0.02376965 -0.02368848 -0.02281059 -0.02239886 1000 -0.02272386 -0.02376965 -0.02368848 -0.02281059 -0.02239886 1000
lala 3 1.2 1 second 9 1 52 5 4.25 0.339998006820679 1 1 1 0 -0.008955959 -0.008831808 -0.008805781 -0.008839603 -0.008767021 1000 -0.008955959 -0.008831808 -0.008805781 -0.008839603 -0.008767021 1000 -0.006763434 -0.007361282 -0.006973814 -0.006754125 -0.006562893 1000 -0.006763434 -0.007361282 -0.006973814 -0.006754125 -0.006562893 1000
lala 2 1.2 1 second 3 1 53 5 5.45 0.579997777938843 -1 1 1 1 -0.006733451 -0.005962805 -0.006111495 -0.005854425 -0.005388405 1000 -0.006733451 -0.005962805 -0.006111495 -0.005854425 -0.005388405 1000 -0.007341842 -0.008175535 -0.008620857 -0.009468599 -0.009730508 1000 -0.007341842 -0.008175535 -0.008620857 -0.009468599 -0.009730508 1000
lala 4 1.2 0 second 14 1 54 5 4.5 0.699997663497925 0 0 -1 0 -0.008041896 -0.008252345 -0.008162636 -0.008081703 -0.008137779 1000 -0.008041896 -0.008252345 -0.008162636 -0.008081703 -0.008137779 1000 -0.008899743 -0.009068885 -0.00966849 -0.01029743 -0.0105054 1000 -0.008899743 -0.009068885 -0.00966849 -0.01029743 -0.0105054 1000
lala 4 1.2 0 second 13 1 55 4 4.12 0.499997854232788 0 1 -1 0 -0.008498511 -0.007663229 -0.007546404 -0.007562408 -0.008014814 1000 -0.008498511 -0.007663229 -0.007546404 -0.007562408 -0.008014814 1000 -0.009056324 -0.009642279 -0.009990966 -0.01023991 -0.0104433 1000 -0.009056324 -0.009642279 -0.009990966 -0.01023991 -0.0104433 1000
lala 3 1.2 0 second 16 1 56 6 6.36 0.01999831199646 0 0 -1 1 -0.01113515 -0.01013073 -0.01022189 -0.0104628 -0.01124134 1000 -0.01113515 -0.01013073 -0.01022189 -0.0104628 -0.01124134 1000 -0.01430435 -0.01424644 -0.01404008 -0.01419654 -0.01474155 1000 -0.01430435 -0.01424644 -0.01404008 -0.01419654 -0.01474155 1000
lala 3 1.2 0 first 7 1 57 4 2.92 0.0599982738494873 1 1 -1 0 -0.01469653 -0.0141009 -0.01349533 1000 1000 1000 -0.01469653 -0.0141009 -0.01349533 1000 1000 1000 -0.01357693 -0.01348527 -0.01329363 -0.01276593 -0.01298842 1000 -0.01357693 -0.01348527 -0.01329363 -0.01276593 -0.01298842 1000
lala 6 1.2 1 second 17 1 58 6 6.780001 0.23999810218811 0 1 1 0 -0.01322524 -0.01288382 -0.01260407 -0.01245414 -0.01250086 1000 -0.01322524 -0.01288382 -0.01260407 -0.01245414 -0.01250086 1000 -0.01286473 -0.01288381 -0.01274859 -0.01260727 -0.01325595 1000 -0.01286473 -0.01288381 -0.01274859 -0.01260727 -0.01325595 1000
lala 6 1.2 1 second 8 1 59 5 4.5 0.299998044967651 1 0 1 0 -0.009591519 -0.01004941 -0.01138192 -0.01534305 -0.01583636 1000 -0.009591519 -0.01004941 -0.01138192 -0.01534305 -0.01583636 1000 -0.01655318 -0.01676287 -0.01694203 -0.01774765 -0.01771213 1000 -0.01655318 -0.01676287 -0.01694203 -0.01774765 -0.01771213 1000
lala 6 1.2 1 second 12 1 60 4 3.84 0.379997968673706 0 0 1 1 -0.01471677 -0.01503627 -0.01442787 -0.01433652 -0.0149938 1000 -0.01471677 -0.01503627 -0.01442787 -0.01433652 -0.0149938 1000 -0.0181007 -0.01787883 -0.01828338 -0.0188601 -0.01982002 1000 -0.0181007 -0.01787883 -0.01828338 -0.0188601 -0.01982002 1000
lala 5 1.2 1 second 14 1 61 5 5.7 0.339998006820679 0 0 1 1 -0.01897447 -0.01968168 -0.02001979 -0.02012856 -0.01939424 1000 -0.01897447 -0.01968168 -0.02001979 -0.02012856 -0.01939424 1000 -0.0199867 -0.0199264 -0.01963628 -0.02000754 -0.02000782 1000 -0.0199867 -0.0199264 -0.01963628 -0.02000754 -0.02000782 1000
lala 7 1.2 0 first 12 1 62 4 2.64 0.439997911453247 0 0 -1 1 -0.01744559 -0.01672325 -0.01668247 1000 1000 1000 -0.01744559 -0.01672325 -0.01668247 1000 1000 1000 -0.01821968 -0.01806005 -0.01784095 -0.0176895 -0.01790758 1000 -0.01821968 -0.01806005 -0.01784095 -0.0176895 -0.01790758 1000
lala 3 1.2 0 second 5 1 63 6 7.98 0.859997510910034 -1 1 -1 1 -0.01878922 -0.01943262 -0.02006671 -0.01987077 -0.0199256 1000 -0.01878922 -0.01943262 -0.02006671 -0.01987077 -0.0199256 1000 -0.02140007 -0.02148201 -0.02150897 -0.02126684 -0.02140255 1000 -0.02140007 -0.02148201 -0.02150897 -0.02126684 -0.02140255 1000
lala 6 1.2 0 first 14 1 64 5 4.5 0.319998025894165 0 0 -1 0 -0.02086807 -0.02057367 -0.02097836 1000 1000 1000 -0.02086807 -0.02057367 -0.02097836 1000 1000 1000 -0.02275057 -0.02291044 -0.0227311 -0.02243469 -0.02198589 1000 -0.02275057 -0.02291044 -0.0227311 -0.02243469 -0.02198589 1000
lala 2 1.2 0 second 10 1 65 6 2.76 0.499997854232788 1 0 -1 0 -0.02100995 -0.02169579 -0.02280869 -0.02380668 -0.02439394 1000 -0.02100995 -0.02169579 -0.02280869 -0.02380668 -0.02439394 1000 -0.02534647 -0.0234829 -0.02156638 -0.01930695 -0.0177552 1000 -0.02534647 -0.0234829 -0.02156638 -0.01930695 -0.0177552 1000
lala 7 1.2 1 first 17 1 66 6 5.580001 0.01999831199646 0 1 1 0 -0.01652392 -0.01508779 -0.01444825 1000 1000 1000 -0.01652392 -0.01508779 -0.01444825 1000 1000 1000 -0.01660196 -0.01784129 -0.01871263 -0.01951596 -0.01962934 1000 -0.01660196 -0.01784129 -0.01871263 -0.01951596 -0.01962934 1000
lala 7 1.2 1 second 8 1 67 5 3.3 0.519997835159302 1 0 1 0 -0.01620295 -0.01564294 -0.01554073 -0.01492834 -0.01491681 1000 -0.01620295 -0.01564294 -0.01554073 -0.01492834 -0.01491681 1000 -0.01888978 -0.01744528 -0.01680832 -0.0176512 -0.01827732 1000 -0.01888978 -0.01744528 -0.01680832 -0.0176512 -0.01827732 1000
lala 3 1.2 1 second 4 1 68 6 6.36 0.339998006820679 -1 0 1 0 -0.01574125 -0.01587416 -0.01623034 -0.01639916 -0.01547679 1000 -0.01574125 -0.01587416 -0.01623034 -0.01639916 -0.01547679 1000 -0.01779088 -0.01788696 -0.0184151 -0.01869729 -0.019119 1000 -0.01779088 -0.01788696 -0.0184151 -0.01869729 -0.019119 1000
lala 3 1.2 0 first 3 1 69 5 4.25 0.079998254776001 -1 1 -1 0 -0.01861945 -0.01842181 -0.01755458 1000 1000 1000 -0.01861945 -0.01842181 -0.01755458 1000 1000 1000 -0.01648149 -0.01704025 -0.01762623 -0.01782039 -0.01831811 1000 -0.01648149 -0.01704025 -0.01762623 -0.01782039 -0.01831811 1000
lala 4 1.2 0 first 3 1 70 5 5.45 0.319998025894165 -1 1 -1 0 -0.01933105 -0.01908119 -0.01878038 1000 1000 1000 -0.01933105 -0.01908119 -0.01878038 1000 1000 1000 -0.01689896 -0.01675752 -0.01701559 -0.01738049 -0.0169792 1000 -0.01689896 -0.01675752 -0.01701559 -0.01738049 -0.0169792 1000
lala 4 1.2 0 second 7 1 71 4 4.12 0.679997682571411 1 1 -1 1 -0.02080844 -0.0209443 -0.02113976 -0.02131764 -0.02089586 1000 -0.02080844 -0.0209443 -0.02113976 -0.02131764 -0.02089586 1000 -0.02097057 -0.02148283 -0.02084629 -0.02094682 -0.0207565 1000 -0.02097057 -0.02148283 -0.02084629 -0.02094682 -0.0207565 1000
lala 4 1.2 0 first 1 1 72 4 4.120001 0.439997911453247 -1 1 -1 1 -0.02237584 -0.02237696 -0.022681 1000 1000 1000 -0.02237584 -0.02237696 -0.022681 1000 1000 1000 -0.02019311 -0.01912412 -0.01854192 -0.01835605 -0.01915071 1000 -0.02019311 -0.01912412 -0.01854192 -0.01835605 -0.01915071 1000
lala 8 1.2 0 second 17 1 73 6 4.380001 0.39999794960022 0 1 -1 0 -0.02155126 -0.0221683 -0.0228086 -0.02356217 -0.02393995 1000 -0.02155126 -0.0221683 -0.0228086 -0.02356217 -0.02393995 1000 -0.0210598 -0.02099452 -0.02068754 -0.0207329 -0.0204616 1000 -0.0210598 -0.02099452 -0.02068754 -0.0207329 -0.0204616 1000
lala 4 1.2 1 second 16 1 74 6 7.559999 0.139998197555542 0 0 1 1 -0.01927518 -0.01998727 -0.02029568 -0.02032695 -0.02040957 1000 -0.01927518 -0.01998727 -0.02029568 -0.02032695 -0.02040957 1000 -0.02237679 -0.02187667 -0.02165287 -0.02120173 -0.02101994 1000 -0.02237679 -0.02187667 -0.02165287 -0.02120173 -0.02101994 1000
lala 2 1.2 1 second 6 1 75 4 3.84 0.899997472763062 1 0 1 1 -0.02140822 -0.02131728 -0.02137472 -0.02133301 -0.02106599 1000 -0.02140822 -0.02131728 -0.02137472 -0.02133301 -0.02106599 1000 -0.02396115 -0.023593 -0.02330983 -0.02279972 -0.02296331 1000 -0.02396115 -0.023593 -0.02330983 -0.02279972 -0.02296331 1000
lala 5 1.2 1 first 1 1 76 4 5.320001 1.13999724388123 -1 1 1 1 -0.02126102 -0.0207419 -0.02077737 1000 1000 1000 -0.02126102 -0.0207419 -0.02077737 1000 1000 1000 -0.02295062 -0.02389875 -0.02437932 -0.02444286 -0.0249391 1000 -0.02295062 -0.02389875 -0.02437932 -0.02444286 -0.0249391 1000
lala 5 1.2 1 second 3 1 77 5 6.65 0.299998044967651 -1 1 1 1 -0.02451221 -0.02412049 -0.02477287 -0.02541176 -0.02551074 1000 -0.02451221 -0.02412049 -0.02477287 -0.02541176 -0.02551074 1000 -0.02418838 -0.02357978 -0.02324844 -0.02202269 -0.02128106 1000 -0.02418838 -0.02357978 -0.02324844 -0.02202269 -0.02128106 1000
lala 6 1.2 0 first 1 1 78 4 4.120001 0.079998254776001 -1 1 -1 1 -0.02396769 -0.02418293 -0.02471807 1000 1000 1000 -0.02396769 -0.02418293 -0.02471807 1000 1000 1000 -0.02388849 -0.02423439 -0.02428864 -0.02416305 -0.02385252 1000 -0.02388849 -0.02423439 -0.02428864 -0.02416305 -0.02385252 1000
lala 8 1.2 0 second 8 1 79 5 2.1 0.439997911453247 1 0 -1 0 -0.0222869 -0.02181474 -0.02215851 -0.0225514 -0.02263451 1000 -0.0222869 -0.02181474 -0.02215851 -0.0225514 -0.02263451 1000 -0.02552257 -0.0251062 -0.02498564 -0.02492468 -0.02451837 1000 -0.02552257 -0.0251062 -0.02498564 -0.02492468 -0.02451837 1000
lala 6 1.2 1 first 2 1 80 5 6.9 0.599997758865356 -1 0 1 0 -0.00733115 -0.002716695 0.0005560661 1000 1000 1000 -0.00733115 -0.002716695 0.0005560661 1000 1000 1000 -0.01151827 -0.01117616 -0.00993329 -0.009139786 -0.009300622 1000 -0.01151827 -0.01117616 -0.00993329 -0.009139786 -0.009300622 1000
lala 3 1.2 0 first 0 1 81 4 5.04 0.439997911453247 -1 0 -1 0 -0.01170783 -0.01174386 -0.01186131 1000 1000 1000 -0.01170783 -0.01174386 -0.01186131 1000 1000 1000 -0.01357163 -0.01335128 -0.01340485 -0.01349985 -0.01423862 1000 -0.01357163 -0.01335128 -0.01340485 -0.01349985 -0.01423862 1000
lala 4 1.2 1 second 9 1 82 5 3.05 0.599997758865356 1 1 1 0 -0.01365083 -0.01390389 -0.01437702 -0.01460733 -0.01510211 1000 -0.01365083 -0.01390389 -0.01437702 -0.01460733 -0.01510211 1000 -0.01746434 -0.01722986 -0.01638096 -0.01654804 -0.01709845 1000 -0.01746434 -0.01722986 -0.01638096 -0.01654804 -0.01709845 1000
lala 4 1.2 1 first 5 1 83 6 9.18 0.559997797012329 -1 1 1 1 -0.02209472 -0.02155968 -0.02166906 1000 1000 1000 -0.02209472 -0.02155968 -0.02166906 1000 1000 1000 -0.02453489 -0.02520894 -0.02526074 -0.02512977 -0.02442049 1000 -0.02453489 -0.02520894 -0.02526074 -0.02512977 -0.02442049 1000
lala 3 1.2 1 first 10 1 84 6 3.96 0.479997873306274 1 0 1 0 -0.02392828 -0.02382869 -0.02350587 1000 1000 1000 -0.02392828 -0.02382869 -0.02350587 1000 1000 1000 -0.01445098 -0.01488888 -0.01577364 -0.01488553 -0.01451232 1000 -0.01445098 -0.01488888 -0.01577364 -0.01488553 -0.01451232 1000
lala 4 1.2 0 first 4 1 85 6 5.16 0.299998044967651 -1 0 -1 0 -0.01875886 -0.01800897 -0.01908513 1000 1000 1000 -0.01875886 -0.01800897 -0.01908513 1000 1000 1000 -0.01954755 -0.01969614 -0.01917698 -0.01896368 -0.018959 1000 -0.01954755 -0.01969614 -0.01917698 -0.01896368 -0.018959 1000
lala 6 1.2 0 first 3 1 86 5 5.45 0.579997777938843 -1 1 -1 0 -0.01866703 -0.01779949 -0.0164608 1000 1000 1000 -0.01866703 -0.01779949 -0.0164608 1000 1000 1000 -0.01745605 -0.0182632 -0.01815991 -0.01875941 -0.01918363 1000 -0.01745605 -0.0182632 -0.01815991 -0.01875941 -0.01918363 1000
lala 9 1.2 1 second 17 1 87 6 5.580001 0.579997777938843 0 1 1 1 -0.0178246 -0.01842345 -0.01894768 -0.01884288 -0.01775717 1000 -0.0178246 -0.01842345 -0.01894768 -0.01884288 -0.01775717 1000 -0.0180892 -0.01745 -0.01795584 -0.01856438 -0.01914537 1000 -0.0180892 -0.01745 -0.01795584 -0.01856438 -0.01914537 1000
lala 5 1.2 1 first 7 1 88 4 5.32 0.199998140335083 1 1 1 0 -0.02025069 -0.01905556 -0.01865525 1000 1000 1000 -0.02025069 -0.01905556 -0.01865525 1000 1000 1000 -0.0175103 -0.01780078 -0.01839767 -0.01816615 -0.01791577 1000 -0.0175103 -0.01780078 -0.01839767 -0.01816615 -0.01791577 1000
lala 5 1.2 0 first 9 1 89 5 1.85 0.679997682571411 1 1 -1 0 -0.01940667 -0.01852902 -0.01777496 1000 1000 1000 -0.01940667 -0.01852902 -0.01777496 1000 1000 1000 -0.01394649 -0.01368035 -0.01354355 -0.01431733 -0.01463827 1000 -0.01394649 -0.01368035 -0.01354355 -0.01431733 -0.01463827 1000
lala 7 1.2 1 second 14 1 90 5 5.7 0.299998044967651 0 0 1 0 -0.01859298 -0.01839218 -0.01800908 -0.01769181 -0.01771904 1000 -0.01859298 -0.01839218 -0.01800908 -0.01769181 -0.01771904 1000 -0.01757651 -0.01769379 -0.01729479 -0.01754114 -0.01726979 1000 -0.01757651 -0.01769379 -0.01729479 -0.01754114 -0.01726979 1000
lala 4 1.2 1 second 15 1 91 5 5.45 0.259998083114624 0 1 1 0 -0.0215612 -0.02098552 -0.02046401 -0.01999582 -0.01992146 1000 -0.0215612 -0.02098552 -0.02046401 -0.01999582 -0.01992146 1000 -0.01827 -0.0188422 -0.01882637 -0.01835529 -0.0180218 1000 -0.01827 -0.0188422 -0.01882637 -0.01835529 -0.0180218 1000
lala 5 1.2 1 second 11 1 92 6 5.580001 0.379997968673706 1 1 1 0 -0.01956107 -0.02011139 -0.02058615 -0.02133367 -0.02154307 1000 -0.01956107 -0.02011139 -0.02058615 -0.02133367 -0.02154307 1000 -0.01987341 -0.02008769 -0.02037918 -0.02100097 -0.02114628 1000 -0.01987341 -0.02008769 -0.02037918 -0.02100097 -0.02114628 1000
lala 4 1.2 0 first 0 1 93 4 6.24 0.499997854232788 -1 0 -1 1 -0.02133493 -0.02123724 -0.02163868 1000 1000 1000 -0.02133493 -0.02123724 -0.02163868 1000 1000 1000 -0.02103786 -0.02090992 -0.02089421 -0.02089634 -0.02153099 1000 -0.02103786 -0.02090992 -0.02089421 -0.02089634 -0.02153099 1000
lala 5 1.2 1 first 13 1 94 4 5.32 0.439997911453247 0 1 1 0 -0.02208872 -0.02167305 -0.02180399 1000 1000 1000 -0.02208872 -0.02167305 -0.02180399 1000 1000 1000 -0.02347636 -0.02366929 -0.02416878 -0.0239305 -0.02363426 1000 -0.02347636 -0.02366929 -0.02416878 -0.0239305 -0.02363426 1000
lala 5 1.2 1 second 0 1 95 4 7.44 0.259998083114624 -1 0 1 0 -0.02378334 -0.02483094 -0.02576029 -0.02644869 -0.02663312 1000 -0.02378334 -0.02483094 -0.02576029 -0.02644869 -0.02663312 1000 -0.02299832 -0.02086993 -0.01811793 -0.01627656 -0.01525654 1000 -0.02299832 -0.02086993 -0.01811793 -0.01627656 -0.01525654 1000
lala 7 1.2 1 first 2 1 96 5 5.7 0.61999773979187 -1 0 1 0 -0.01132575 -0.01121454 -0.01131852 1000 1000 1000 -0.01132575 -0.01121454 -0.01131852 1000 1000 1000 -0.01395125 -0.01489941 -0.01553838 -0.01599277 -0.01601733 1000 -0.01395125 -0.01489941 -0.01553838 -0.01599277 -0.01601733 1000
lala 3 1.2 1 second 6 1 97 4 2.64 0.679997682571411 1 0 1 1 -0.01409423 -0.01399664 -0.01399741 -0.01366816 -0.01368453 1000 -0.01409423 -0.01399664 -0.01399741 -0.01366816 -0.01368453 1000 -0.01507877 -0.0149148 -0.01517863 -0.01509177 -0.01407333 1000 -0.01507877 -0.0149148 -0.01517863 -0.01509177 -0.01407333 1000
lala 8 1.2 1 second 14 1 98 5 4.5 0.419997930526733 0 0 1 0 -0.01096715 -0.01054295 -0.009935809 -0.01029911 -0.01079976 1000 -0.01096715 -0.01054295 -0.009935809 -0.01029911 -0.01079976 1000 -0.01205514 -0.01213298 -0.01256152 -0.0127045 -0.01249057 1000 -0.01205514 -0.01213298 -0.01256152 -0.0127045 -0.01249057 1000
lala 5 1.2 1 first 15 1 99 5 4.25 4.03999471664429 0 1 1 0 -0.00846832 -0.008244302 -0.008677616 1000 1000 1000 -0.00846832 -0.008244302 -0.008677616 1000 1000 1000 -0.01133861 -0.01290765 -0.01418439 -0.01433291 -0.01506041 1000 -0.01133861 -0.01290765 -0.01418439 -0.01433291 -0.01506041 1000
lala 5 1.2 1 second 4 1 100 6 6.36 0.339998006820679 -1 0 1 1 -0.01422767 -0.01390108 -0.01393419 -0.01235722 -0.01144148 1000 -0.01422767 -0.01390108 -0.01393419 -0.01235722 -0.01144148 1000 -0.01291061 -0.01374862 -0.01412228 -0.01568973 -0.01677728 1000 -0.01291061 -0.01374862 -0.01412228 -0.01568973 -0.01677728 1000
lala 7 1.2 1 first 3 1 101 5 6.65 0.659997701644897 -1 1 1 1 -0.01491703 -0.0135072 -0.01375672 1000 1000 1000 -0.01491703 -0.0135072 -0.01375672 1000 1000 1000 -0.02039276 -0.02008982 -0.01970783 -0.01929989 -0.01879999 1000 -0.02039276 -0.02008982 -0.01970783 -0.01929989 -0.01879999 1000
lala 6 1.2 0 first 15 1 102 5 3.05 0.01999831199646 0 1 -1 0 -0.01890096 -0.01867643 -0.01795024 1000 1000 1000 -0.01890096 -0.01867643 -0.01795024 1000 1000 1000 -0.01126177 -0.01063903 -0.01100128 -0.01316882 -0.01498998 1000 -0.01126177 -0.01063903 -0.01100128 -0.01316882 -0.01498998 1000
lala 7 1.2 1 first 15 1 103 5 4.25 0.299998044967651 0 1 1 0 -0.01639935 -0.01676612 -0.01584712 1000 1000 1000 -0.01639935 -0.01676612 -0.01584712 1000 1000 1000 -0.01941346 -0.01895851 -0.01841038 -0.01828826 -0.01906272 1000 -0.01941346 -0.01895851 -0.01841038 -0.01828826 -0.01906272 1000
lala 7 1.2 1 second 1 1 104 4 5.320001 0.079998254776001 -1 1 1 1 -0.01843896 -0.0176635 -0.01673881 -0.01708156 -0.01738603 1000 -0.01843896 -0.0176635 -0.01673881 -0.01708156 -0.01738603 1000 -0.01955934 -0.01957862 -0.0193785 -0.01970618 -0.01969384 1000 -0.01955934 -0.01957862 -0.0193785 -0.01970618 -0.01969384 1000
lala 6 1.2 0 first 4 1 105 6 5.16 0.439997911453247 -1 0 -1 1 -0.02029974 -0.02070502 -0.02038256 1000 1000 1000 -0.02029974 -0.02070502 -0.02038256 1000 1000 1000 -0.01975192 -0.0195874 -0.01999664 -0.02010951 -0.02049227 1000 -0.01975192 -0.0195874 -0.01999664 -0.02010951 -0.02049227 1000
lala 5 1.2 1 first 16 1 106 6 6.36 0.459997892379761 0 0 1 0 -0.02109243 -0.02080265 -0.01935591 1000 1000 1000 -0.02109243 -0.02080265 -0.01935591 1000 1000 1000 -0.01521151 -0.01492893 -0.01497154 -0.01544451 -0.01602392 1000 -0.01521151 -0.01492893 -0.01497154 -0.01544451 -0.01602392 1000
lala 6 1.2 0 first 7 1 107 4 4.12 0.379997968673706 1 1 -1 1 -0.01931848 -0.01941661 -0.01865839 1000 1000 1000 -0.01931848 -0.01941661 -0.01865839 1000 1000 1000 -0.01884233 -0.01892655 -0.01857288 -0.01741444 -0.0167685 1000 -0.01884233 -0.01892655 -0.01857288 -0.01741444 -0.0167685 1000
lala 9 1.2 1 second 8 1 108 5 3.3 0.479997873306274 1 0 1 0 -0.01764263 -0.0174081 -0.01672096 -0.01645043 -0.01689769 1000 -0.01764263 -0.0174081 -0.01672096 -0.01645043 -0.01689769 1000 -0.01719655 -0.01716237 -0.01730588 -0.01709036 -0.01701672 1000 -0.01719655 -0.01716237 -0.01730588 -0.01709036 -0.01701672 1000
lala 7 1.2 1 second 4 1 109 6 6.36 0.299998044967651 -1 0 1 1 -0.0179535 -0.01744711 -0.01695176 -0.01711285 -0.01791293 1000 -0.0179535 -0.01744711 -0.01695176 -0.01711285 -0.01791293 1000 -0.02081279 -0.02118149 -0.02073002 -0.01969923 -0.01912818 1000 -0.02081279 -0.02118149 -0.02073002 -0.01969923 -0.01912818 1000
lala 10 0.6 1 second 17 1 110 6 4.980001 0.01999831199646 0 1 1 1 -0.02024809 -0.0205567 -0.02039157 -0.01951621 -0.01926703 1000 -0.02024809 -0.0205567 -0.02039157 -0.01951621 -0.01926703 1000 -0.01924627 -0.01856793 -0.01812191 -0.01763609 -0.01783312 1000 -0.01924627 -0.01856793 -0.01812191 -0.01763609 -0.01783312 1000
lala 11 0.6 1 second 17 1 111 6 4.380001 0.01999831199646 0 1 1 1 -0.01723849 -0.01767709 -0.01738894 -0.0175248 -0.01725735 1000 -0.01723849 -0.01767709 -0.01738894 -0.0175248 -0.01725735 1000 -0.0181638 -0.01813554 -0.01774621 -0.01880613 -0.01982366 1000 -0.0181638 -0.01813554 -0.01774621 -0.01880613 -0.01982366 1000
lala 8 1.2 0 first 2 1 112 5 4.5 2.03999662399292 -1 0 -1 0 -0.01902965 -0.01807026 -0.01812999 1000 1000 1000 -0.01902965 -0.01807026 -0.01812999 1000 1000 1000 -0.01920517 -0.0193131 -0.01936759 -0.01926074 -0.01907708 1000 -0.01920517 -0.0193131 -0.01936759 -0.01926074 -0.01907708 1000
lala 4 1.2 0 first 6 1 113 4 1.44 0.219998121261597 1 0 -1 1 -0.01787347 -0.01398358 -0.01055318 1000 1000 1000 -0.01787347 -0.01398358 -0.01055318 1000 1000 1000 -0.00567491 -0.006942627 -0.00757936 -0.008110954 -0.008068113 1000 -0.00567491 -0.006942627 -0.00757936 -0.008110954 -0.008068113 1000
lala 8 1.2 0 second 4 1 114 6 5.16 0.419997930526733 -1 0 -1 1 -0.0109048 -0.005826782 -0.002662452 -0.0007161659 0.0003928863 1000 -0.0109048 -0.005826782 -0.002662452 -0.0007161659 0.0003928863 1000 -0.005168509 -0.004468285 -0.003349361 -0.003671086 -0.00396569 1000 -0.005168509 -0.004468285 -0.003349361 -0.003671086 -0.00396569 1000
lala 5 1.2 1 second 6 1 115 4 2.64 1.81999683380127 1 0 1 0 -0.008363225 -0.008935117 -0.008945314 -0.009367062 -0.009173111 1000 -0.008363225 -0.008935117 -0.008945314 -0.009367062 -0.009173111 1000 -0.01335443 -0.01194551 -0.01214089 -0.01193367 -0.01219884 1000 -0.01335443 -0.01194551 -0.01214089 -0.01193367 -0.01219884 1000
lala 5 1.2 1 first 5 1 116 6 7.98 0.299998044967651 -1 1 1 0 -0.01493581 -0.01519636 -0.01479117 1000 1000 1000 -0.01493581 -0.01519636 -0.01479117 1000 1000 1000 -0.01215575 -0.01185433 -0.0120442 -0.01184787 -0.01205989 1000 -0.01215575 -0.01185433 -0.0120442 -0.01184787 -0.01205989 1000
lala 6 1.2 0 second 9 1 117 5 3.05 0.319998025894165 1 1 -1 1 -0.01138853 -0.01120564 -0.01069297 -0.009734228 -0.009895076 1000 -0.01138853 -0.01120564 -0.01069297 -0.009734228 -0.009895076 1000 -0.0117661 -0.01192603 -0.01280778 -0.01285676 -0.01314418 1000 -0.0117661 -0.01192603 -0.01280778 -0.01285676 -0.01314418 1000
lala 6 1.2 1 first 11 1 118 6 4.380001 0.859997510910034 1 1 1 0 -0.01760498 -0.01778085 -0.01784917 1000 1000 1000 -0.01760498 -0.01778085 -0.01784917 1000 1000 1000 -0.01674051 -0.01597766 -0.01512352 -0.01479715 -0.0149824 1000 -0.01674051 -0.01597766 -0.01512352 -0.01479715 -0.0149824 1000
lala 9 1.2 1 first 2 1 119 5 5.7 0.23999810218811 -1 0 1 0 -0.01761087 -0.01731378 -0.01800453 1000 1000 1000 -0.01761087 -0.01731378 -0.01800453 1000 1000 1000 -0.01980509 -0.02008083 -0.02002666 -0.02038215 -0.02028817 1000 -0.01980509 -0.02008083 -0.02002666 -0.02038215 -0.02028817 1000
lala 12 0.6 1 second 17 1 120 6 3.780001 0.659997701644897 0 1 1 1 -0.01938117 -0.01951681 -0.01926815 -0.01983276 -0.02071321 1000 -0.01938117 -0.01951681 -0.01926815 -0.01983276 -0.02071321 1000 -0.02205163 -0.02267623 -0.0229283 -0.02250842 -0.02240252 1000 -0.02205163 -0.02267623 -0.0229283 -0.02250842 -0.02240252 1000
lala 8 1.2 0 first 3 1 121 5 5.45 0.259998083114624 -1 1 -1 0 -0.0225874 -0.0234918 -0.02425379 1000 1000 1000 -0.0225874 -0.0234918 -0.02425379 1000 1000 1000 -0.02313907 -0.02396593 -0.02421003 -0.02412137 -0.02444354 1000 -0.02313907 -0.02396593 -0.02421003 -0.02412137 -0.02444354 1000
lala 6 1.2 0 second 6 1 122 4 1.44 0.459997892379761 1 0 -1 1 -0.02312493 -0.02029818 -0.01819626 -0.01658724 -0.01663633 1000 -0.02312493 -0.02029818 -0.01819626 -0.01658724 -0.01663633 1000 -0.01592291 -0.01639551 -0.01621527 -0.01620611 -0.01651104 1000 -0.01592291 -0.01639551 -0.01621527 -0.01620611 -0.01651104 1000
lala 8 1.2 1 first 1 1 123 4 4.120001 0.23999810218811 -1 1 1 0 -0.01923366 -0.01909989 -0.01924786 1000 1000 1000 -0.01923366 -0.01909989 -0.01924786 1000 1000 1000 -0.01901339 -0.01921641 -0.01899546 -0.01845874 -0.01789052 1000 -0.01901339 -0.01921641 -0.01899546 -0.01845874 -0.01789052 1000
lala 6 1.2 1 second 0 1 124 4 6.24 0.259998083114624 -1 0 1 1 -0.01741507 -0.01764746 -0.01810825 -0.01792534 -0.01738008 1000 -0.01741507 -0.01764746 -0.01810825 -0.01792534 -0.01738008 1000 -0.01615458 -0.01629789 -0.01694174 -0.01776985 -0.01883544 1000 -0.01615458 -0.01629789 -0.01694174 -0.01776985 -0.01883544 1000
lala 9 1.2 0 first 4 1 125 6 6.36 0.719997644424438 -1 0 -1 1 -0.01924215 -0.01822602 -0.01786292 1000 1000 1000 -0.01924215 -0.01822602 -0.01786292 1000 1000 1000 -0.01912018 -0.01880833 -0.01856787 -0.01799118 -0.01830706 1000 -0.01912018 -0.01880833 -0.01856787 -0.01799118 -0.01830706 1000
lala 7 1.2 0 first 9 1 126 5 4.25 0.219998121261597 1 1 -1 1 -0.01920848 -0.01944993 -0.01932306 1000 1000 1000 -0.01920848 -0.01944993 -0.01932306 1000 1000 1000 -0.01774396 -0.01703922 -0.01738113 -0.01784292 -0.01888464 1000 -0.01774396 -0.01703922 -0.01738113 -0.01784292 -0.01888464 1000
lala 6 1.2 1 second 13 1 127 4 4.12 0.299998044967651 0 1 1 0 -0.01847544 -0.01871408 -0.01961622 -0.02031992 -0.020547 1000 -0.01847544 -0.01871408 -0.01961622 -0.02031992 -0.020547 1000 -0.01833571 -0.01793352 -0.01758992 -0.01768746 -0.01827814 1000 -0.01833571 -0.01793352 -0.01758992 -0.01768746 -0.01827814 1000
lala 7 1.2 0 first 11 1 128 6 3.180001 0.299998044967651 1 1 -1 1 -0.01792663 -0.01772024 -0.01718803 1000 1000 1000 -0.01792663 -0.01772024 -0.01718803 1000 1000 1000 -0.02022512 -0.0204636 -0.02082937 -0.02021191 -0.01999851 1000 -0.02022512 -0.0204636 -0.02082937 -0.02021191 -0.01999851 1000
lala 10 0.6 1 first 8 1 129 5 2.7 0.539997816085815 1 0 1 0 -0.01992268 -0.02008113 -0.01993534 1000 1000 1000 -0.01992268 -0.02008113 -0.01993534 1000 1000 1000 -0.02244542 -0.02245102 -0.02154267 -0.02088381 -0.02127665 1000 -0.02244542 -0.02245102 -0.02154267 -0.02088381 -0.02127665 1000
lala 4 1.2 1 second 10 1 130 6 2.76 2.27999639511108 1 0 1 0 -0.01740732 -0.01766579 -0.01764528 -0.01743345 -0.01675973 1000 -0.01740732 -0.01766579 -0.01764528 -0.01743345 -0.01675973 1000 -0.01835375 -0.01833046 -0.01804948 -0.01876624 -0.01913056 1000 -0.01835375 -0.01833046 -0.01804948 -0.01876624 -0.01913056 1000
lala 8 1.2 0 second 12 1 131 4 3.84 0.579997777938843 0 0 -1 0 -0.01987272 -0.02093679 -0.02091221 -0.02053741 -0.01981984 1000 -0.01987272 -0.02093679 -0.02091221 -0.02053741 -0.01981984 1000 -0.02016881 -0.01993881 -0.01972508 -0.0197311 -0.02022734 1000 -0.02016881 -0.01993881 -0.01972508 -0.0197311 -0.02022734 1000
lala 9 1.2 1 first 3 1 132 5 6.65 0.279998064041138 -1 1 1 1 -0.02003209 -0.01982478 -0.01958562 1000 1000 1000 -0.02003209 -0.01982478 -0.01958562 1000 1000 1000 -0.01959959 -0.01919762 -0.01864942 -0.01901901 -0.01912452 1000 -0.01959959 -0.01919762 -0.01864942 -0.01901901 -0.01912452 1000
lala 6 1.2 1 second 16 1 133 6 5.16 0.279998064041138 0 0 1 1 -0.01765738 -0.01796819 -0.01813663 -0.0185244 -0.01849435 1000 -0.01765738 -0.01796819 -0.01813663 -0.0185244 -0.01849435 1000 -0.01806165 -0.01810305 -0.01757609 -0.01817936 -0.01909424 1000 -0.01806165 -0.01810305 -0.01757609 -0.01817936 -0.01909424 1000
lala 10 1.2 1 second 4 1 134 6 7.559999 0.499997854232788 -1 0 1 0 -0.01898874 -0.01837024 -0.017265 -0.0172411 -0.01747105 1000 -0.01898874 -0.01837024 -0.017265 -0.0172411 -0.01747105 1000 -0.01804646 -0.01933958 -0.02033296 -0.02094663 -0.02023015 1000 -0.01804646 -0.01933958 -0.02033296 -0.02094663 -0.02023015 1000
lala 10 0.6 1 second 2 1 135 5 5.1 0.61999773979187 -1 0 1 1 -0.01858078 -0.01817911 -0.01837038 -0.01813547 -0.01853638 1000 -0.01858078 -0.01817911 -0.01837038 -0.01813547 -0.01853638 1000 -0.0185727 -0.01874807 -0.01897056 -0.01838904 -0.01804778 1000 -0.0185727 -0.01874807 -0.01897056 -0.01838904 -0.01804778 1000
lala 9 1.2 0 second 14 1 136 5 3.3 0.279998064041138 0 0 -1 0 -0.0199731 -0.01984832 -0.01899534 -0.0196526 -0.01961238 1000 -0.0199731 -0.01984832 -0.01899534 -0.0196526 -0.01961238 1000 -0.01957555 -0.01957974 -0.01905779 -0.01846094 -0.01796226 1000 -0.01957555 -0.01957974 -0.01905779 -0.01846094 -0.01796226 1000
lala 11 0.6 1 first 2 1 137 5 4.5 0.159998178482056 -1 0 1 0 -0.01931739 -0.01937046 -0.0197243 1000 1000 1000 -0.01931739 -0.01937046 -0.0197243 1000 1000 1000 -0.0172475 -0.01701115 -0.01712866 -0.01692292 -0.01656073 1000 -0.0172475 -0.01701115 -0.01712866 -0.01692292 -0.01656073 1000
lala 5 1.2 0 first 10 1 138 6 1.98 4.15999460220337 1 0 -1 1 -0.01701698 -0.01679362 -0.01682309 1000 1000 1000 -0.01701698 -0.01679362 -0.01682309 1000 1000 1000 -0.01779304 -0.0179096 -0.01763283 -0.017622 -0.01793563 1000 -0.01779304 -0.0179096 -0.01763283 -0.017622 -0.01793563 1000
lala 10 0.6 1 second 3 1 139 5 6.05 0.299998044967651 -1 1 1 0 -0.01949937 -0.01965562 -0.0191225 -0.01882342 -0.01938857 1000 -0.01949937 -0.01965562 -0.0191225 -0.01882342 -0.01938857 1000 -0.01865149 -0.01825781 -0.01842852 -0.01861701 -0.01864782 1000 -0.01865149 -0.01825781 -0.01842852 -0.01861701 -0.01864782 1000
lala 7 1.2 1 first 0 1 140 4 5.04 0.479997873306274 -1 0 1 0 -0.01850066 -0.0185339 -0.01867075 1000 1000 1000 -0.01850066 -0.0185339 -0.01867075 1000 1000 1000 -0.0219448 -0.02193008 -0.02151773 -0.02098572 -0.02018107 1000 -0.0219448 -0.02193008 -0.02151773 -0.02098572 -0.02018107 1000
lala 9 1.2 0 second 1 1 141 4 2.920001 0.479997873306274 -1 1 -1 1 -0.01872654 -0.01786505 -0.01804233 -0.01894599 -0.01984623 1000 -0.01872654 -0.01786505 -0.01804233 -0.01894599 -0.01984623 1000 -0.02171112 -0.02237922 -0.02344157 -0.0231666 -0.02332668 1000 -0.02171112 -0.02237922 -0.02344157 -0.0231666 -0.02332668 1000
lala 8 1.2 0 first 9 1 142 5 5.45 0.539997816085815 1 1 -1 1 -0.02228329 -0.021831 -0.02135128 1000 1000 1000 -0.02228329 -0.021831 -0.02135128 1000 1000 1000 -0.02080025 -0.02113542 -0.0219516 -0.02262594 -0.02291858 1000 -0.02080025 -0.02113542 -0.0219516 -0.02262594 -0.02291858 1000
lala 9 1.2 1 first 9 1 143 5 6.65 0.199998140335083 1 1 1 0 -0.01974804 -0.01988 -0.01955967 1000 1000 1000 -0.01974804 -0.01988 -0.01955967 1000 1000 1000 -0.0197154 -0.020151 -0.0197536 -0.01938939 -0.02005122 1000 -0.0197154 -0.020151 -0.0197536 -0.01938939 -0.02005122 1000
lala 6 1.2 1 second 10 1 144 6 3.18 0.639997720718384 1 0 1 0 -0.01961711 -0.02019144 -0.02038095 -0.02002972 -0.0196015 1000 -0.01961711 -0.02019144 -0.02038095 -0.02002972 -0.0196015 1000 -0.02087106 -0.02141732 -0.02152622 -0.02118808 -0.02049056 1000 -0.02087106 -0.02141732 -0.02152622 -0.02118808 -0.02049056 1000
lala 8 1.2 1 first 11 1 145 6 4.380001 0.439997911453247 1 1 1 1 -0.02075088 -0.02019203 -0.01998176 1000 1000 1000 -0.02075088 -0.02019203 -0.01998176 1000 1000 1000 -0.0185705 -0.01879297 -0.01865144 -0.01844787 -0.01829712 1000 -0.0185705 -0.01879297 -0.01865144 -0.01844787 -0.01829712 1000
lala 11 0.6 1 first 4 1 146 6 6.96 0.439997911453247 -1 0 1 0 -0.02097126 -0.02095176 -0.02014599 1000 1000 1000 -0.02097126 -0.02095176 -0.02014599 1000 1000 1000 -0.02211548 -0.02163739 -0.02094068 -0.01997321 -0.01948147 1000 -0.02211548 -0.02163739 -0.02094068 -0.01997321 -0.01948147 1000
lala 8 1.2 0 second 0 1 147 4 3.84 1.25999712944031 -1 0 -1 1 -0.0213007 -0.02087815 -0.0208916 -0.02156449 -0.02205642 1000 -0.0213007 -0.02087815 -0.0208916 -0.02156449 -0.02205642 1000 -0.02094728 -0.02121904 -0.02119722 -0.02102643 -0.02045088 1000 -0.02094728 -0.02121904 -0.02119722 -0.02102643 -0.02045088 1000
lala 7 1.2 1 second 16 1 148 6 3.96 0.379997968673706 0 0 1 0 -0.02271449 -0.0223895 -0.02176461 -0.02177527 -0.02181081 1000 -0.02271449 -0.0223895 -0.02176461 -0.02177527 -0.02181081 1000 -0.02214496 -0.02215229 -0.02183623 -0.02098481 -0.02118686 1000 -0.02214496 -0.02215229 -0.02183623 -0.02098481 -0.02118686 1000
lala 9 1.2 1 second 12 1 149 4 5.04 0.359997987747192 0 0 1 0 -0.02073446 -0.02067298 -0.0199326 -0.01989433 -0.01961012 1000 -0.02073446 -0.02067298 -0.0199326 -0.01989433 -0.01961012 1000 -0.01985176 -0.0196644 -0.01957573 -0.01894443 -0.01911384 1000 -0.01985176 -0.0196644 -0.01957573 -0.01894443 -0.01911384 1000
lala 10 0.6 1 second 14 1 150 5 3.9 0.259998083114624 0 0 1 0 -0.01128523 -0.01032128 -0.0135924 -0.01646321 -0.01714221 1000 -0.01128523 -0.01032128 -0.0135924 -0.01646321 -0.01714221 1000 -0.02501678 -0.02517412 -0.02590262 -0.02622507 -0.02654744 1000 -0.02501678 -0.02517412 -0.02590262 -0.02622507 -0.02654744 1000
lala 11 0.6 0 second 8 1 151 5 2.1 0.259998083114624 1 0 -1 0 -0.01297795 -0.0133315 -0.01425466 -0.0156067 -0.01551427 1000 -0.01297795 -0.0133315 -0.01425466 -0.0156067 -0.01551427 1000 -0.01847712 -0.01828886 -0.01862224 -0.01862573 -0.0182888 1000 -0.01847712 -0.01828886 -0.01862224 -0.01862573 -0.0182888 1000
lala 12 0.6 1 second 4 1 152 6 6.36 0.439997911453247 -1 0 1 1 -0.01557542 -0.01549175 -0.01551032 -0.01599677 -0.01609582 1000 -0.01557542 -0.01549175 -0.01551032 -0.01599677 -0.01609582 1000 -0.02123111 -0.02169714 -0.02223141 -0.02260254 -0.02277165 1000 -0.02123111 -0.02169714 -0.02223141 -0.02260254 -0.02277165 1000
lala 10 0.6 1 second 1 1 153 4 3.520001 0.139998197555542 -1 1 1 0 -0.01809117 -0.01727259 -0.01706429 -0.01669853 -0.01687633 1000 -0.01809117 -0.01727259 -0.01706429 -0.01669853 -0.01687633 1000 -0.01891024 -0.019296 -0.01967807 -0.01996708 -0.02061418 1000 -0.01891024 -0.019296 -0.01967807 -0.01996708 -0.02061418 1000
lala 7 1.2 0 second 6 1 154 4 2.64 0.379997968673706 1 0 -1 0 -0.02156412 -0.02120678 -0.02081691 -0.02036942 -0.02018999 1000 -0.02156412 -0.02120678 -0.02081691 -0.02036942 -0.02018999 1000 -0.0186091 -0.0192665 -0.02018368 -0.02108888 -0.02175519 1000 -0.0186091 -0.0192665 -0.02018368 -0.02108888 -0.02175519 1000
lala 7 1.2 1 second 13 1 155 4 2.92 0.139998197555542 0 1 1 1 -0.01492758 -0.01541956 -0.0157378 -0.01594669 -0.01637786 1000 -0.01492758 -0.01541956 -0.0157378 -0.01594669 -0.01637786 1000 -0.01687017 -0.01615936 -0.015843 -0.01542691 -0.0153595 1000 -0.01687017 -0.01615936 -0.015843 -0.01542691 -0.0153595 1000
lala 9 1.2 0 first 11 1 156 6 3.180001 0.459997892379761 1 1 -1 1 -0.01547014 -0.01636872 -0.0170921 1000 1000 1000 -0.01547014 -0.01636872 -0.0170921 1000 1000 1000 -0.01943547 -0.01979677 -0.01975321 -0.02000342 -0.02014428 1000 -0.01943547 -0.01979677 -0.01975321 -0.02000342 -0.02014428 1000
lala 8 1.2 0 first 13 1 157 4 1.72 0.979997396469116 0 1 -1 1 -0.01920095 -0.01858441 -0.01803014 1000 1000 1000 -0.01920095 -0.01858441 -0.01803014 1000 1000 1000 -0.01785817 -0.01791277 -0.01818224 -0.01806672 -0.01829863 1000 -0.01785817 -0.01791277 -0.01818224 -0.01806672 -0.01829863 1000
lala 9 1.2 1 second 0 1 158 4 5.04 0.279998064041138 -1 0 1 0 -0.0200979 -0.02013359 -0.02009798 -0.01974636 -0.0192263 1000 -0.0200979 -0.02013359 -0.02009798 -0.01974636 -0.0192263 1000 -0.02081292 -0.02106045 -0.02130336 -0.02149412 -0.02192053 1000 -0.02081292 -0.02106045 -0.02130336 -0.02149412 -0.02192053 1000
lala 10 0.6 1 second 12 1 159 4 4.44 0.079998254776001 0 0 1 0 -0.02147146 -0.02151589 -0.02166191 -0.0212998 -0.02143727 1000 -0.02147146 -0.02151589 -0.02166191 -0.0212998 -0.02143727 1000 -0.02351321 -0.02322269 -0.02328926 -0.02365458 -0.02386927 1000 -0.02351321 -0.02322269 -0.02328926 -0.02365458 -0.02386927 1000
lala 10 0.6 1 second 11 1 160 6 3.780001 0.339998006820679 1 1 1 1 -0.02483324 -0.02537227 -0.02606008 -0.02612209 -0.02642676 1000 -0.02483324 -0.02537227 -0.02606008 -0.02612209 -0.02642676 1000 -0.006230223 -0.005520195 -0.007497273 -0.006476369 -0.007010715 1000 -0.006230223 -0.005520195 -0.007497273 -0.006476369 -0.007010715 1000
lala 7 1.2 1 second 7 1 161 4 5.32 0.539997816085815 1 1 1 1 -0.002151192 -0.00344435 -0.009990375 -0.01460202 -0.01531339 1000 -0.002151192 -0.00344435 -0.009990375 -0.01460202 -0.01531339 1000 -0.02587862 -0.02739566 -0.02686434 -0.02902599 -0.03255554 1000 -0.02587862 -0.02739566 -0.02686434 -0.02902599 -0.03255554 1000
lala 11 0.6 0 second 3 1 162 5 5.45 0.639997720718384 -1 1 -1 0 -0.0002931177 -0.001459979 -0.0023038 -0.001145857 -0.0009581529 1000 -0.0002931177 -0.001459979 -0.0023038 -0.001145857 -0.0009581529 1000 -0.01205808 -0.01206124 -0.01077697 -0.01147057 -0.0103735 1000 -0.01205808 -0.01206124 -0.01077697 -0.01147057 -0.0103735 1000
lala 11 0.3 1 second 11 1 163 6 3.480001 0.299998044967651 1 1 1 1 -0.01689832 -0.01861697 -0.01983082 -0.02132297 -0.02289351 1000 -0.01689832 -0.01861697 -0.01983082 -0.02132297 -0.02289351 1000 -0.02294321 -0.0235336 -0.02396196 -0.02410095 -0.0261915 1000 -0.02294321 -0.0235336 -0.02396196 -0.02410095 -0.0261915 1000
lala 12 0.3 0 second 11 1 164 6 3.180001 0.459997892379761 1 1 -1 1 -0.009239385 -0.007850052 -0.006783393 -0.004938203 -0.005189526 1000 -0.009239385 -0.007850052 -0.006783393 -0.004938203 -0.005189526 1000 -0.009908332 -0.01056202 -0.01095869 -0.01099542 -0.01045077 1000 -0.009908332 -0.01056202 -0.01095869 -0.01099542 -0.01045077 1000
lala 10 0.6 1 first 9 1 165 5 6.05 0.01999831199646 1 1 1 1 -0.01000479 -0.009948513 -0.01015719 1000 1000 1000 -0.01000479 -0.009948513 -0.01015719 1000 1000 1000 -0.01151683 -0.01172487 -0.01178308 -0.01163425 -0.01185647 1000 -0.01151683 -0.01172487 -0.01178308 -0.01163425 -0.01185647 1000
lala 8 1.2 0 second 15 1 166 5 3.05 0.23999810218811 0 1 -1 1 -0.01168966 -0.01135494 -0.01097373 -0.01045218 -0.01121726 1000 -0.01168966 -0.01135494 -0.01097373 -0.01045218 -0.01121726 1000 -0.01939332 -0.02063467 -0.02030957 -0.01911622 -0.01793402 1000 -0.01939332 -0.02063467 -0.02030957 -0.01911622 -0.01793402 1000
lala 13 0.6 1 first 4 1 167 6 5.76 0.01999831199646 -1 0 1 0 -0.01488442 -0.01379058 -0.01298542 1000 1000 1000 -0.01488442 -0.01379058 -0.01298542 1000 1000 1000 -0.008116762 -0.007794631 -0.007878191 -0.008695799 -0.009367526 1000 -0.008116762 -0.007794631 -0.007878191 -0.008695799 -0.009367526 1000
lala 8 1.2 0 second 6 1 168 4 3.84 0.959997415542603 1 0 -1 1 -0.01119777 -0.01140354 -0.01154009 -0.01150134 -0.0118924 1000 -0.01119777 -0.01140354 -0.01154009 -0.01150134 -0.0118924 1000 -0.0117611 -0.01196289 -0.01213167 -0.01164331 -0.01161262 1000 -0.0117611 -0.01196289 -0.01213167 -0.01164331 -0.01161262 1000
lala 14 1.2 0 second 4 1 169 6 4.559999 0.179998159408569 -1 0 -1 0 -0.01288832 -0.01276251 -0.01265354 -0.01261734 -0.0123515 1000 -0.01288832 -0.01276251 -0.01265354 -0.01261734 -0.0123515 1000 -0.01492414 -0.01443484 -0.01419137 -0.01400742 -0.01398248 1000 -0.01492414 -0.01443484 -0.01419137 -0.01400742 -0.01398248 1000
lala 12 0.3 0 first 3 1 170 5 5.75 0.39999794960022 -1 1 -1 0 -0.0135716 -0.01360485 -0.01289299 1000 1000 1000 -0.0135716 -0.01360485 -0.01289299 1000 1000 1000 -0.01204978 -0.01310791 -0.01409323 -0.01419147 -0.01426964 1000 -0.01204978 -0.01310791 -0.01409323 -0.01419147 -0.01426964 1000
lala 12 0.6 1 second 2 1 171 5 3.9 0.01999831199646 -1 0 1 1 -0.01369861 -0.01429892 -0.01458585 -0.01449582 -0.01449373 1000 -0.01369861 -0.01429892 -0.01458585 -0.01449582 -0.01449373 1000 -0.01512858 -0.01437026 -0.01454548 -0.01488136 -0.01524103 1000 -0.01512858 -0.01437026 -0.01454548 -0.01488136 -0.01524103 1000
lala 9 1.2 0 first 6 1 172 4 5.04 0.219998121261597 1 0 -1 0 -0.015439 -0.01528548 -0.01528036 1000 1000 1000 -0.015439 -0.01528548 -0.01528036 1000 1000 1000 -0.01351365 -0.01426386 -0.01439462 -0.01436777 -0.01469276 1000 -0.01351365 -0.01426386 -0.01439462 -0.01436777 -0.01469276 1000
lala 6 1.2 0 second 5 1 173 6 6.780001 0.259998083114624 -1 1 -1 0 -0.01507789 -0.01507571 -0.01410395 -0.01363627 -0.01313144 1000 -0.01507789 -0.01507571 -0.01410395 -0.01363627 -0.01313144 1000 -0.01560274 -0.01551146 -0.01541014 -0.01565453 -0.01525292 1000 -0.01560274 -0.01551146 -0.01541014 -0.01565453 -0.01525292 1000
lala 10 0.6 1 first 0 1 174 4 4.44 0.499997854232788 -1 0 1 0 -0.01389232 -0.01366517 -0.01384071 1000 1000 1000 -0.01389232 -0.01366517 -0.01384071 1000 1000 1000 -0.01602547 -0.01653089 -0.01659216 -0.01666605 -0.0162804 1000 -0.01602547 -0.01653089 -0.01659216 -0.01666605 -0.0162804 1000
lala 13 1.2 0 second 2 1 175 5 2.7 0.279998064041138 -1 0 -1 1 -0.01608645 -0.01574107 -0.01559389 -0.01542349 -0.01526834 1000 -0.01608645 -0.01574107 -0.01559389 -0.01542349 -0.01526834 1000 -0.01534299 -0.01544531 -0.01517814 -0.0151181 -0.01527239 1000 -0.01534299 -0.01544531 -0.01517814 -0.0151181 -0.01527239 1000
lala 11 0.6 1 first 9 1 176 5 5.45 0.159998178482056 1 1 1 0 -0.01533935 -0.01532534 -0.01528873 1000 1000 1000 -0.01533935 -0.01532534 -0.01528873 1000 1000 1000 -0.01402129 -0.01166878 -0.01123179 -0.01156013 -0.0113985 1000 -0.01402129 -0.01166878 -0.01123179 -0.01156013 -0.0113985 1000
lala 15 0.6 1 first 4 1 177 6 5.159999 0.199998140335083 -1 0 1 0 -0.01369812 -0.01402103 -0.01447785 1000 1000 1000 -0.01369812 -0.01402103 -0.01447785 1000 1000 1000 -0.01474943 -0.01506735 -0.01522741 -0.0153288 -0.01514053 1000 -0.01474943 -0.01506735 -0.01522741 -0.0153288 -0.01514053 1000
lala 11 0.6 0 first 0 1 178 4 3.84 0.179998159408569 -1 0 -1 0 -0.01518721 -0.01490994 -0.01447613 1000 1000 1000 -0.01518721 -0.01490994 -0.01447613 1000 1000 1000 -0.01465318 -0.01513425 -0.01479089 -0.0151723 -0.01567388 1000 -0.01465318 -0.01513425 -0.01479089 -0.0151723 -0.01567388 1000
lala 9 1.2 0 first 13 1 179 4 2.92 0.319998025894165 0 1 -1 1 -0.01402535 -0.01365095 -0.01372135 1000 1000 1000 -0.01402535 -0.01365095 -0.01372135 1000 1000 1000 -0.01582351 -0.01563129 -0.0156876 -0.01557775 -0.015596 1000 -0.01582351 -0.01563129 -0.0156876 -0.01557775 -0.015596 1000
lala 7 1.2 0 first 10 1 180 6 1.98 0.0999982357025146 1 0 -1 1 -0.01533661 -0.01494335 -0.01464211 1000 1000 1000 -0.01533661 -0.01494335 -0.01464211 1000 1000 1000 -0.01581689 -0.01609966 -0.01588453 -0.01590523 -0.01597303 1000 -0.01581689 -0.01609966 -0.01588453 -0.01590523 -0.01597303 1000
lala 13 0.15 0 second 11 1 181 6 3.330001 0.159998178482056 1 1 -1 1 -0.01618256 -0.016046 -0.01602703 -0.01595273 -0.01571364 1000 -0.01618256 -0.016046 -0.01602703 -0.01595273 -0.01571364 1000 -0.01595974 -0.015818 -0.01579697 -0.01547658 -0.01591614 1000 -0.01595974 -0.015818 -0.01579697 -0.01547658 -0.01591614 1000
lala 10 2.4 1 second 6 1 182 4 7.44 0.23999810218811 1 0 1 1 -0.01781989 -0.01803359 -0.01830703 -0.01849839 -0.01861494 1000 -0.01781989 -0.01803359 -0.01830703 -0.01849839 -0.01861494 1000 -0.01698855 -0.01708094 -0.01753268 -0.0181315 -0.01872334 1000 -0.01698855 -0.01708094 -0.01753268 -0.0181315 -0.01872334 1000
lala 16 0.3 0 first 4 1 183 6 4.859999 0.579997777938843 -1 0 -1 0 -0.02058148 -0.02063838 -0.02060595 1000 1000 1000 -0.02058148 -0.02063838 -0.02060595 1000 1000 1000 -0.01942623 -0.01898897 -0.01885799 -0.0184216 -0.01878133 1000 -0.01942623 -0.01898897 -0.01885799 -0.0184216 -0.01878133 1000
lala 11 0.3 1 first 14 1 184 5 3.6 0.199998140335083 0 0 1 1 -0.01945353 -0.0193508 -0.01896348 1000 1000 1000 -0.01945353 -0.0193508 -0.01896348 1000 1000 1000 -0.01764087 -0.01798362 -0.01824333 -0.01832869 -0.01820245 1000 -0.01764087 -0.01798362 -0.01824333 -0.01832869 -0.01820245 1000
lala 8 1.2 0 second 10 1 185 6 3.18 0.23999810218811 1 0 -1 1 -0.01970187 -0.0190964 -0.019302 -0.02001205 -0.0204982 1000 -0.01970187 -0.0190964 -0.019302 -0.02001205 -0.0204982 1000 -0.01891063 -0.01935858 -0.01974723 -0.01961107 -0.01964974 1000 -0.01891063 -0.01935858 -0.01974723 -0.01961107 -0.01964974 1000
lala 14 0.6 0 second 2 1 186 5 3.3 0.139998197555542 -1 0 -1 1 -0.01671573 -0.01570699 -0.01546847 -0.01527701 -0.01551433 1000 -0.01671573 -0.01570699 -0.01546847 -0.01527701 -0.01551433 1000 -0.01666909 -0.01655146 -0.01722828 -0.01743356 -0.01734488 1000 -0.01666909 -0.01655146 -0.01722828 -0.01743356 -0.01734488 1000
lala 12 0.3 1 second 8 1 187 5 2.4 0.299998044967651 1 0 1 0 -0.01717554 -0.01696763 -0.01656163 -0.01657504 -0.01669734 1000 -0.01717554 -0.01696763 -0.01656163 -0.01657504 -0.01669734 1000 -0.01805216 -0.01774236 -0.01762147 -0.01743184 -0.01741216 1000 -0.01805216 -0.01774236 -0.01762147 -0.01743184 -0.01741216 1000
lala 9 1.2 1 second 10 1 188 6 4.38 0.459997892379761 1 0 1 1 -0.01598562 -0.01630148 -0.0165828 -0.01650413 -0.01641502 1000 -0.01598562 -0.01630148 -0.0165828 -0.01650413 -0.01641502 1000 -0.01858457 -0.01854767 -0.01877815 -0.01919018 -0.01922281 1000 -0.01858457 -0.01854767 -0.01877815 -0.01919018 -0.01922281 1000
lala 8 1.2 0 first 16 1 189 6 2.76 0.01999831199646 0 0 -1 1 -0.01841247 -0.01846945 -0.01882326 1000 1000 1000 -0.01841247 -0.01846945 -0.01882326 1000 1000 1000 -0.01824724 -0.01864671 -0.01903726 -0.0193104 -0.01973863 1000 -0.01824724 -0.01864671 -0.01903726 -0.0193104 -0.01973863 1000
lala 10 0.6 1 first 10 1 190 6 3.78 0.299998044967651 1 0 1 1 -0.02136043 -0.02155337 -0.02141657 1000 1000 1000 -0.02136043 -0.02155337 -0.02141657 1000 1000 1000 -0.02067649 -0.02090941 -0.0215694 -0.02174007 -0.02204626 1000 -0.02067649 -0.02090941 -0.0215694 -0.02174007 -0.02204626 1000
lala 9 1.2 0 second 15 1 191 5 4.25 0.439997911453247 0 1 -1 0 -0.02106551 -0.02096435 -0.02056331 -0.0212599 -0.0214226 1000 -0.02106551 -0.02096435 -0.02056331 -0.0212599 -0.0214226 1000 -0.01892322 -0.01867252 -0.01883093 -0.01998127 -0.02082393 1000 -0.01892322 -0.01867252 -0.01883093 -0.01998127 -0.02082393 1000
lala 14 0.15 1 second 11 1 192 6 3.480001 0.01999831199646 1 1 1 1 -0.02193803 -0.02184824 -0.02168948 -0.02218489 -0.02248775 1000 -0.02193803 -0.02184824 -0.02168948 -0.02218489 -0.02248775 1000 -0.02284208 -0.02305804 -0.02317699 -0.02312365 -0.02289622 1000 -0.02284208 -0.02305804 -0.02317699 -0.02312365 -0.02289622 1000
lala 8 1.2 1 first 7 1 193 4 4.12 0.01999831199646 1 1 1 0 -0.02458553 -0.02428178 -0.02365083 1000 1000 1000 -0.02458553 -0.02428178 -0.02365083 1000 1000 1000 -0.01432805 -0.01453016 -0.01454262 -0.01473415 -0.01491911 1000 -0.01432805 -0.01453016 -0.01454262 -0.01473415 -0.01491911 1000
lala 12 0.3 1 second 0 1 194 4 4.14 0.179998159408569 -1 0 1 0 -0.01726084 -0.01737785 -0.01690245 -0.01697766 -0.01638908 1000 -0.01726084 -0.01737785 -0.01690245 -0.01697766 -0.01638908 1000 -0.01325925 -0.01475989 -0.01456011 -0.01552575 -0.01699511 1000 -0.01325925 -0.01475989 -0.01456011 -0.01552575 -0.01699511 1000
lala 12 0.3 0 first 14 1 195 5 3.3 0.079998254776001 0 0 -1 0 -0.01188159 -0.01267371 -0.009601857 1000 1000 1000 -0.01188159 -0.01267371 -0.009601857 1000 1000 1000 -0.01016968 -0.0101288 -0.009895399 -0.01114683 -0.01200542 1000 -0.01016968 -0.0101288 -0.009895399 -0.01114683 -0.01200542 1000
lala 13 0.15 1 second 0 1 196 4 3.99 0.319998025894165 -1 0 1 1 -0.0165545 -0.01606379 -0.01628277 -0.01634844 -0.01664071 1000 -0.0165545 -0.01606379 -0.01628277 -0.01634844 -0.01664071 1000 -0.01939362 -0.01945265 -0.01957008 -0.0192694 -0.01951206 1000 -0.01939362 -0.01945265 -0.01957008 -0.0192694 -0.01951206 1000
lala 13 1.2 0 first 17 1 197 6 2.580001 0.119998216629028 0 1 -1 0 -0.02068494 -0.020578 -0.02009389 1000 1000 1000 -0.02068494 -0.020578 -0.02009389 1000 1000 1000 -0.0173483 -0.01754696 -0.01788224 -0.0177148 -0.01768052 1000 -0.0173483 -0.01754696 -0.01788224 -0.0177148 -0.01768052 1000
lala 11 1.2 1 second 6 1 198 4 6.24 0.439997911453247 1 0 1 0 -0.01867196 -0.01965197 -0.02035751 -0.02059724 -0.02054377 1000 -0.01867196 -0.01965197 -0.02035751 -0.02059724 -0.02054377 1000 -0.01889111 -0.01917555 -0.02008046 -0.02076482 -0.02170475 1000 -0.01889111 -0.01917555 -0.02008046 -0.02076482 -0.02170475 1000
lala 12 0.6 1 second 9 1 199 5 4.85 0.159998178482056 1 1 1 0 -0.0219786 -0.02254428 -0.02276313 -0.02292226 -0.02305932 1000 -0.0219786 -0.02254428 -0.02276313 -0.02292226 -0.02305932 1000 -0.02276588 -0.02337046 -0.0235429 -0.02370634 -0.023662 1000 -0.02276588 -0.02337046 -0.0235429 -0.02370634 -0.023662 1000
lala 14 0.15 1 second 0 1 200 4 3.84 0.359997987747192 -1 0 1 0 -0.004679976 -0.004977528 -0.006638627 -0.007052897 -0.008161527 1000 -0.004679976 -0.004977528 -0.006638627 -0.007052897 -0.008161527 1000 -0.01513965 -0.0161136 -0.01681898 -0.01762432 -0.01909643 1000 -0.01513965 -0.0161136 -0.01681898 -0.01762432 -0.01909643 1000
lala 14 0.6 1 second 17 1 201 6 3.180001 0.379997968673706 0 1 1 1 -0.008884107 -0.006436609 -0.00555363 -0.004419134 -0.00402187 1000 -0.008884107 -0.006436609 -0.00555363 -0.004419134 -0.00402187 1000 -0.003035404 -0.003111825 -0.003144875 -0.003380636 -0.003974379 1000 -0.003035404 -0.003111825 -0.003144875 -0.003380636 -0.003974379 1000
lala 17 0.15 1 second 4 1 202 6 5.009999 0.299998044967651 -1 0 1 1 -0.007002936 -0.006730329 -0.0072053 -0.007831903 -0.008259729 1000 -0.007002936 -0.006730329 -0.0072053 -0.007831903 -0.008259729 1000 -0.01204748 -0.01238484 -0.01239924 -0.01212878 -0.01186919 1000 -0.01204748 -0.01238484 -0.01239924 -0.01212878 -0.01186919 1000
lala 13 0.3 1 second 3 1 203 5 6.05 0.199998140335083 -1 1 1 1 -0.01381185 -0.01398495 -0.0138159 -0.01391556 -0.01392699 1000 -0.01381185 -0.01398495 -0.0138159 -0.01391556 -0.01392699 1000 -0.01636929 -0.01726938 -0.01772201 -0.01795486 -0.01785688 1000 -0.01636929 -0.01726938 -0.01772201 -0.01795486 -0.01785688 1000
lala 10 1.2 1 second 13 1 204 4 4.12 0.01999831199646 0 1 1 0 -0.01941737 -0.0192294 -0.01824857 -0.01816625 -0.01808808 1000 -0.01941737 -0.0192294 -0.01824857 -0.01816625 -0.01808808 1000 -0.01754624 -0.017703 -0.017499 -0.01766667 -0.01798215 1000 -0.01754624 -0.017703 -0.017499 -0.01766667 -0.01798215 1000
lala 15 0.6 0 second 2 1 205 5 3.9 0.079998254776001 -1 0 -1 0 -0.0191003 -0.01980654 -0.01972092 -0.02002814 -0.01997 1000 -0.0191003 -0.01980654 -0.01972092 -0.02002814 -0.01997 1000 -0.01923749 -0.01940767 -0.01985539 -0.01979265 -0.0195648 1000 -0.01923749 -0.01940767 -0.01985539 -0.01979265 -0.0195648 1000
lala 12 1.2 1 first 6 1 206 4 5.04 2.7399959564209 1 0 1 0 -0.01945385 -0.01939258 -0.01910516 1000 1000 1000 -0.01945385 -0.01939258 -0.01910516 1000 1000 1000 -0.01950914 -0.01951095 -0.01979794 -0.02006973 -0.01988031 1000 -0.01950914 -0.01951095 -0.01979794 -0.02006973 -0.01988031 1000
lala 15 0.3 1 second 17 1 207 6 2.880001 0.339998006820679 0 1 1 0 -0.02265387 -0.0226822 -0.022806 -0.02267831 -0.02258722 1000 -0.02265387 -0.0226822 -0.022806 -0.02267831 -0.02258722 1000 -0.02283824 -0.02318868 -0.02361831 -0.02379314 -0.02373996 1000 -0.02283824 -0.02318868 -0.02361831 -0.02379314 -0.02373996 1000
lala 15 0.075 1 first 11 1 208 6 3.405001 0.23999810218811 1 1 1 1 -0.0209154 -0.01989664 -0.01936781 1000 1000 1000 -0.0209154 -0.01989664 -0.01936781 1000 1000 1000 -0.02121169 -0.02207482 -0.02239063 -0.02293161 -0.02299039 1000 -0.02121169 -0.02207482 -0.02239063 -0.02293161 -0.02299039 1000
lala 18 0.075 0 second 4 1 209 6 4.934999 0.259998083114624 -1 0 -1 1 -0.02346103 -0.02321308 -0.02291136 -0.02278731 -0.02303264 1000 -0.02346103 -0.02321308 -0.02291136 -0.02278731 -0.02303264 1000 -0.02280865 -0.02250206 -0.0230584 -0.02351868 -0.02384153 1000 -0.02280865 -0.02250206 -0.0230584 -0.02351868 -0.02384153 1000
lala 15 0.15 1 second 0 1 210 4 3.69 0.0399982929229736 -1 0 1 1 -0.0218829 -0.02158496 -0.02212504 -0.02254955 -0.02280666 1000 -0.0218829 -0.02158496 -0.02212504 -0.02254955 -0.02280666 1000 -0.02237875 -0.02234488 -0.02214369 -0.02232784 -0.0223891 1000 -0.02237875 -0.02234488 -0.02214369 -0.02232784 -0.0223891 1000
lala 9 1.2 0 first 16 1 211 6 3.96 0.079998254776001 0 0 -1 0 -0.02331343 -0.0225383 -0.02220373 1000 1000 1000 -0.02331343 -0.0225383 -0.02220373 1000 1000 1000 -0.02287308 -0.02265399 -0.02244097 -0.02252886 -0.02289268 1000 -0.02287308 -0.02265399 -0.02244097 -0.02252886 -0.02289268 1000
lala 16 0.3 1 second 0 1 212 4 3.39 0.079998254776001 -1 0 1 0 -0.02269984 -0.02323464 -0.02360163 -0.02370004 -0.02362579 1000 -0.02269984 -0.02323464 -0.02360163 -0.02370004 -0.02362579 1000 -0.02750221 -0.02646 -0.02468408 -0.0227755 -0.01925992 1000 -0.02750221 -0.02646 -0.02468408 -0.0227755 -0.01925992 1000
lala 11 0.6 1 second 10 1 213 6 3.18 0.39999794960022 1 0 1 0 -0.01275388 -0.01268989 -0.01286269 -0.01259702 -0.01315334 1000 -0.01275388 -0.01268989 -0.01286269 -0.01259702 -0.01315334 1000 -0.01451252 -0.01505681 -0.01534483 -0.01543025 -0.01542267 1000 -0.01451252 -0.01505681 -0.01534483 -0.01543025 -0.01542267 1000
lala 12 0.6 1 first 10 1 214 6 2.58 0.559997797012329 1 0 1 1 -0.02133847 -0.02127087 -0.02084727 1000 1000 1000 -0.02133847 -0.02127087 -0.02084727 1000 1000 1000 -0.01950497 -0.01977883 -0.02009094 -0.02011931 -0.02023098 1000 -0.01950497 -0.01977883 -0.02009094 -0.02011931 -0.02023098 1000
lala 13 1.2 1 first 6 1 215 4 3.84 0.559997797012329 1 0 1 0 -0.02350358 -0.0228632 -0.02306806 1000 1000 1000 -0.02350358 -0.0228632 -0.02306806 1000 1000 1000 -0.02340595 -0.0252938 -0.02702603 -0.02685867 -0.0266938 1000 -0.02340595 -0.0252938 -0.02702603 -0.02685867 -0.0266938 1000
lala 11 0.6 1 second 13 1 216 4 3.52 0.359997987747192 0 1 1 1 -0.0186474 -0.01639008 -0.01549429 -0.01560054 -0.01645008 1000 -0.0186474 -0.01639008 -0.01549429 -0.01560054 -0.01645008 1000 -0.02068011 -0.02102051 -0.02179686 -0.02208512 -0.02236618 1000 -0.02068011 -0.02102051 -0.02179686 -0.02208512 -0.02236618 1000
lala 16 0.3 0 second 17 1 217 6 2.580001 0.139998197555542 0 1 -1 0 -0.02234389 -0.02217362 -0.02240232 -0.0228025 -0.02267824 1000 -0.02234389 -0.02217362 -0.02240232 -0.0228025 -0.02267824 1000 -0.02298656 -0.02344171 -0.02291913 -0.02221232 -0.02147413 1000 -0.02298656 -0.02344171 -0.02291913 -0.02221232 -0.02147413 1000
lala 10 1.2 1 first 16 1 218 6 5.16 0.01999831199646 0 0 1 1 -0.02388909 -0.02344411 -0.02386393 1000 1000 1000 -0.02388909 -0.02344411 -0.02386393 1000 1000 1000 -0.01323456 -0.01302052 -0.01328033 -0.01382486 -0.0142871 1000 -0.01323456 -0.01302052 -0.01328033 -0.01382486 -0.0142871 1000
lala 9 1.2 0 first 7 1 219 4 2.92 0.23999810218811 1 1 -1 0 -0.01396564 -0.01437175 -0.01473489 1000 1000 1000 -0.01396564 -0.01437175 -0.01473489 1000 1000 1000 -0.02095918 -0.02073292 -0.02040757 -0.01980599 -0.01979079 1000 -0.02095918 -0.02073292 -0.02040757 -0.01980599 -0.01979079 1000
lala 7 1.2 1 first 5 1 220 6 7.98 0.23999810218811 -1 1 1 0 -0.01956307 -0.01996169 -0.01964468 1000 1000 1000 -0.01956307 -0.01996169 -0.01964468 1000 1000 1000 -0.02211709 -0.02197176 -0.02148742 -0.0215297 -0.02146899 1000 -0.02211709 -0.02197176 -0.02148742 -0.0215297 -0.02146899 1000
lala 16 0.075 1 second 11 1 221 6 3.330001 0.659997701644897 1 1 1 0 -0.02025784 -0.01934308 -0.01949727 -0.01961809 -0.01992559 1000 -0.02025784 -0.01934308 -0.01949727 -0.01961809 -0.01992559 1000 -0.02269493 -0.02255856 -0.02213306 -0.02236989 -0.02273782 1000 -0.02269493 -0.02255856 -0.02213306 -0.02236989 -0.02273782 1000
lala 10 0.6 1 first 7 1 222 4 3.52 2.69999599456787 1 1 1 0 -0.02090583 -0.02133662 -0.02162075 1000 1000 1000 -0.02090583 -0.02133662 -0.02162075 1000 1000 1000 -0.02532452 -0.02540386 -0.02568639 -0.02532905 -0.0250009 1000 -0.02532452 -0.02540386 -0.02568639 -0.02532905 -0.0250009 1000
lala 11 0.6 1 second 16 1 223 6 4.56 0.299998044967651 0 0 1 1 -0.02406106 -0.0238553 -0.02341039 -0.02333135 -0.02379088 1000 -0.02406106 -0.0238553 -0.02341039 -0.02333135 -0.02379088 1000 -0.0250393 -0.02481127 -0.02501853 -0.02553456 -0.02595652 1000 -0.0250393 -0.02481127 -0.02501853 -0.02553456 -0.02595652 1000
lala 13 1.2 1 first 9 1 224 5 3.65 0.219998121261597 1 1 1 0 -0.02483118 -0.02414436 -0.02448454 1000 1000 1000 -0.02483118 -0.02414436 -0.02448454 1000 1000 1000 -0.0166832 -0.01665778 -0.01703643 -0.01735374 -0.01843327 1000 -0.0166832 -0.01665778 -0.01703643 -0.01735374 -0.01843327 1000
lala 17 0.075 0 first 11 1 225 6 3.255001 0.659997701644897 1 1 -1 1 -0.02026014 -0.02010719 -0.02014221 1000 1000 1000 -0.02026014 -0.02010719 -0.02014221 1000 1000 1000 -0.02168877 -0.02200862 -0.02207046 -0.02186459 -0.02206283 1000 -0.02168877 -0.02200862 -0.02207046 -0.02186459 -0.02206283 1000
lala 13 0.15 1 second 8 1 226 5 2.25 0.439997911453247 1 0 1 1 -0.01215741 -0.01198705 -0.01235679 -0.01203709 -0.01235629 1000 -0.01215741 -0.01198705 -0.01235679 -0.01203709 -0.01235629 1000 -0.01565293 -0.01746515 -0.01798869 -0.01816864 -0.01827067 1000 -0.01565293 -0.01746515 -0.01798869 -0.01816864 -0.01827067 1000
lala 13 1.2 1 second 10 1 227 6 1.98 0.259998083114624 1 0 1 0 -0.0155678 -0.01586689 -0.01591065 -0.01622531 -0.01643287 1000 -0.0155678 -0.01586689 -0.01591065 -0.01622531 -0.01643287 1000 -0.02040022 -0.01999428 -0.01975937 -0.0191238 -0.01836347 1000 -0.02040022 -0.01999428 -0.01975937 -0.0191238 -0.01836347 1000
lala 12 0.6 1 second 16 1 228 6 3.96 0.219998121261597 0 0 1 1 -0.01865474 -0.0184803 -0.0184111 -0.01809191 -0.01870118 1000 -0.01865474 -0.0184803 -0.0184111 -0.01809191 -0.01870118 1000 -0.02060736 -0.02083545 -0.02080995 -0.0206028 -0.02026104 1000 -0.02060736 -0.02083545 -0.02080995 -0.0206028 -0.02026104 1000
lala 19 0.0375 1 second 4 1 229 6 4.972499 0.479997873306274 -1 0 1 0 -0.01865025 -0.01926225 -0.01994577 -0.02028768 -0.02017821 1000 -0.01865025 -0.01926225 -0.01994577 -0.02028768 -0.02017821 1000 -0.02298674 -0.02361784 -0.02419401 -0.02379929 -0.0232693 1000 -0.02298674 -0.02361784 -0.02419401 -0.02379929 -0.0232693 1000
lala 11 0.3 1 second 7 1 230 4 3.22 0.699997663497925 1 1 1 1 -0.01834401 -0.01843776 -0.0194536 -0.02025854 -0.02063693 1000 -0.01834401 -0.01843776 -0.0194536 -0.02025854 -0.02063693 1000 -0.02177584 -0.02208309 -0.02192085 -0.02174617 -0.02158754 1000 -0.02177584 -0.02208309 -0.02192085 -0.02174617 -0.02158754 1000
lala 13 0.6 1 second 16 1 231 6 3.36 0.419997930526733 0 0 1 1 -0.01988414 -0.01935911 -0.01923674 -0.01942231 -0.01986819 1000 -0.01988414 -0.01935911 -0.01923674 -0.01942231 -0.01986819 1000 -0.02605821 -0.02565314 -0.02569116 -0.02514058 -0.025243 1000 -0.02605821 -0.02565314 -0.02569116 -0.02514058 -0.025243 1000
lala 14 0.15 0 first 8 1 232 5 2.1 0.339998006820679 1 0 -1 1 -0.02441797 -0.02374084 -0.02366401 1000 1000 1000 -0.02441797 -0.02374084 -0.02366401 1000 1000 1000 -0.01551856 -0.01547805 -0.01593982 -0.01643053 -0.0170909 1000 -0.01551856 -0.01547805 -0.01593982 -0.01643053 -0.0170909 1000
lala 16 0.6 0 second 2 1 233 5 4.5 0.559997797012329 -1 0 -1 0 -0.01743243 -0.0169836 -0.01673992 -0.01641675 -0.01604653 1000 -0.01743243 -0.0169836 -0.01673992 -0.01641675 -0.01604653 1000 -0.01231396 -0.01161649 -0.01105364 -0.01124924 -0.01192743 1000 -0.01231396 -0.01161649 -0.01105364 -0.01124924 -0.01192743 1000
lala 14 2.4 1 first 10 1 234 6 1.98 0.01999831199646 1 0 1 1 -0.01625664 -0.01570693 -0.0152664 1000 1000 1000 -0.01625664 -0.01570693 -0.0152664 1000 1000 1000 -0.01746096 -0.01877111 -0.01932754 -0.01996828 -0.02049521 1000 -0.01746096 -0.01877111 -0.01932754 -0.01996828 -0.02049521 1000
lala 11 0.3 0 second 1 1 235 4 3.220001 0.01999831199646 -1 1 -1 0 -0.02195916 -0.02247327 -0.02310509 -0.02322066 -0.02285492 1000 -0.02195916 -0.02247327 -0.02310509 -0.02322066 -0.02285492 1000 -0.02151136 -0.02144353 -0.02113341 -0.02143032 -0.02201267 1000 -0.02151136 -0.02144353 -0.02113341 -0.02143032 -0.02201267 1000
lala 20 0.01875 0 first 4 1 236 6 4.953749 0.359997987747192 -1 0 -1 1 -0.02291003 -0.02308571 -0.02245149 1000 1000 1000 -0.02291003 -0.02308571 -0.02245149 1000 1000 1000 -0.02122176 -0.02095233 -0.02103333 -0.02165618 -0.02187687 1000 -0.02122176 -0.02095233 -0.02103333 -0.02165618 -0.02187687 1000
lala 15 4.8 1 first 10 1 237 6 1.98 0.439997911453247 1 0 1 0 -0.02310802 -0.02174019 -0.02215698 1000 1000 1000 -0.02310802 -0.02174019 -0.02215698 1000 1000 1000 -0.0165144 -0.01991434 -0.02883733 -0.03345615 -0.02947937 1000 -0.0165144 -0.01991434 -0.02883733 -0.03345615 -0.02947937 1000
lala 14 1.2 0 first 16 1 238 6 2.16 0.299998044967651 0 0 -1 1 0.008622767 0.008469692 0.009411289 1000 1000 1000 0.008622767 0.008469692 0.009411289 1000 1000 1000 -0.01139218 -0.01089158 -0.01075816 -0.01004798 -0.006849959 1000 -0.01139218 -0.01089158 -0.01075816 -0.01004798 -0.006849959 1000
lala 12 0.15 1 first 1 1 239 4 3.370001 0.219998121261597 -1 1 1 1 -0.008220416 -0.009386783 -0.009350399 1000 1000 1000 -0.008220416 -0.009386783 -0.009350399 1000 1000 1000 -0.01063921 -0.01080301 -0.01122653 -0.01072512 -0.01108855 1000 -0.01063921 -0.01080301 -0.01122653 -0.01072512 -0.01108855 1000
lala 17 0.15 1 second 17 1 240 6 2.730001 0.279998064041138 0 1 1 1 -0.01606845 -0.01601724 -0.01636414 -0.0166852 -0.01686868 1000 -0.01606845 -0.01601724 -0.01636414 -0.0166852 -0.01686868 1000 -0.01898245 -0.01906305 -0.01951966 -0.01973932 -0.02023186 1000 -0.01898245 -0.01906305 -0.01951966 -0.01973932 -0.02023186 1000
lala 13 0.15 0 first 14 1 241 5 3.45 0.179998159408569 0 0 -1 0 -0.02086562 -0.02088624 -0.02095505 1000 1000 1000 -0.02086562 -0.02088624 -0.02095505 1000 1000 1000 -0.02255253 -0.02078606 -0.01924111 -0.0170505 -0.01624498 1000 -0.02255253 -0.02078606 -0.01924111 -0.0170505 -0.01624498 1000
lala 8 1.2 1 first 5 1 242 6 6.780001 0.01999831199646 -1 1 1 0 -0.01451804 -0.01367421 -0.01276418 1000 1000 1000 -0.01451804 -0.01367421 -0.01276418 1000 1000 1000 -0.0165356 -0.01571963 -0.01442382 -0.01437829 -0.01457737 1000 -0.0165356 -0.01571963 -0.01442382 -0.01437829 -0.01457737 1000
lala 9 1.2 1 first 5 1 243 6 5.580001 0.419997930526733 -1 1 1 0 -0.01519793 -0.0153481 -0.0158969 1000 1000 1000 -0.01519793 -0.0153481 -0.0158969 1000 1000 1000 -0.01939663 -0.01914642 -0.01899314 -0.01879189 -0.01820656 1000 -0.01939663 -0.01914642 -0.01899314 -0.01879189 -0.01820656 1000
lala 16 9.6 0 second 10 1 244 6 1.98 0.23999810218811 1 0 -1 1 -0.01969054 -0.01910413 -0.01823572 -0.01781766 -0.0183372 1000 -0.01969054 -0.01910413 -0.01823572 -0.01781766 -0.0183372 1000 -0.02282196 -0.0233674 -0.02338914 -0.02285837 -0.02278582 1000 -0.02282196 -0.0233674 -0.02338914 -0.02285837 -0.02278582 1000
lala 12 0.6 0 first 13 1 245 4 2.92 0.359997987747192 0 1 -1 1 -0.02325675 -0.02238168 -0.02201713 1000 1000 1000 -0.02325675 -0.02238168 -0.02201713 1000 1000 1000 -0.02039504 -0.02027801 -0.02115426 -0.02219984 -0.02337934 1000 -0.02039504 -0.02027801 -0.02115426 -0.02219984 -0.02337934 1000
lala 17 4.8 1 first 10 1 246 6 6.78 0.519997835159302 1 0 1 0 -0.02484703 -0.0244439 -0.02390345 1000 1000 1000 -0.02484703 -0.0244439 -0.02390345 1000 1000 1000 -0.02505038 -0.02561816 -0.02518707 -0.02470712 -0.02447596 1000 -0.02505038 -0.02561816 -0.02518707 -0.02470712 -0.02447596 1000
lala 14 2.4 0 first 9 1 247 5 1.65 0.01999831199646 1 1 -1 0 -0.02378895 -0.02347217 -0.02323209 1000 1000 1000 -0.02378895 -0.02347217 -0.02323209 1000 1000 1000 -0.01298371 -0.01335762 -0.01397853 -0.0128552 -0.01214167 1000 -0.01298371 -0.01335762 -0.01397853 -0.0128552 -0.01214167 1000
lala 21 0.009375 0 first 4 1 248 6 4.963124 0.299998044967651 -1 0 -1 1 -0.01488671 -0.01524276 -0.01504661 1000 1000 1000 -0.01488671 -0.01524276 -0.01504661 1000 1000 1000 -0.01927327 -0.01931357 -0.01924171 -0.01903222 -0.01915866 1000 -0.01927327 -0.01931357 -0.01924171 -0.01903222 -0.01915866 1000
lala 18 2.4 1 first 10 1 249 6 4.38 0.39999794960022 1 0 1 0 -0.02024394 -0.02030803 -0.02082141 1000 1000 1000 -0.02024394 -0.02030803 -0.02082141 1000 1000 1000 -0.022976 -0.02278669 -0.02278723 -0.02354425 -0.02332595 1000 -0.022976 -0.02278669 -0.02278723 -0.02354425 -0.02332595 1000
lala 15 0.075 1 first 8 1 250 5 2.175 0.39999794960022 1 0 1 0 -0.01664925 -0.01636974 -0.01650622 -0.01608963 -0.01541825 -0.0147256 -0.01664925 -0.01636974 -0.01650622 -0.01608963 -0.01541825 -0.0147256 -0.02211674 -0.02247671 -0.02314197 -0.02338332 -0.02456861 1000 -0.02211674 -0.02247671 -0.02314197 -0.02338332 -0.02456861 1000
lala 19 2.4 0 first 10 1 251 6 1.98 0.279998064041138 1 0 -1 0 -0.02210368 -0.01764994 -0.01454986 1000 1000 1000 -0.02210368 -0.01764994 -0.01454986 1000 1000 1000 -0.01437184 -0.01445393 -0.0153086 -0.01643573 -0.01808502 1000 -0.01437184 -0.01445393 -0.0153086 -0.01643573 -0.01808502 1000
lala 13 0.075 1 first 1 1 252 4 3.295001 0.159998178482056 -1 1 1 1 -0.02461579 -0.02492758 -0.02520848 1000 1000 1000 -0.02461579 -0.02492758 -0.02520848 1000 1000 1000 -0.02430213 -0.02464033 -0.02441397 -0.02432577 -0.02411768 1000 -0.02430213 -0.02464033 -0.02441397 -0.02432577 -0.02411768 1000
lala 22 0.009375 1 first 4 1 253 6 4.972499 0.23999810218811 -1 0 1 1 -0.02354132 -0.02350476 -0.02382053 1000 1000 1000 -0.02354132 -0.02350476 -0.02382053 1000 1000 1000 -0.02430104 -0.02269435 -0.02112991 -0.0186397 -0.01566437 1000 -0.02430104 -0.02269435 -0.02112991 -0.0186397 -0.01566437 1000
lala 20 1.2 1 first 10 1 254 6 3.18 0.499997854232788 1 0 1 0 -0.01312417 -0.01402484 -0.01442742 1000 1000 1000 -0.01312417 -0.01402484 -0.01442742 1000 1000 1000 -0.02292779 -0.02325056 -0.02333432 -0.02421389 -0.02426458 1000 -0.02292779 -0.02325056 -0.02333432 -0.02421389 -0.02426458 1000
lala 14 0.15 0 first 3 1 255 5 5.9 0.499997854232788 -1 1 -1 1 -0.0155264 -0.009675708 -0.004978572 1000 1000 1000 -0.0155264 -0.009675708 -0.004978572 1000 1000 1000 -0.007023775 -0.008564281 -0.009634152 -0.01136548 -0.01287932 1000 -0.007023775 -0.008564281 -0.009634152 -0.01136548 -0.01287932 1000
lala 21 0.6 0 second 10 1 256 6 2.58 0.339998006820679 1 0 -1 0 -0.02364398 -0.0236258 -0.02313326 -0.02264188 -0.0224144 1000 -0.02364398 -0.0236258 -0.02313326 -0.02264188 -0.0224144 1000 -0.02244058 -0.02238247 -0.02216889 -0.02218459 -0.02242804 1000 -0.02244058 -0.02238247 -0.02216889 -0.02218459 -0.02242804 1000
lala 17 1.2 1 first 2 1 257 5 5.7 0.379997968673706 -1 0 1 1 -0.02089876 -0.02080839 -0.02048163 1000 1000 1000 -0.02089876 -0.02080839 -0.02048163 1000 1000 1000 -0.02225889 -0.02159215 -0.02122237 -0.02157511 -0.02294801 1000 -0.02225889 -0.02159215 -0.02122237 -0.02157511 -0.02294801 1000
lala 23 0.0046875 1 second 4 1 258 6 4.967812 0.439997911453247 -1 0 1 0 -0.01375895 -0.01342364 -0.0133224 -0.01339319 -0.01376515 1000 -0.01375895 -0.01342364 -0.0133224 -0.01339319 -0.01376515 1000 -0.01802412 -0.01853783 -0.02002135 -0.02145783 -0.0226383 1000 -0.01802412 -0.01853783 -0.02002135 -0.02145783 -0.0226383 1000
lala 11 0.6 1 first 12 1 259 4 3.84 0.379997968673706 0 0 1 1 -0.02459741 -0.02440266 -0.02433511 1000 1000 1000 -0.02459741 -0.02440266 -0.02433511 1000 1000 1000 -0.02213101 -0.02134801 -0.02024546 -0.01957989 -0.01950462 1000 -0.02213101 -0.02134801 -0.02024546 -0.01957989 -0.01950462 1000
lala 24 0.0046875 1 second 4 1 260 6 4.963125 0.39999794960022 -1 0 1 0 -0.01906448 -0.01939613 -0.01937505 -0.01985322 -0.02030919 1000 -0.01906448 -0.01939613 -0.01937505 -0.01985322 -0.02030919 1000 -0.01693333 -0.01638488 -0.01558638 -0.01464107 -0.01377771 1000 -0.01693333 -0.01638488 -0.01558638 -0.01464107 -0.01377771 1000
lala 12 0.6 1 second 12 1 261 4 3.24 0.319998025894165 0 0 1 0 -0.01776614 -0.01767277 -0.01762556 -0.01708978 -0.01745965 1000 -0.01776614 -0.01767277 -0.01762556 -0.01708978 -0.01745965 1000 -0.01812576 -0.01909195 -0.019338 -0.01909957 -0.01927223 1000 -0.01812576 -0.01909195 -0.019338 -0.01909957 -0.01927223 1000
lala 18 0.075 0 second 17 1 262 6 2.655001 0.359997987747192 0 1 -1 1 -0.02027478 -0.02048116 -0.02101303 -0.02115596 -0.02132923 1000 -0.02027478 -0.02048116 -0.02101303 -0.02115596 -0.02132923 1000 -0.02168379 -0.02128273 -0.0219439 -0.02262289 -0.02291773 1000 -0.02168379 -0.02128273 -0.0219439 -0.02262289 -0.02291773 1000
lala 14 0.15 1 first 14 1 263 5 3.6 0.299998044967651 0 0 1 1 -0.02028984 -0.01947336 -0.01879516 1000 1000 1000 -0.02028984 -0.01947336 -0.01879516 1000 1000 1000 -0.02198485 -0.02214271 -0.02196774 -0.02159897 -0.021223 1000 -0.02198485 -0.02214271 -0.02196774 -0.02159897 -0.021223 1000
lala 14 0.075 1 first 1 1 264 4 3.220001 0.559997797012329 -1 1 1 0 -0.02325716 -0.02307539 -0.0229043 1000 1000 1000 -0.02325716 -0.02307539 -0.0229043 1000 1000 1000 -0.02198453 -0.02284562 -0.02332212 -0.02341351 -0.02299614 1000 -0.02198453 -0.02284562 -0.02332212 -0.02341351 -0.02299614 1000
lala 15 0.6 0 first 16 1 265 6 2.76 1.01999735832214 0 0 -1 0 -0.02310609 -0.02217311 -0.02255547 1000 1000 1000 -0.02310609 -0.02217311 -0.02255547 1000 1000 1000 -0.02187933 -0.02211948 -0.02180064 -0.02208901 -0.02252242 1000 -0.02187933 -0.02211948 -0.02180064 -0.02208901 -0.02252242 1000
lala 15 0.075 0 first 14 1 266 5 3.525 0.559997797012329 0 0 -1 0 -0.02056205 -0.01706957 -0.01474875 1000 1000 1000 -0.02056205 -0.01706957 -0.01474875 1000 1000 1000 -0.01528777 -0.01554513 -0.01611549 -0.01681728 -0.01745516 1000 -0.01528777 -0.01554513 -0.01611549 -0.01681728 -0.01745516 1000
lala 14 2.4 0 second 6 1 267 4 1.44 0.01999831199646 1 0 -1 1 -0.01337375 -0.01310487 -0.01281783 -0.01312708 -0.01280619 1000 -0.01337375 -0.01310487 -0.01281783 -0.01312708 -0.01280619 1000 -0.0165918 -0.01617154 -0.01641887 -0.01719753 -0.01769239 1000 -0.0165918 -0.01617154 -0.01641887 -0.01719753 -0.01769239 1000
lala 16 0.0375 0 second 8 1 268 5 2.1375 0.139998197555542 1 0 -1 0 -0.01813618 -0.01834061 -0.01719713 -0.01604156 -0.01515697 1000 -0.01813618 -0.01834061 -0.01719713 -0.01604156 -0.01515697 1000 -0.01716509 -0.01752349 -0.01769403 -0.01811035 -0.01811544 1000 -0.01716509 -0.01752349 -0.01769403 -0.01811035 -0.01811544 1000
lala 22 0.3 0 second 10 1 269 6 2.88 0.219998121261597 1 0 -1 1 -0.01740808 -0.01709594 -0.0176558 -0.01712503 -0.01758252 1000 -0.01740808 -0.01709594 -0.0176558 -0.01712503 -0.01758252 1000 -0.01908739 -0.01948438 -0.01990584 -0.01999524 -0.01974513 1000 -0.01908739 -0.01948438 -0.01990584 -0.01999524 -0.01974513 1000
lala 15 1.2 1 first 6 1 270 4 2.64 0.259998083114624 1 0 1 0 -0.02146587 -0.02129186 -0.02167011 1000 1000 1000 -0.02146587 -0.02129186 -0.02167011 1000 1000 1000 -0.02120572 -0.02158313 -0.02175039 -0.0214873 -0.02138723 1000 -0.02120572 -0.02158313 -0.02175039 -0.0214873 -0.02138723 1000
lala 19 0.0375 0 second 17 1 271 6 2.692501 0.01999831199646 0 1 -1 0 -0.02142084 -0.02147162 -0.0219403 -0.02214864 -0.02243048 1000 -0.02142084 -0.02147162 -0.0219403 -0.02214864 -0.02243048 1000 -0.02142704 -0.02172927 -0.02148261 -0.0214201 -0.02118844 1000 -0.02142704 -0.02172927 -0.02148261 -0.0214201 -0.02118844 1000
lala 13 0.3 1 second 13 1 272 4 3.22 0.279998064041138 0 1 1 0 -0.02315113 -0.0231239 -0.02318325 -0.02348204 -0.02365671 1000 -0.02315113 -0.0231239 -0.02318325 -0.02348204 -0.02365671 1000 -0.02451752 -0.02433054 -0.02435116 -0.02370739 -0.02385868 1000 -0.02451752 -0.02433054 -0.02435116 -0.02370739 -0.02385868 1000
lala 18 0.0375 1 second 11 1 273 6 3.292501 0.259998083114624 1 1 1 1 -0.02473679 -0.02489596 -0.02486161 -0.02460814 -0.02458866 1000 -0.02473679 -0.02489596 -0.02486161 -0.02460814 -0.02458866 1000 -0.02539171 -0.02473205 -0.02478006 -0.02498741 -0.02542928 1000 -0.02539171 -0.02473205 -0.02478006 -0.02498741 -0.02542928 1000
lala 16 0.0375 1 first 14 1 274 5 3.5625 3.99999475479126 0 0 1 1 -0.02458859 -0.02572517 -0.02715313 1000 1000 1000 -0.02458859 -0.02572517 -0.02715313 1000 1000 1000 -0.02645537 -0.02617552 -0.02632564 -0.02642444 -0.02671416 1000 -0.02645537 -0.02617552 -0.02632564 -0.02642444 -0.02671416 1000
lala 15 0.075 1 second 1 1 275 4 3.145001 0.0599982738494873 -1 1 1 0 -0.01358514 -0.0134447 -0.01316593 -0.01284597 -0.01257697 1000 -0.01358514 -0.0134447 -0.01316593 -0.01284597 -0.01257697 1000 -0.01179419 -0.0114353 -0.01121856 -0.01126475 -0.01122025 1000 -0.01179419 -0.0114353 -0.01121856 -0.01126475 -0.01122025 1000
lala 15 1.2 1 first 9 1 276 5 2.85 0.519997835159302 1 1 1 0 -0.009389578 -0.00918453 -0.009644439 1000 1000 1000 -0.009389578 -0.00918453 -0.009644439 1000 1000 1000 -0.01069655 -0.01000361 -0.00953233 -0.009718794 -0.01000158 1000 -0.01069655 -0.01000361 -0.00953233 -0.009718794 -0.01000158 1000
lala 16 0.15 0 second 1 1 277 4 2.995001 0.159998178482056 -1 1 -1 1 -0.01261114 -0.0125866 -0.01378954 -0.01585797 -0.01677703 1000 -0.01261114 -0.0125866 -0.01378954 -0.01585797 -0.01677703 1000 -0.01976619 -0.02182571 -0.02411642 -0.02238065 -0.02066951 1000 -0.01976619 -0.02182571 -0.02411642 -0.02238065 -0.02066951 1000
lala 14 0.15 1 second 13 1 278 4 3.07 0.259998083114624 0 1 1 1 -0.001966536 -0.0005295599 -0.0006201543 -0.001212973 -0.002971535 1000 -0.001966536 -0.0005295599 -0.0006201543 -0.001212973 -0.002971535 1000 -0.009415427 -0.01008507 -0.01055696 -0.01065907 -0.009971882 1000 -0.009415427 -0.01008507 -0.01055696 -0.01065907 -0.009971882 1000
lala 13 1.2 0 first 12 1 279 4 2.04 0.01999831199646 0 0 -1 1 -0.01049657 -0.009469105 -0.009559772 1000 1000 1000 -0.01049657 -0.009469105 -0.009559772 1000 1000 1000 -0.01284735 -0.01337603 -0.01301594 -0.01256136 -0.01229281 1000 -0.01284735 -0.01337603 -0.01301594 -0.01256136 -0.01229281 1000
lala 14 0.6 0 second 12 1 280 4 2.64 0.01999831199646 0 0 -1 1 -0.01217444 -0.01216427 -0.01149871 -0.01073784 -0.01120052 1000 -0.01217444 -0.01216427 -0.01149871 -0.01073784 -0.01120052 1000 -0.01282014 -0.01290096 -0.01298558 -0.0128711 -0.01280156 1000 -0.01282014 -0.01290096 -0.01298558 -0.0128711 -0.01280156 1000
lala 15 0.15 0 first 13 1 281 4 2.92 0.01999831199646 0 1 -1 1 -0.01262814 -0.01205416 -0.01199571 1000 1000 1000 -0.01262814 -0.01205416 -0.01199571 1000 1000 1000 -0.01584578 -0.01608205 -0.01605062 -0.0158919 -0.01542593 1000 -0.01584578 -0.01608205 -0.01605062 -0.0158919 -0.01542593 1000
lala 16 0.075 0 first 13 1 282 4 2.995 0.01999831199646 0 1 -1 1 -0.01594633 -0.01548286 -0.01490566 1000 1000 1000 -0.01594633 -0.01548286 -0.01490566 1000 1000 1000 -0.01651469 -0.01708652 -0.01808151 -0.01859015 -0.01903216 1000 -0.01651469 -0.01708652 -0.01808151 -0.01859015 -0.01903216 1000
lala 17 0.01875 0 first 8 1 283 5 2.15625 0.01999831199646 1 0 -1 1 -0.01858887 -0.01903004 -0.01882147 1000 1000 1000 -0.01858887 -0.01903004 -0.01882147 1000 1000 1000 -0.01777628 -0.01786247 -0.01753922 -0.0168859 -0.01713805 1000 -0.01777628 -0.01786247 -0.01753922 -0.0168859 -0.01713805 1000
lala 19 0.01875 1 first 11 1 284 6 3.273751 0.179998159408569 1 1 1 0 -0.01796973 -0.01778422 -0.01746106 1000 1000 1000 -0.01796973 -0.01778422 -0.01746106 1000 1000 1000 -0.017913 -0.01803575 -0.01810464 -0.01790261 -0.01793011 1000 -0.017913 -0.01803575 -0.01810464 -0.01790261 -0.01793011 1000
lala 10 1.2 1 first 15 1 285 5 5.45 0.01999831199646 0 1 1 0 -0.01947132 -0.01916916 -0.01885071 1000 1000 1000 -0.01947132 -0.01916916 -0.01885071 1000 1000 1000 -0.01861237 -0.01821197 -0.01746211 -0.0175337 -0.01746943 1000 -0.01861237 -0.01821197 -0.01746211 -0.0175337 -0.01746943 1000
lala 25 0.0046875 1 first 4 1 286 6 4.958437 0.01999831199646 -1 0 1 1 -0.01775659 -0.01835842 -0.01945754 1000 1000 1000 -0.01775659 -0.01835842 -0.01945754 1000 1000 1000 -0.02275025 -0.02300164 -0.02297964 -0.02279625 -0.02244733 1000 -0.02275025 -0.02300164 -0.02297964 -0.02279625 -0.02244733 1000
lala 16 0.6 1 second 6 1 287 4 2.04 0.259998083114624 1 0 1 1 -0.02165732 -0.0213032 -0.02160367 -0.02155672 -0.02133453 1000 -0.02165732 -0.0213032 -0.02160367 -0.02155672 -0.02133453 1000 -0.02048676 -0.02014189 -0.01946353 -0.01855969 -0.01788462 1000 -0.02048676 -0.02014189 -0.01946353 -0.01855969 -0.01788462 1000
lala 23 0.3 1 first 10 1 288 6 3.18 0.259998083114624 1 0 1 0 -0.01854877 -0.0183327 -0.01883464 1000 1000 1000 -0.01854877 -0.0183327 -0.01883464 1000 1000 1000 -0.01797675 -0.01746278 -0.0181163 -0.01826604 -0.01855726 1000 -0.01797675 -0.01746278 -0.0181163 -0.01826604 -0.01855726 1000
lala 17 0.075 0 first 13 1 289 4 3.07 0.439997911453247 0 1 -1 1 -0.0203157 -0.02050469 -0.02076881 1000 1000 1000 -0.0203157 -0.02050469 -0.02076881 1000 1000 1000 -0.0209309 -0.02064604 -0.02027875 -0.02018224 -0.01988541 1000 -0.0209309 -0.02064604 -0.02027875 -0.02018224 -0.01988541 1000
lala 20 0.01875 1 second 11 1 290 6 3.255001 0.379997968673706 1 1 1 1 -0.02079574 -0.02090757 -0.02025675 -0.02059229 -0.0210324 1000 -0.02079574 -0.02090757 -0.02025675 -0.02059229 -0.0210324 1000 -0.02203457 -0.02057632 -0.01987635 -0.01954348 -0.01928747 1000 -0.02203457 -0.02057632 -0.01987635 -0.01954348 -0.01928747 1000
lala 20 0.0375 1 second 17 1 291 6 2.730001 0.359997987747192 0 1 1 0 -0.02153656 -0.0210057 -0.02068226 -0.01999341 -0.01932811 1000 -0.02153656 -0.0210057 -0.02068226 -0.01999341 -0.01932811 1000 -0.01880468 -0.01916097 -0.01942029 -0.01944152 -0.01918593 1000 -0.01880468 -0.01916097 -0.01942029 -0.01944152 -0.01918593 1000
lala 17 0.01875 1 first 14 1 292 5 3.54375 0.479997873306274 0 0 1 1 -0.02166962 -0.02209546 -0.02165068 1000 1000 1000 -0.02166962 -0.02209546 -0.02165068 1000 1000 1000 -0.02102237 -0.02015633 -0.01951465 -0.01954254 -0.01964746 1000 -0.02102237 -0.02015633 -0.01951465 -0.01954254 -0.01964746 1000
lala 21 0.01875 1 second 11 1 293 6 3.236251 0.199998140335083 1 1 1 1 -0.0210507 -0.02130678 -0.02118191 -0.02105881 -0.02101976 1000 -0.0210507 -0.02130678 -0.02118191 -0.02105881 -0.02101976 1000 -0.02402653 -0.02497956 -0.02561927 -0.02633449 -0.02658567 1000 -0.02402653 -0.02497956 -0.02561927 -0.02633449 -0.02658567 1000
lala 21 0.01875 0 second 17 1 294 6 2.711251 0.499997854232788 0 1 -1 1 -0.0078525 -0.007536 -0.008392319 -0.008309734 -0.008376244 1000 -0.0078525 -0.007536 -0.008392319 -0.008309734 -0.008376244 1000 -0.009744411 -0.009793613 -0.009962818 -0.00993464 -0.009807521 1000 -0.009744411 -0.009793613 -0.009962818 -0.00993464 -0.009807521 1000
lala 17 0.6 1 first 6 1 295 4 1.44 1.13999724388123 1 0 1 1 -0.01306681 -0.0126692 -0.0124325 1000 1000 1000 -0.01306681 -0.0126692 -0.0124325 1000 1000 1000 -0.01632734 -0.01649161 -0.0167975 -0.01667106 -0.01707984 1000 -0.01632734 -0.01649161 -0.0167975 -0.01667106 -0.01707984 1000
lala 12 0.3 0 first 7 1 296 4 2.92 0.199998140335083 1 1 -1 0 -0.01811058 -0.01843544 -0.01891655 1000 1000 1000 -0.01811058 -0.01843544 -0.01891655 1000 1000 1000 -0.01851069 -0.01857423 -0.01915675 -0.01998607 -0.02058001 1000 -0.01851069 -0.01857423 -0.01915675 -0.01998607 -0.02058001 1000
lala 17 0.075 0 first 1 1 297 4 3.070001 0.839997529983521 -1 1 -1 0 -0.02065434 -0.02100867 -0.02078925 1000 1000 1000 -0.02065434 -0.02100867 -0.02078925 1000 1000 1000 -0.02224519 -0.0217139 -0.0212187 -0.02111909 -0.02144565 1000 -0.02224519 -0.0217139 -0.0212187 -0.02111909 -0.02144565 1000
lala 11 0.6 1 second 15 1 298 5 4.85 0.01999831199646 0 1 1 1 -0.02059261 -0.02141124 -0.02183656 -0.02195523 -0.02129351 1000 -0.02059261 -0.02141124 -0.02183656 -0.02195523 -0.02129351 1000 -0.02061052 -0.02037076 -0.02061148 -0.0203991 -0.02013516 1000 -0.02061052 -0.02037076 -0.02061148 -0.0203991 -0.02013516 1000
lala 17 0.6 0 first 0 1 299 4 2.79 0.159998178482056 -1 0 -1 0 -0.02139977 -0.02077386 -0.02026642 1000 1000 1000 -0.02139977 -0.02077386 -0.02026642 1000 1000 1000 -0.02230278 -0.02243562 -0.02191394 -0.02091996 -0.02160237 1000 -0.02230278 -0.02243562 -0.02191394 -0.02091996 -0.02160237 1000
lala 10 2.4 1 first 5 1 300 6 3.180001 0.339998006820679 -1 1 1 1 -0.006793057 0.01232167 0.02479596 0.02481214 0.01180717 -0.001349078 -0.006793057 0.01232167 0.02479596 0.02481214 0.01180717 -0.001349078 -0.03259742 -0.03301469 -0.03245357 -0.03059206 -0.02911699 1000 -0.03259742 -0.03301469 -0.03245357 -0.03059206 -0.02911699 1000
lala 13 0.15 0 second 7 1 301 4 3.07 0.219998121261597 1 1 -1 0 -0.01129424 -0.01024829 -0.009747501 -0.011391 -0.01368416 1000 -0.01129424 -0.01024829 -0.009747501 -0.011391 -0.01368416 1000 -0.02549688 -0.02569808 -0.02590825 -0.02585157 -0.0255438 1000 -0.02549688 -0.02569808 -0.02590825 -0.02585157 -0.0255438 1000
lala 26 0.009375 1 second 4 1 302 6 4.949062 0.0599982738494873 -1 0 1 1 -0.008162742 -0.005956325 -0.004024545 -0.004206927 -0.00456583 1000 -0.008162742 -0.005956325 -0.004024545 -0.004206927 -0.00456583 1000 -0.01216489 -0.01256028 -0.01242169 -0.0130117 -0.01261191 1000 -0.01216489 -0.01256028 -0.01242169 -0.0130117 -0.01261191 1000
lala 11 4.8 0 second 5 1 303 6 1.98 0.299998044967651 -1 1 -1 0 -0.009567271 -0.009609591 -0.009611822 -0.01017697 -0.01100483 1000 -0.009567271 -0.009609591 -0.009611822 -0.01017697 -0.01100483 1000 -0.01319673 -0.01356738 -0.01506373 -0.01551695 -0.01609226 1000 -0.01319673 -0.01356738 -0.01506373 -0.01551695 -0.01609226 1000
lala 18 0.6 0 first 6 1 304 4 1.32 0.01999831199646 1 0 -1 0 -0.01455899 -0.01449964 -0.01496614 1000 1000 1000 -0.01455899 -0.01449964 -0.01496614 1000 1000 1000 -0.01309308 -0.01307265 -0.01335158 -0.01303243 -0.01248725 1000 -0.01309308 -0.01307265 -0.01335158 -0.01303243 -0.01248725 1000
lala 18 0.6 0 first 2 1 305 5 5.1 0.579997777938843 -1 0 -1 1 -0.01153813 -0.0113517 -0.01143666 1000 1000 1000 -0.01153813 -0.0113517 -0.01143666 1000 1000 1000 -0.01770925 -0.01684592 -0.01633179 -0.01518075 -0.01378284 1000 -0.01770925 -0.01684592 -0.01633179 -0.01518075 -0.01378284 1000
lala 18 0.01875 0 first 8 1 306 5 2.175 0.299998044967651 1 0 -1 0 -0.009779831 -0.009363771 -0.007639295 1000 1000 1000 -0.009779831 -0.009363771 -0.007639295 1000 1000 1000 -0.01081426 -0.01130896 -0.01128663 -0.0113786 -0.01197722 1000 -0.01081426 -0.01130896 -0.01128663 -0.0113786 -0.01197722 1000
lala 18 0.3 1 first 0 1 307 4 3.09 0.179998159408569 -1 0 1 1 -0.01193562 -0.01208729 -0.01280098 1000 1000 1000 -0.01193562 -0.01208729 -0.01280098 1000 1000 1000 -0.0132142 -0.0138571 -0.01435387 -0.01447385 -0.01461302 1000 -0.0132142 -0.0138571 -0.01435387 -0.01447385 -0.01461302 1000
lala 12 2.4 1 second 5 1 308 6 4.38 0.219998121261597 -1 1 1 0 -0.01556205 -0.01637815 -0.01689088 -0.01678519 -0.01733799 1000 -0.01556205 -0.01637815 -0.01689088 -0.01678519 -0.01733799 1000 -0.01848657 -0.01849378 -0.01879959 -0.01855184 -0.01830635 1000 -0.01848657 -0.01849378 -0.01879959 -0.01855184 -0.01830635 1000
lala 13 1.2 0 first 5 1 309 6 3.18 0.0599982738494873 -1 1 -1 0 -0.0191905 -0.01967872 -0.01998415 1000 1000 1000 -0.0191905 -0.01967872 -0.01998415 1000 1000 1000 -0.02101934 -0.02109838 -0.02087856 -0.02087515 -0.02080882 1000 -0.02101934 -0.02109838 -0.02087856 -0.02087515 -0.02080882 1000
lala 18 0.075 1 first 13 1 310 4 3.145 0.339998006820679 0 1 1 0 -0.01978303 -0.01944582 -0.01928996 1000 1000 1000 -0.01978303 -0.01944582 -0.01928996 1000 1000 1000 -0.02106002 -0.02129354 -0.02120339 -0.02070561 -0.02044764 1000 -0.02106002 -0.02129354 -0.02120339 -0.02070561 -0.02044764 1000
lala 15 0.075 0 second 3 1 311 5 5.975 0.01999831199646 -1 1 -1 1 -0.02038875 -0.0208274 -0.02107056 -0.02136931 -0.02149337 1000 -0.02038875 -0.0208274 -0.02107056 -0.02136931 -0.02149337 1000 -0.02066112 -0.02062547 -0.0207422 -0.02044374 -0.02066846 1000 -0.02066112 -0.02062547 -0.0207422 -0.02044374 -0.02066846 1000
lala 16 0.6 0 second 9 1 312 5 2.25 0.219998121261597 1 1 -1 1 -0.02129321 -0.02175304 -0.0220192 -0.02202734 -0.02220608 1000 -0.02129321 -0.02175304 -0.0220192 -0.02202734 -0.02220608 1000 -0.0243334 -0.02449778 -0.02438501 -0.02404204 -0.02353162 1000 -0.0243334 -0.02449778 -0.02438501 -0.02404204 -0.02353162 1000
lala 19 0.01875 0 second 8 1 313 5 2.19375 0.559997797012329 1 0 -1 0 -0.02182601 -0.0219279 -0.02149089 -0.02152097 -0.02227406 1000 -0.02182601 -0.0219279 -0.02149089 -0.02152097 -0.02227406 1000 -0.02367609 -0.02351264 -0.02282105 -0.02292515 -0.02256449 1000 -0.02367609 -0.02351264 -0.02282105 -0.02292515 -0.02256449 1000
lala 12 0.6 1 first 15 1 314 5 4.25 0.01999831199646 0 1 1 0 -0.02146958 -0.02114254 -0.02098988 1000 1000 1000 -0.02146958 -0.02114254 -0.02098988 1000 1000 1000 -0.0223868 -0.02252912 -0.02255299 -0.02223843 -0.02177429 1000 -0.0223868 -0.02252912 -0.02255299 -0.02223843 -0.02177429 1000
lala 22 0.0375 1 first 11 1 315 6 3.198751 0.139998197555542 1 1 1 0 -0.02164545 -0.02150777 -0.021102 1000 1000 1000 -0.02164545 -0.02150777 -0.021102 1000 1000 1000 -0.02503449 -0.02529494 -0.02547254 -0.02572865 -0.02531708 1000 -0.02503449 -0.02529494 -0.02547254 -0.02572865 -0.02531708 1000
lala 22 0.009375 0 second 17 1 316 6 2.720626 0.359997987747192 0 1 -1 0 -0.02121204 -0.02136921 -0.02100165 -0.02071615 -0.02079796 1000 -0.02121204 -0.02136921 -0.02100165 -0.02071615 -0.02079796 1000 -0.02240471 -0.02220487 -0.02263313 -0.02342021 -0.02356593 1000 -0.02240471 -0.02220487 -0.02263313 -0.02342021 -0.02356593 1000
lala 16 0.6 0 second 16 1 317 6 3.36 0.439997911453247 0 0 -1 1 -0.02304921 -0.02301805 -0.02325084 -0.02353066 -0.02357527 1000 -0.02304921 -0.02301805 -0.02325084 -0.02353066 -0.02357527 1000 -0.02461888 -0.02420007 -0.02396925 -0.02409756 -0.0239471 1000 -0.02461888 -0.02420007 -0.02396925 -0.02409756 -0.0239471 1000
lala 27 0.01875 0 second 4 1 318 6 4.930312 0.279998064041138 -1 0 -1 0 -0.02432708 -0.02445516 -0.02475957 -0.02501055 -0.02515167 1000 -0.02432708 -0.02445516 -0.02475957 -0.02501055 -0.02515167 1000 -0.02643143 -0.02660022 -0.02668427 -0.02698835 -0.02694057 1000 -0.02643143 -0.02660022 -0.02668427 -0.02698835 -0.02694057 1000
lala 18 0.075 1 second 1 1 319 4 3.145001 0.01999831199646 -1 1 1 1 -0.02545005 -0.02541527 -0.02520645 -0.02524956 -0.02592598 1000 -0.02545005 -0.02541527 -0.02520645 -0.02524956 -0.02592598 1000 -0.02728261 -0.02736439 -0.02699439 -0.02627898 -0.02645691 1000 -0.02728261 -0.02736439 -0.02699439 -0.02627898 -0.02645691 1000
lala 16 0.075 1 first 3 1 320 5 6.05 0.01999831199646 -1 1 1 0 -0.02472113 -0.02466328 -0.02457574 1000 1000 1000 -0.02472113 -0.02466328 -0.02457574 1000 1000 1000 -0.02830821 -0.02767306 -0.02754959 -0.02789191 -0.02808933 1000 -0.02830821 -0.02767306 -0.02754959 -0.02789191 -0.02808933 1000
lala 23 0.009375 0 second 17 1 321 6 2.730001 0.299998044967651 0 1 -1 0 -0.006085601 -0.003603796 -0.001658566 -0.000193555 0.001502467 1000 -0.006085601 -0.003603796 -0.001658566 -0.000193555 0.001502467 1000 0.002732966 0.0008957662 -0.001053836 -0.003508068 -0.004780394 1000 0.002732966 0.0008957662 -0.001053836 -0.003508068 -0.004780394 1000
